Data from Location2.07152019.Energy5.Lamp.07192019.3%Agarose_HRD10591_14-57-00-359.txt Node
Date: Fri Jul 19 14:57:00 EDT 2019
User: cochatt
Spectrometer: HR+D1059
Trigger mode: 1
Integration Time (sec): 1.000000E-1
Scans to average: 1
Electric dark correction enabled: true
Nonlinearity correction enabled: false
Boxcar width: 0
XAxis mode: Wavelengths
Number of Pixels in Spectrum: 2048
>>>>>Begin Spectral Data<<<<<
223.165	-26
223.4	-26
223.635	-26
223.869	-17
224.104	-16
224.338	-8
224.573	-23
224.808	-16
225.042	-14
225.277	-20
225.511	0
225.746	6
225.98	17
226.215	22
226.449	23
226.683	18
226.918	31
227.152	23
227.387	40
227.621	43
227.856	43
228.09	49
228.324	54
228.559	54
228.793	59
229.027	69
229.262	70
229.496	65
229.73	81
229.964	74
230.199	72
230.433	75
230.667	74
230.901	81
231.136	75
231.37	84
231.604	75
231.838	73
232.072	79
232.306	73
232.541	96
232.775	96
233.009	73
233.243	74
233.477	78
233.711	89
233.945	97
234.179	85
234.413	101
234.647	79
234.881	73
235.115	84
235.349	77
235.583	90
235.817	86
236.051	73
236.285	62
236.519	80
236.753	94
236.987	69
237.221	85
237.455	75
237.689	84
237.922	85
238.156	71
238.39	75
238.624	82
238.858	76
239.091	78
239.325	81
239.559	74
239.793	80
240.027	87
240.26	60
240.494	72
240.728	73
240.961	78
241.195	82
241.429	70
241.662	73
241.896	71
242.13	82
242.363	76
242.597	79
242.83	75
243.064	83
243.298	75
243.531	67
243.765	62
243.998	77
244.232	94
244.465	77
244.699	73
244.932	84
245.166	72
245.399	83
245.633	87
245.866	87
246.099	73
246.333	85
246.566	72
246.8	76
247.033	76
247.266	79
247.5	74
247.733	86
247.966	89
248.2	76
248.433	73
248.666	69
248.899	91
249.133	84
249.366	72
249.599	79
249.832	66
250.066	64
250.299	76
250.532	82
250.765	78
250.998	85
251.231	76
251.465	84
251.698	78
251.931	81
252.164	69
252.397	73
252.63	73
252.863	74
253.096	75
253.329	82
253.562	74
253.795	86
254.028	93
254.261	73
254.494	86
254.727	70
254.96	93
255.193	89
255.426	82
255.659	81
255.892	84
256.124	76
256.357	84
256.59	77
256.823	89
257.056	91
257.289	81
257.521	82
257.754	81
257.987	71
258.22	94
258.452	73
258.685	86
258.918	78
259.151	91
259.383	87
259.616	81
259.849	68
260.081	75
260.314	86
260.547	80
260.779	72
261.012	71
261.244	79
261.477	88
261.71	89
261.942	76
262.175	84
262.407	81
262.64	86
262.872	72
263.105	67
263.337	69
263.57	74
263.802	94
264.035	77
264.267	75
264.499	75
264.732	64
264.964	93
265.197	76
265.429	85
265.661	86
265.894	84
266.126	75
266.358	86
266.591	91
266.823	73
267.055	74
267.287	81
267.52	95
267.752	88
267.984	75
268.216	75
268.448	92
268.681	88
268.913	90
269.145	73
269.377	81
269.609	88
269.841	83
270.073	91
270.306	80
270.538	78
270.77	79
271.002	75
271.234	81
271.466	86
271.698	73
271.93	78
272.162	70
272.394	82
272.626	93
272.858	83
273.09	85
273.322	84
273.553	78
273.785	88
274.017	94
274.249	89
274.481	81
274.713	74
274.945	79
275.176	77
275.408	97
275.64	89
275.872	93
276.104	82
276.335	79
276.567	84
276.799	97
277.031	76
277.262	90
277.494	74
277.726	84
277.957	98
278.189	90
278.421	92
278.652	99
278.884	83
279.115	89
279.347	98
279.579	93
279.81	92
280.042	83
280.273	93
280.505	90
280.736	70
280.968	83
281.199	88
281.431	83
281.662	73
281.894	98
282.125	104
282.356	83
282.588	93
282.819	84
283.051	85
283.282	86
283.513	80
283.745	85
283.976	92
284.207	86
284.439	81
284.67	81
284.901	80
285.132	84
285.364	90
285.595	82
285.826	83
286.057	89
286.288	80
286.52	80
286.751	86
286.982	83
287.213	88
287.444	93
287.675	86
287.906	97
288.138	90
288.369	84
288.6	74
288.831	86
289.062	97
289.293	96
289.524	83
289.755	74
289.986	72
290.217	88
290.448	99
290.679	94
290.91	81
291.141	85
291.371	80
291.602	78
291.833	86
292.064	89
292.295	87
292.526	86
292.757	86
292.987	91
293.218	90
293.449	96
293.68	86
293.91	84
294.141	71
294.372	84
294.603	76
294.833	80
295.064	76
295.295	76
295.525	78
295.756	97
295.987	84
296.217	82
296.448	80
296.679	81
296.909	90
297.14	78
297.37	84
297.601	88
297.831	90
298.062	78
298.292	82
298.523	97
298.753	90
298.984	81
299.214	71
299.445	80
299.675	94
299.905	78
300.136	85
300.366	79
300.597	76
300.827	74
301.057	88
301.288	90
301.518	87
301.748	76
301.979	87
302.209	78
302.439	86
302.669	92
302.9	85
303.13	76
303.36	87
303.59	92
303.82	88
304.051	72
304.281	101
304.511	98
304.741	85
304.971	85
305.201	86
305.431	91
305.661	87
305.891	91
306.121	97
306.352	84
306.582	90
306.812	91
307.042	94
307.272	94
307.502	90
307.731	76
307.961	82
308.191	81
308.421	77
308.651	88
308.881	99
309.111	79
309.341	87
309.571	83
309.8	86
310.03	100
310.26	102
310.49	80
310.72	86
310.949	97
311.179	83
311.409	80
311.639	91
311.868	79
312.098	82
312.328	97
312.557	83
312.787	90
313.017	80
313.246	85
313.476	81
313.706	77
313.935	95
314.165	92
314.394	87
314.624	88
314.853	89
315.083	104
315.312	85
315.542	65
315.771	88
316.001	87
316.23	88
316.46	82
316.689	86
316.919	84
317.148	93
317.377	87
317.607	87
317.836	82
318.065	88
318.295	97
318.524	89
318.753	89
318.983	85
319.212	86
319.441	92
319.67	90
319.9	70
320.129	85
320.358	84
320.587	79
320.816	81
321.046	89
321.275	100
321.504	72
321.733	76
321.962	79
322.191	87
322.42	93
322.649	84
322.878	84
323.108	92
323.337	88
323.566	81
323.795	74
324.024	101
324.253	82
324.482	98
324.71	86
324.939	89
325.168	82
325.397	81
325.626	90
325.855	81
326.084	93
326.313	97
326.542	85
326.77	92
326.999	91
327.228	83
327.457	94
327.686	97
327.914	83
328.143	86
328.372	93
328.6	100
328.829	85
329.058	88
329.287	85
329.515	80
329.744	85
329.972	85
330.201	91
330.43	65
330.658	101
330.887	76
331.115	92
331.344	86
331.572	81
331.801	100
332.03	103
332.258	97
332.486	84
332.715	103
332.943	90
333.172	90
333.4	77
333.629	84
333.857	86
334.085	88
334.314	86
334.542	80
334.771	85
334.999	70
335.227	72
335.455	75
335.684	84
335.912	93
336.14	86
336.369	89
336.597	86
336.825	82
337.053	91
337.281	77
337.51	86
337.738	82
337.966	87
338.194	87
338.422	83
338.65	78
338.878	92
339.106	82
339.334	74
339.562	75
339.79	93
340.018	89
340.246	78
340.474	90
340.702	86
340.93	85
341.158	81
341.386	72
341.614	93
341.842	82
342.07	86
342.298	84
342.526	81
342.754	77
342.981	75
343.209	99
343.437	88
343.665	88
343.893	81
344.12	84
344.348	76
344.576	82
344.804	91
345.031	85
345.259	73
345.487	85
345.714	82
345.942	68
346.17	83
346.397	77
346.625	74
346.853	88
347.08	74
347.308	77
347.535	89
347.763	96
347.99	84
348.218	87
348.445	82
348.673	82
348.9	89
349.128	87
349.355	85
349.583	91
349.81	77
350.037	85
350.265	77
350.492	78
350.72	81
350.947	84
351.174	92
351.402	76
351.629	91
351.856	83
352.083	84
352.311	85
352.538	80
352.765	92
352.992	96
353.22	90
353.447	85
353.674	85
353.901	92
354.128	90
354.355	91
354.583	76
354.81	90
355.037	87
355.264	90
355.491	75
355.718	69
355.945	71
356.172	98
356.399	95
356.626	82
356.853	79
357.08	81
357.307	91
357.534	78
357.761	79
357.988	86
358.215	84
358.441	86
358.668	97
358.895	92
359.122	88
359.349	75
359.576	84
359.802	89
360.029	87
360.256	91
360.483	91
360.709	84
360.936	86
361.163	91
361.39	96
361.616	78
361.843	84
362.07	84
362.296	102
362.523	86
362.749	72
362.976	73
363.203	101
363.429	78
363.656	81
363.882	91
364.109	77
364.335	88
364.562	92
364.788	79
365.015	77
365.241	87
365.468	102
365.694	78
365.92	87
366.147	81
366.373	92
366.599	81
366.826	97
367.052	88
367.278	88
367.505	97
367.731	102
367.957	86
368.184	74
368.41	91
368.636	88
368.862	87
369.089	96
369.315	93
369.541	98
369.767	92
369.993	97
370.219	93
370.445	94
370.672	94
370.898	85
371.124	83
371.35	82
371.576	88
371.802	96
372.028	97
372.254	104
372.48	92
372.706	95
372.932	99
373.158	92
373.384	84
373.61	78
373.835	99
374.061	96
374.287	99
374.513	88
374.739	82
374.965	96
375.191	76
375.416	110
375.642	106
375.868	92
376.094	93
376.319	99
376.545	89
376.771	97
376.997	107
377.222	83
377.448	84
377.674	99
377.899	102
378.125	85
378.35	95
378.576	93
378.802	93
379.027	92
379.253	90
379.478	89
379.704	94
379.929	81
380.155	83
380.38	97
380.606	93
380.831	94
381.057	101
381.282	88
381.507	95
381.733	102
381.958	94
382.184	92
382.409	92
382.634	113
382.86	104
383.085	102
383.31	95
383.535	104
383.761	93
383.986	101
384.211	94
384.436	102
384.662	96
384.887	102
385.112	94
385.337	90
385.562	100
385.787	89
386.013	109
386.238	97
386.463	99
386.688	110
386.913	106
387.138	85
387.363	91
387.588	100
387.813	85
388.038	105
388.263	97
388.488	93
388.713	97
388.938	96
389.163	79
389.387	108
389.612	105
389.837	107
390.062	95
390.287	105
390.512	100
390.736	117
390.961	116
391.186	111
391.411	101
391.636	105
391.86	97
392.085	109
392.31	89
392.534	97
392.759	106
392.984	90
393.208	90
393.433	102
393.658	102
393.882	110
394.107	112
394.331	96
394.556	117
394.78	109
395.005	101
395.229	98
395.454	114
395.678	91
395.903	114
396.127	123
396.352	123
396.576	97
396.801	96
397.025	114
397.249	117
397.474	104
397.698	115
397.922	117
398.147	112
398.371	107
398.595	96
398.82	113
399.044	101
399.268	109
399.492	101
399.717	104
399.941	95
400.165	120
400.389	102
400.613	116
400.837	109
401.062	112
401.286	102
401.51	103
401.734	100
401.958	110
402.182	117
402.406	106
402.63	116
402.854	131
403.078	120
403.302	115
403.526	109
403.75	125
403.974	123
404.198	137
404.422	99
404.645	114
404.869	120
405.093	109
405.317	106
405.541	118
405.765	119
405.988	120
406.212	114
406.436	125
406.66	122
406.883	127
407.107	104
407.331	114
407.555	128
407.778	122
408.002	121
408.226	110
408.449	112
408.673	112
408.896	115
409.12	121
409.344	133
409.567	124
409.791	124
410.014	121
410.238	124
410.461	128
410.685	129
410.908	108
411.132	118
411.355	118
411.578	126
411.802	121
412.025	124
412.249	130
412.472	123
412.695	106
412.919	126
413.142	103
413.365	124
413.589	121
413.812	114
414.035	125
414.258	115
414.482	124
414.705	136
414.928	128
415.151	115
415.374	144
415.597	118
415.821	134
416.044	113
416.267	134
416.49	126
416.713	130
416.936	126
417.159	138
417.382	126
417.605	122
417.828	129
418.051	144
418.274	148
418.497	134
418.72	134
418.943	131
419.166	127
419.389	140
419.611	156
419.834	124
420.057	123
420.28	130
420.503	130
420.726	128
420.948	123
421.171	134
421.394	128
421.617	144
421.839	136
422.062	129
422.285	132
422.507	121
422.73	130
422.953	133
423.175	118
423.398	126
423.621	123
423.843	130
424.066	131
424.288	138
424.511	141
424.733	156
424.956	144
425.178	142
425.401	136
425.623	142
425.846	132
426.068	139
426.291	129
426.513	135
426.735	128
426.958	136
427.18	128
427.402	137
427.625	134
427.847	142
428.069	129
428.292	130
428.514	131
428.736	124
428.958	121
429.181	118
429.403	130
429.625	134
429.847	136
430.069	140
430.292	127
430.514	124
430.736	137
430.958	119
431.18	123
431.402	113
431.624	124
431.846	110
432.068	103
432.29	101
432.512	120
432.734	128
432.956	129
433.178	135
433.4	150
433.622	142
433.844	133
434.066	117
434.287	117
434.509	106
434.731	95
434.953	109
435.175	107
435.397	129
435.618	112
435.84	98
436.062	122
436.284	108
436.505	120
436.727	135
436.949	125
437.17	126
437.392	124
437.614	130
437.835	117
438.057	91
438.278	98
438.5	118
438.721	124
438.943	145
439.165	127
439.386	128
439.608	140
439.829	141
440.05	152
440.272	141
440.493	146
440.715	144
440.936	139
441.158	136
441.379	144
441.6	144
441.822	149
442.043	136
442.264	134
442.486	110
442.707	126
442.928	139
443.149	129
443.371	142
443.592	152
443.813	134
444.034	138
444.255	145
444.476	145
444.698	140
444.919	136
445.14	251
445.361	195
445.582	143
445.803	137
446.024	150
446.245	146
446.466	129
446.687	137
446.908	163
447.129	157
447.35	156
447.571	160
447.792	137
448.013	140
448.234	140
448.455	143
448.675	130
448.896	133
449.117	134
449.338	120
449.559	142
449.779	152
450	144
450.221	129
450.442	136
450.662	140
450.883	139
451.104	137
451.324	153
451.545	132
451.766	132
451.986	128
452.207	131
452.428	136
452.648	123
452.869	112
453.089	114
453.31	109
453.53	100
453.751	102
453.971	101
454.192	113
454.412	112
454.633	129
454.853	109
455.073	114
455.294	113
455.514	120
455.734	130
455.955	135
456.175	115
456.395	122
456.616	125
456.836	112
457.056	108
457.276	102
457.497	105
457.717	108
457.937	120
458.157	107
458.377	112
458.598	82
458.818	88
459.038	95
459.258	86
459.478	104
459.698	97
459.918	108
460.138	122
460.358	107
460.578	110
460.798	114
461.018	118
461.238	118
461.458	121
461.678	123
461.898	124
462.118	114
462.338	114
462.558	125
462.777	120
462.997	110
463.217	87
463.437	109
463.657	112
463.876	116
464.096	115
464.316	117
464.536	112
464.755	110
464.975	110
465.195	121
465.414	122
465.634	98
465.854	110
466.073	119
466.293	132
466.512	127
466.732	126
466.951	136
467.171	121
467.391	134
467.61	121
467.829	138
468.049	123
468.268	123
468.488	139
468.707	138
468.927	132
469.146	139
469.365	142
469.585	136
469.804	136
470.023	136
470.243	150
470.462	146
470.681	141
470.901	143
471.12	131
471.339	132
471.558	150
471.777	139
471.997	148
472.216	124
472.435	115
472.654	110
472.873	100
473.092	109
473.311	134
473.53	131
473.749	126
473.968	118
474.187	136
474.406	114
474.625	126
474.844	132
475.063	119
475.282	114
475.501	129
475.72	128
475.939	125
476.158	128
476.377	136
476.596	112
476.814	115
477.033	104
477.252	126
477.471	123
477.69	123
477.908	157
478.127	140
478.346	123
478.564	115
478.783	143
479.002	118
479.22	146
479.439	125
479.658	129
479.876	114
480.095	113
480.313	123
480.532	124
480.751	108
480.969	80
481.188	79
481.406	117
481.624	91
481.843	82
482.061	101
482.28	117
482.498	127
482.717	113
482.935	126
483.153	142
483.372	152
483.59	146
483.808	131
484.027	132
484.245	132
484.463	139
484.681	155
484.9	149
485.118	147
485.336	116
485.554	124
485.772	124
485.99	105
486.209	107
486.427	107
486.645	117
486.863	154
487.081	144
487.299	132
487.517	140
487.735	173
487.953	193
488.171	193
488.389	162
488.607	156
488.825	137
489.043	131
489.261	138
489.479	124
489.696	144
489.914	139
490.132	137
490.35	149
490.568	170
490.786	174
491.003	167
491.221	176
491.439	183
491.657	192
491.874	217
492.092	211
492.31	242
492.527	221
492.745	200
492.963	200
493.18	176
493.398	193
493.615	197
493.833	168
494.05	164
494.268	185
494.485	164
494.703	176
494.92	181
495.138	164
495.355	172
495.573	176
495.79	164
496.008	190
496.225	169
496.442	192
496.66	173
496.877	160
497.094	169
497.312	164
497.529	154
497.746	152
497.963	142
498.181	140
498.398	116
498.615	107
498.832	123
499.049	129
499.267	120
499.484	138
499.701	147
499.918	124
500.135	136
500.352	126
500.569	134
500.786	148
501.003	143
501.22	136
501.437	127
501.654	141
501.871	141
502.088	148
502.305	122
502.522	132
502.739	138
502.956	136
503.172	125
503.389	128
503.606	117
503.823	127
504.04	120
504.256	123
504.473	117
504.69	121
504.907	124
505.123	124
505.34	120
505.557	115
505.773	118
505.99	114
506.207	130
506.423	131
506.64	106
506.856	120
507.073	123
507.289	116
507.506	130
507.722	121
507.939	116
508.155	130
508.372	132
508.588	120
508.805	123
509.021	112
509.238	99
509.454	103
509.67	108
509.887	99
510.103	90
510.319	107
510.536	96
510.752	79
510.968	95
511.184	87
511.401	92
511.617	93
511.833	84
512.049	94
512.265	101
512.481	98
512.698	77
512.914	96
513.13	106
513.346	83
513.562	93
513.778	79
513.994	78
514.21	77
514.426	92
514.642	103
514.858	84
515.074	97
515.29	98
515.506	95
515.721	93
515.937	100
516.153	86
516.369	94
516.585	90
516.801	87
517.016	98
517.232	88
517.448	102
517.664	108
517.879	102
518.095	90
518.311	93
518.527	97
518.742	83
518.958	91
519.173	98
519.389	124
519.605	108
519.82	106
520.036	96
520.251	99
520.467	89
520.682	98
520.898	90
521.113	94
521.329	92
521.544	90
521.76	75
521.975	89
522.19	88
522.406	102
522.621	115
522.836	103
523.052	114
523.267	120
523.482	103
523.698	115
523.913	121
524.128	118
524.343	117
524.559	121
524.774	110
524.989	120
525.204	127
525.419	122
525.634	120
525.849	113
526.064	116
526.28	102
526.495	98
526.71	93
526.925	97
527.14	93
527.355	77
527.57	87
527.785	88
527.999	105
528.214	112
528.429	113
528.644	125
528.859	144
529.074	152
529.289	156
529.503	146
529.718	133
529.933	130
530.148	101
530.363	109
530.577	88
530.792	99
531.007	91
531.221	88
531.436	74
531.651	96
531.865	88
532.08	87
532.295	97
532.509	82
532.724	89
532.938	95
533.153	83
533.367	114
533.582	113
533.796	120
534.011	118
534.225	104
534.44	85
534.654	93
534.868	83
535.083	105
535.297	86
535.511	102
535.726	110
535.94	109
536.154	103
536.369	92
536.583	87
536.797	98
537.011	88
537.225	81
537.44	85
537.654	100
537.868	80
538.082	92
538.296	97
538.51	104
538.724	111
538.938	103
539.153	128
539.367	126
539.581	118
539.795	113
540.009	93
540.222	109
540.436	99
540.65	125
540.864	144
541.078	140
541.292	140
541.506	157
541.72	150
541.934	179
542.147	165
542.361	180
542.575	164
542.789	156
543.002	137
543.216	132
543.43	132
543.644	139
543.857	133
544.071	160
544.285	166
544.498	169
544.712	160
544.925	168
545.139	144
545.352	159
545.566	164
545.779	162
545.993	164
546.206	176
546.42	187
546.633	167
546.847	157
547.06	166
547.274	150
547.487	160
547.7	171
547.914	165
548.127	179
548.34	166
548.554	159
548.767	154
548.98	149
549.193	150
549.407	164
549.62	169
549.833	156
550.046	166
550.259	152
550.473	141
550.686	141
550.899	153
551.112	154
551.325	146
551.538	132
551.751	135
551.964	118
552.177	141
552.39	131
552.603	161
552.816	163
553.029	166
553.242	160
553.455	160
553.667	151
553.88	151
554.093	137
554.306	159
554.519	164
554.732	152
554.944	144
555.157	152
555.37	150
555.583	133
555.795	141
556.008	137
556.221	121
556.433	136
556.646	136
556.859	130
557.071	139
557.284	142
557.496	142
557.709	133
557.921	151
558.134	139
558.346	135
558.559	155
558.771	130
558.984	126
559.196	137
559.409	118
559.621	130
559.833	128
560.046	117
560.258	142
560.47	132
560.683	137
560.895	127
561.107	122
561.32	121
561.532	135
561.744	129
561.956	130
562.168	124
562.381	137
562.593	125
562.805	127
563.017	134
563.229	123
563.441	116
563.653	121
563.865	126
564.077	117
564.289	122
564.501	112
564.713	118
564.925	117
565.137	127
565.349	110
565.561	115
565.773	120
565.985	112
566.197	110
566.408	116
566.62	116
566.832	112
567.044	115
567.255	109
567.467	126
567.679	113
567.891	103
568.102	106
568.314	96
568.526	94
568.737	91
568.949	87
569.161	78
569.372	84
569.584	71
569.795	85
570.007	89
570.218	89
570.43	102
570.641	102
570.853	99
571.064	95
571.276	87
571.487	114
571.698	96
571.91	103
572.121	114
572.333	109
572.544	112
572.755	109
572.966	95
573.178	79
573.389	76
573.6	76
573.811	89
574.023	94
574.234	89
574.445	89
574.656	109
574.867	98
575.078	101
575.289	98
575.501	97
575.712	91
575.923	95
576.134	95
576.345	93
576.556	97
576.767	107
576.978	100
577.188	95
577.399	93
577.61	99
577.821	85
578.032	91
578.243	90
578.454	84
578.665	82
578.875	98
579.086	90
579.297	76
579.508	71
579.718	84
579.929	94
580.14	89
580.35	88
580.561	87
580.772	75
580.982	98
581.193	91
581.403	91
581.614	92
581.825	98
582.035	82
582.246	97
582.456	93
582.667	90
582.877	105
583.087	90
583.298	92
583.508	104
583.719	100
583.929	90
584.139	96
584.35	99
584.56	88
584.77	79
584.981	88
585.191	78
585.401	74
585.611	81
585.821	99
586.032	75
586.242	92
586.452	89
586.662	90
586.872	78
587.082	78
587.292	83
587.502	96
587.713	86
587.923	79
588.133	93
588.343	86
588.553	81
588.762	95
588.972	78
589.182	86
589.392	85
589.602	79
589.812	76
590.022	84
590.232	84
590.441	85
590.651	85
590.861	81
591.071	74
591.281	84
591.49	102
591.7	86
591.91	87
592.119	82
592.329	96
592.539	76
592.748	78
592.958	91
593.167	88
593.377	86
593.587	96
593.796	85
594.006	69
594.215	92
594.424	91
594.634	83
594.843	96
595.053	87
595.262	92
595.472	100
595.681	78
595.89	84
596.1	92
596.309	101
596.518	91
596.727	87
596.937	77
597.146	100
597.355	105
597.564	116
597.774	102
597.983	96
598.192	104
598.401	89
598.61	82
598.819	79
599.028	99
599.237	88
599.446	83
599.655	94
599.864	96
600.073	102
600.282	100
600.491	99
600.7	98
600.909	96
601.118	91
601.327	107
601.536	112
601.745	106
601.953	103
602.162	118
602.371	113
602.58	107
602.789	108
602.997	113
603.206	108
603.415	88
603.623	118
603.832	114
604.041	120
604.249	109
604.458	112
604.666	86
604.875	101
605.084	100
605.292	119
605.501	117
605.709	127
605.918	108
606.126	112
606.334	121
606.543	140
606.751	113
606.96	119
607.168	113
607.376	119
607.585	106
607.793	120
608.001	106
608.21	108
608.418	110
608.626	120
608.834	104
609.043	114
609.251	108
609.459	110
609.667	118
609.875	112
610.083	114
610.291	124
610.499	115
610.707	106
610.916	106
611.124	119
611.332	115
611.54	125
611.748	117
611.955	120
612.163	109
612.371	114
612.579	124
612.787	133
612.995	120
613.203	114
613.411	135
613.618	109
613.826	99
614.034	119
614.242	120
614.449	105
614.657	112
614.865	116
615.072	101
615.28	110
615.488	107
615.695	117
615.903	122
616.111	120
616.318	115
616.526	122
616.733	101
616.941	119
617.148	116
617.356	106
617.563	110
617.771	96
617.978	93
618.185	98
618.393	119
618.6	120
618.807	103
619.015	102
619.222	114
619.429	108
619.637	110
619.844	106
620.051	107
620.258	104
620.466	102
620.673	103
620.88	99
621.087	122
621.294	117
621.501	103
621.708	96
621.915	93
622.122	108
622.329	108
622.536	112
622.743	117
622.95	112
623.157	106
623.364	96
623.571	117
623.778	113
623.985	100
624.192	109
624.399	118
624.606	104
624.812	119
625.019	103
625.226	115
625.433	99
625.639	104
625.846	114
626.053	92
626.259	107
626.466	99
626.673	99
626.879	96
627.086	102
627.293	105
627.499	108
627.706	117
627.912	112
628.119	110
628.325	102
628.532	102
628.738	98
628.945	104
629.151	105
629.357	98
629.564	96
629.77	106
629.976	104
630.183	89
630.389	91
630.595	99
630.802	113
631.008	102
631.214	99
631.42	105
631.627	99
631.833	110
632.039	107
632.245	92
632.451	109
632.657	117
632.863	104
633.069	107
633.275	101
633.481	85
633.688	99
633.893	99
634.099	90
634.305	112
634.511	90
634.717	91
634.923	84
635.129	103
635.335	88
635.541	100
635.747	83
635.952	106
636.158	82
636.364	94
636.57	99
636.775	94
636.981	100
637.187	108
637.392	112
637.598	115
637.804	103
638.009	100
638.215	107
638.421	103
638.626	108
638.832	97
639.037	105
639.243	93
639.448	107
639.654	104
639.859	92
640.065	97
640.27	110
640.475	107
640.681	98
640.886	108
641.091	100
641.297	102
641.502	106
641.707	79
641.913	104
642.118	99
642.323	98
642.528	100
642.733	101
642.939	112
643.144	104
643.349	83
643.554	96
643.759	101
643.964	94
644.169	98
644.374	102
644.579	98
644.784	98
644.989	109
645.194	113
645.399	93
645.604	81
645.809	97
646.014	117
646.219	97
646.423	105
646.628	111
646.833	112
647.038	99
647.243	85
647.447	96
647.652	117
647.857	102
648.062	101
648.266	106
648.471	100
648.676	81
648.88	103
649.085	94
649.289	101
649.494	102
649.698	101
649.903	108
650.107	99
650.312	87
650.516	96
650.721	93
650.925	89
651.13	99
651.334	100
651.539	104
651.743	91
651.947	91
652.152	97
652.356	100
652.56	103
652.764	91
652.969	85
653.173	105
653.377	98
653.581	85
653.785	88
653.99	96
654.194	93
654.398	77
654.602	87
654.806	91
655.01	87
655.214	74
655.418	84
655.622	95
655.826	95
656.03	91
656.234	98
656.438	91
656.642	103
656.846	78
657.049	80
657.253	93
657.457	92
657.661	89
657.865	98
658.068	76
658.272	69
658.476	88
658.68	90
658.883	89
659.087	98
659.291	80
659.494	90
659.698	91
659.901	88
660.105	93
660.309	90
660.512	85
660.716	83
660.919	80
661.123	81
661.326	82
661.53	85
661.733	80
661.936	76
662.14	86
662.343	80
662.546	95
662.75	88
662.953	76
663.156	79
663.36	77
663.563	97
663.766	95
663.969	75
664.173	77
664.376	84
664.579	104
664.782	90
664.985	81
665.188	90
665.391	80
665.594	82
665.797	72
666	75
666.203	90
666.406	95
666.609	97
666.812	82
667.015	92
667.218	96
667.421	85
667.624	80
667.827	77
668.03	79
668.232	89
668.435	85
668.638	81
668.841	89
669.043	83
669.246	76
669.449	103
669.651	69
669.854	89
670.057	83
670.259	80
670.462	87
670.665	86
670.867	75
671.07	73
671.272	98
671.475	92
671.677	73
671.88	96
672.082	81
672.284	88
672.487	83
672.689	87
672.892	86
