Data from Location2.07152019.Energy5.Lamp.07192019.3%Agarose_HRD10591_14-56-38-358.txt Node
Date: Fri Jul 19 14:56:38 EDT 2019
User: cochatt
Spectrometer: HR+D1059
Trigger mode: 1
Integration Time (sec): 1.000000E-1
Scans to average: 1
Electric dark correction enabled: true
Nonlinearity correction enabled: false
Boxcar width: 0
XAxis mode: Wavelengths
Number of Pixels in Spectrum: 2048
>>>>>Begin Spectral Data<<<<<
223.165	-19
223.4	-19
223.635	-19
223.869	-32
224.104	-18
224.338	-11
224.573	-9
224.808	-9
225.042	-1
225.277	-9
225.511	-21
225.746	5
225.98	7
226.215	12
226.449	19
226.683	28
226.918	27
227.152	31
227.387	37
227.621	45
227.856	39
228.09	60
228.324	60
228.559	52
228.793	63
229.027	61
229.262	69
229.496	59
229.73	68
229.964	51
230.199	70
230.433	68
230.667	90
230.901	71
231.136	90
231.37	83
231.604	83
231.838	76
232.072	81
232.306	82
232.541	66
232.775	87
233.009	85
233.243	82
233.477	69
233.711	78
233.945	78
234.179	76
234.413	85
234.647	75
234.881	90
235.115	90
235.349	91
235.583	72
235.817	74
236.051	61
236.285	62
236.519	84
236.753	75
236.987	88
237.221	73
237.455	82
237.689	90
237.922	85
238.156	79
238.39	88
238.624	83
238.858	87
239.091	86
239.325	86
239.559	77
239.793	64
240.027	88
240.26	76
240.494	73
240.728	86
240.961	82
241.195	87
241.429	64
241.662	77
241.896	80
242.13	82
242.363	78
242.597	97
242.83	81
243.064	82
243.298	81
243.531	87
243.765	83
243.998	68
244.232	82
244.465	89
244.699	86
244.932	87
245.166	80
245.399	75
245.633	79
245.866	90
246.099	84
246.333	69
246.566	75
246.8	91
247.033	73
247.266	70
247.5	85
247.733	78
247.966	61
248.2	85
248.433	76
248.666	75
248.899	86
249.133	91
249.366	88
249.599	76
249.832	96
250.066	92
250.299	98
250.532	98
250.765	76
250.998	80
251.231	90
251.465	79
251.698	74
251.931	86
252.164	89
252.397	80
252.63	71
252.863	76
253.096	71
253.329	78
253.562	84
253.795	82
254.028	89
254.261	84
254.494	78
254.727	74
254.96	92
255.193	117
255.426	69
255.659	87
255.892	92
256.124	87
256.357	69
256.59	84
256.823	84
257.056	93
257.289	81
257.521	82
257.754	80
257.987	90
258.22	82
258.452	76
258.685	92
258.918	85
259.151	80
259.383	78
259.616	87
259.849	87
260.081	87
260.314	79
260.547	90
260.779	79
261.012	86
261.244	99
261.477	85
261.71	63
261.942	86
262.175	78
262.407	83
262.64	93
262.872	87
263.105	82
263.337	94
263.57	75
263.802	87
264.035	79
264.267	80
264.499	91
264.732	98
264.964	83
265.197	82
265.429	92
265.661	76
265.894	79
266.126	88
266.358	81
266.591	75
266.823	103
267.055	85
267.287	90
267.52	75
267.752	90
267.984	76
268.216	79
268.448	86
268.681	88
268.913	81
269.145	73
269.377	86
269.609	76
269.841	95
270.073	104
270.306	83
270.538	98
270.77	88
271.002	89
271.234	91
271.466	89
271.698	94
271.93	102
272.162	82
272.394	93
272.626	81
272.858	87
273.09	70
273.322	98
273.553	87
273.785	91
274.017	82
274.249	86
274.481	79
274.713	93
274.945	78
275.176	75
275.408	86
275.64	87
275.872	88
276.104	104
276.335	79
276.567	75
276.799	88
277.031	80
277.262	88
277.494	83
277.726	96
277.957	92
278.189	94
278.421	86
278.652	96
278.884	81
279.115	90
279.347	81
279.579	91
279.81	93
280.042	79
280.273	80
280.505	90
280.736	80
280.968	74
281.199	85
281.431	95
281.662	90
281.894	96
282.125	80
282.356	77
282.588	94
282.819	74
283.051	92
283.282	79
283.513	96
283.745	101
283.976	100
284.207	90
284.439	75
284.67	79
284.901	93
285.132	92
285.364	92
285.595	83
285.826	94
286.057	95
286.288	95
286.52	89
286.751	91
286.982	82
287.213	101
287.444	77
287.675	99
287.906	105
288.138	80
288.369	84
288.6	86
288.831	92
289.062	86
289.293	93
289.524	83
289.755	90
289.986	79
290.217	91
290.448	93
290.679	90
290.91	97
291.141	99
291.371	71
291.602	85
291.833	75
292.064	83
292.295	92
292.526	89
292.757	74
292.987	86
293.218	94
293.449	89
293.68	77
293.91	93
294.141	99
294.372	96
294.603	88
294.833	87
295.064	83
295.295	87
295.525	77
295.756	95
295.987	91
296.217	82
296.448	89
296.679	89
296.909	88
297.14	93
297.37	97
297.601	79
297.831	94
298.062	86
298.292	88
298.523	98
298.753	83
298.984	78
299.214	97
299.445	75
299.675	80
299.905	88
300.136	74
300.366	77
300.597	86
300.827	97
301.057	84
301.288	81
301.518	77
301.748	96
301.979	99
302.209	84
302.439	93
302.669	77
302.9	77
303.13	82
303.36	77
303.59	90
303.82	87
304.051	91
304.281	85
304.511	87
304.741	89
304.971	77
305.201	93
305.431	80
305.661	62
305.891	84
306.121	92
306.352	78
306.582	102
306.812	90
307.042	91
307.272	83
307.502	75
307.731	87
307.961	81
308.191	87
308.421	84
308.651	94
308.881	86
309.111	91
309.341	76
309.571	87
309.8	82
310.03	84
310.26	83
310.49	78
310.72	89
310.949	85
311.179	70
311.409	90
311.639	86
311.868	94
312.098	80
312.328	86
312.557	79
312.787	70
313.017	91
313.246	91
313.476	78
313.706	98
313.935	92
314.165	82
314.394	82
314.624	83
314.853	92
315.083	85
315.312	78
315.542	92
315.771	89
316.001	87
316.23	89
316.46	86
316.689	79
316.919	90
317.148	93
317.377	85
317.607	97
317.836	76
318.065	97
318.295	93
318.524	77
318.753	77
318.983	82
319.212	93
319.441	81
319.67	86
319.9	94
320.129	82
320.358	83
320.587	89
320.816	91
321.046	92
321.275	87
321.504	72
321.733	89
321.962	92
322.191	77
322.42	91
322.649	86
322.878	90
323.108	87
323.337	87
323.566	92
323.795	80
324.024	91
324.253	94
324.482	83
324.71	96
324.939	83
325.168	88
325.397	93
325.626	89
325.855	68
326.084	85
326.313	91
326.542	79
326.77	83
326.999	83
327.228	95
327.457	98
327.686	86
327.914	83
328.143	84
328.372	80
328.6	86
328.829	92
329.058	93
329.287	91
329.515	83
329.744	88
329.972	89
330.201	98
330.43	89
330.658	86
330.887	88
331.115	83
331.344	80
331.572	81
331.801	86
332.03	81
332.258	84
332.486	79
332.715	79
332.943	94
333.172	90
333.4	104
333.629	94
333.857	81
334.085	87
334.314	89
334.542	88
334.771	84
334.999	74
335.227	93
335.455	83
335.684	100
335.912	94
336.14	89
336.369	87
336.597	79
336.825	87
337.053	69
337.281	78
337.51	76
337.738	78
337.966	90
338.194	86
338.422	98
338.65	85
338.878	89
339.106	88
339.334	98
339.562	78
339.79	88
340.018	81
340.246	76
340.474	95
340.702	89
340.93	84
341.158	86
341.386	84
341.614	90
341.842	79
342.07	79
342.298	74
342.526	81
342.754	90
342.981	73
343.209	88
343.437	81
343.665	77
343.893	85
344.12	83
344.348	93
344.576	83
344.804	92
345.031	91
345.259	86
345.487	75
345.714	82
345.942	82
346.17	97
346.397	83
346.625	80
346.853	83
347.08	73
347.308	95
347.535	82
347.763	91
347.99	91
348.218	82
348.445	88
348.673	76
348.9	83
349.128	94
349.355	73
349.583	100
349.81	100
350.037	80
350.265	85
350.492	76
350.72	81
350.947	82
351.174	76
351.402	86
351.629	86
351.856	94
352.083	88
352.311	79
352.538	85
352.765	82
352.992	75
353.22	75
353.447	77
353.674	77
353.901	101
354.128	88
354.355	85
354.583	83
354.81	87
355.037	90
355.264	105
355.491	94
355.718	83
355.945	96
356.172	82
356.399	80
356.626	90
356.853	96
357.08	83
357.307	76
357.534	97
357.761	81
357.988	86
358.215	98
358.441	90
358.668	90
358.895	99
359.122	81
359.349	69
359.576	83
359.802	78
360.029	95
360.256	77
360.483	90
360.709	81
360.936	93
361.163	87
361.39	84
361.616	82
361.843	79
362.07	67
362.296	80
362.523	83
362.749	85
362.976	77
363.203	87
363.429	80
363.656	92
363.882	77
364.109	89
364.335	78
364.562	85
364.788	91
365.015	84
365.241	80
365.468	95
365.694	67
365.92	84
366.147	58
366.373	88
366.599	77
366.826	88
367.052	87
367.278	84
367.505	103
367.731	91
367.957	88
368.184	82
368.41	68
368.636	103
368.862	94
369.089	97
369.315	92
369.541	85
369.767	84
369.993	92
370.219	82
370.445	101
370.672	102
370.898	93
371.124	96
371.35	94
371.576	100
371.802	99
372.028	90
372.254	93
372.48	87
372.706	92
372.932	83
373.158	88
373.384	88
373.61	93
373.835	86
374.061	85
374.287	87
374.513	105
374.739	91
374.965	80
375.191	92
375.416	110
375.642	106
375.868	94
376.094	79
376.319	105
376.545	99
376.771	100
376.997	97
377.222	97
377.448	92
377.674	88
377.899	86
378.125	109
378.35	108
378.576	96
378.802	90
379.027	107
379.253	105
379.478	86
379.704	99
379.929	102
380.155	95
380.38	90
380.606	99
380.831	90
381.057	105
381.282	90
381.507	100
381.733	102
381.958	99
382.184	97
382.409	100
382.634	91
382.86	102
383.085	92
383.31	113
383.535	99
383.761	103
383.986	99
384.211	92
384.436	106
384.662	102
384.887	103
385.112	90
385.337	104
385.562	92
385.787	92
386.013	109
386.238	106
386.463	110
386.688	85
386.913	107
387.138	106
387.363	96
387.588	103
387.813	86
388.038	109
388.263	98
388.488	114
388.713	82
388.938	94
389.163	92
389.387	107
389.612	104
389.837	99
390.062	115
390.287	109
390.512	113
390.736	115
390.961	97
391.186	113
391.411	123
391.636	111
391.86	99
392.085	100
392.31	116
392.534	101
392.759	109
392.984	102
393.208	96
393.433	111
393.658	109
393.882	106
394.107	102
394.331	108
394.556	110
394.78	106
395.005	111
395.229	105
395.454	102
395.678	109
395.903	118
396.127	120
396.352	110
396.576	94
396.801	106
397.025	111
397.249	100
397.474	100
397.698	108
397.922	91
398.147	116
398.371	101
398.595	114
398.82	115
399.044	94
399.268	109
399.492	105
399.717	110
399.941	103
400.165	123
400.389	116
400.613	113
400.837	117
401.062	107
401.286	114
401.51	117
401.734	117
401.958	112
402.182	125
402.406	119
402.63	125
402.854	112
403.078	110
403.302	122
403.526	113
403.75	121
403.974	130
404.198	122
404.422	131
404.645	119
404.869	129
405.093	120
405.317	115
405.541	127
405.765	111
405.988	110
406.212	116
406.436	123
406.66	122
406.883	110
407.107	123
407.331	114
407.555	129
407.778	129
408.002	125
408.226	126
408.449	117
408.673	113
408.896	136
409.12	120
409.344	134
409.567	124
409.791	116
410.014	125
410.238	137
410.461	117
410.685	125
410.908	122
411.132	121
411.355	134
411.578	122
411.802	123
412.025	130
412.249	117
412.472	129
412.695	126
412.919	131
413.142	122
413.365	133
413.589	130
413.812	132
414.035	125
414.258	139
414.482	126
414.705	127
414.928	114
415.151	126
415.374	137
415.597	137
415.821	127
416.044	121
416.267	114
416.49	129
416.713	132
416.936	127
417.159	131
417.382	115
417.605	120
417.828	129
418.051	127
418.274	129
418.497	125
418.72	141
418.943	127
419.166	131
419.389	140
419.611	140
419.834	145
420.057	124
420.28	143
420.503	141
420.726	123
420.948	137
421.171	142
421.394	148
421.617	143
421.839	142
422.062	151
422.285	131
422.507	144
422.73	135
422.953	129
423.175	131
423.398	125
423.621	142
423.843	130
424.066	129
424.288	157
424.511	143
424.733	126
424.956	142
425.178	152
425.401	148
425.623	133
425.846	133
426.068	121
426.291	133
426.513	134
426.735	141
426.958	124
427.18	144
427.402	124
427.625	133
427.847	135
428.069	133
428.292	125
428.514	141
428.736	138
428.958	129
429.181	133
429.403	133
429.625	135
429.847	151
430.069	132
430.292	123
430.514	130
430.736	121
430.958	122
431.18	125
431.402	141
431.624	127
431.846	114
432.068	102
432.29	101
432.512	104
432.734	108
432.956	145
433.178	143
433.4	151
433.622	151
433.844	146
434.066	110
434.287	109
434.509	106
434.731	97
434.953	101
435.175	131
435.397	127
435.618	125
435.84	127
436.062	125
436.284	131
436.505	152
436.727	137
436.949	125
437.17	130
437.392	133
437.614	123
437.835	106
438.057	97
438.278	116
438.5	142
438.721	139
438.943	141
439.165	142
439.386	146
439.608	156
439.829	139
440.05	151
440.272	134
440.493	149
440.715	135
440.936	141
441.158	127
441.379	131
441.6	144
441.822	143
442.043	155
442.264	155
442.486	156
442.707	141
442.928	156
443.149	144
443.371	121
443.592	123
443.813	149
444.034	145
444.255	125
444.476	144
444.698	153
444.919	157
445.14	273
445.361	190
445.582	163
445.803	149
446.024	142
446.245	152
446.466	161
446.687	154
446.908	156
447.129	155
447.35	151
447.571	150
447.792	144
448.013	142
448.234	131
448.455	153
448.675	132
448.896	135
449.117	137
449.338	137
449.559	135
449.779	134
450	136
450.221	149
450.442	124
450.662	143
450.883	141
451.104	148
451.324	141
451.545	132
451.766	117
451.986	117
452.207	129
452.428	126
452.648	119
452.869	117
453.089	122
453.31	107
453.53	121
453.751	107
453.971	114
454.192	102
454.412	116
454.633	126
454.853	121
455.073	123
455.294	124
455.514	132
455.734	109
455.955	137
456.175	115
456.395	113
456.616	105
456.836	119
457.056	119
457.276	109
457.497	112
457.717	113
457.937	109
458.157	107
458.377	103
458.598	96
458.818	85
459.038	83
459.258	97
459.478	91
459.698	105
459.918	105
460.138	102
460.358	125
460.578	125
460.798	109
461.018	124
461.238	133
461.458	112
461.678	125
461.898	116
462.118	118
462.338	125
462.558	120
462.777	119
462.997	99
463.217	110
463.437	110
463.657	118
463.876	120
464.096	115
464.316	115
464.536	107
464.755	122
464.975	108
465.195	129
465.414	120
465.634	119
465.854	114
466.073	107
466.293	106
466.512	129
466.732	134
466.951	142
467.171	135
467.391	138
467.61	138
467.829	126
468.049	131
468.268	125
468.488	133
468.707	131
468.927	134
469.146	130
469.365	135
469.585	138
469.804	149
470.023	127
470.243	153
470.462	159
470.681	149
470.901	130
471.12	142
471.339	144
471.558	155
471.777	137
471.997	125
472.216	126
472.435	113
472.654	113
472.873	115
473.092	106
473.311	129
473.53	123
473.749	136
473.968	133
474.187	119
474.406	130
474.625	114
474.844	130
475.063	126
475.282	113
475.501	123
475.72	124
475.939	117
476.158	126
476.377	127
476.596	139
476.814	120
477.033	105
477.252	122
477.471	131
477.69	113
477.908	129
478.127	134
478.346	118
478.564	123
478.783	142
479.002	133
479.22	141
479.439	131
479.658	114
479.876	119
480.095	118
480.313	119
480.532	132
480.751	118
480.969	99
481.188	97
481.406	94
481.624	91
481.843	94
482.061	119
482.28	107
482.498	111
482.717	114
482.935	124
483.153	152
483.372	158
483.59	154
483.808	154
484.027	136
484.245	130
484.463	134
484.681	153
484.9	141
485.118	131
485.336	150
485.554	140
485.772	104
485.99	107
486.209	103
486.427	105
486.645	107
486.863	142
487.081	135
487.299	124
487.517	140
487.735	159
487.953	176
488.171	174
488.389	178
488.607	159
488.825	140
489.043	138
489.261	139
489.479	142
489.696	150
489.914	155
490.132	137
490.35	156
490.568	164
490.786	167
491.003	193
491.221	181
491.439	196
491.657	188
491.874	200
492.092	219
492.31	239
492.527	242
492.745	190
492.963	202
493.18	187
493.398	194
493.615	174
493.833	178
494.05	182
494.268	175
494.485	177
494.703	173
494.92	166
495.138	169
495.355	180
495.573	170
495.79	177
496.008	167
496.225	166
496.442	175
496.66	169
496.877	172
497.094	157
497.312	160
497.529	170
497.746	149
497.963	138
498.181	141
498.398	127
498.615	124
498.832	109
499.049	122
499.267	133
499.484	131
499.701	124
499.918	132
500.135	136
500.352	129
500.569	134
500.786	163
501.003	155
501.22	148
501.437	139
501.654	132
501.871	139
502.088	126
502.305	132
502.522	130
502.739	135
502.956	134
503.172	114
503.389	128
503.606	123
503.823	127
504.04	113
504.256	119
504.473	105
504.69	121
504.907	121
505.123	126
505.34	123
505.557	133
505.773	126
505.99	127
506.207	134
506.423	113
506.64	124
506.856	120
507.073	122
507.289	116
507.506	122
507.722	124
507.939	122
508.155	114
508.372	120
508.588	119
508.805	124
509.021	128
509.238	108
509.454	109
509.67	106
509.887	95
510.103	88
510.319	105
510.536	91
510.752	97
510.968	88
511.184	84
511.401	99
511.617	99
511.833	93
512.049	92
512.265	96
512.481	106
512.698	106
512.914	100
513.13	98
513.346	94
513.562	112
513.778	100
513.994	89
514.21	87
514.426	101
514.642	92
514.858	86
515.074	105
515.29	103
515.506	89
515.721	91
515.937	90
516.153	82
516.369	86
516.585	85
516.801	72
517.016	87
517.232	98
517.448	102
517.664	101
517.879	97
518.095	88
518.311	94
518.527	110
518.742	92
518.958	104
519.173	103
519.389	125
519.605	108
519.82	101
520.036	100
520.251	119
520.467	113
520.682	97
520.898	98
521.113	86
521.329	95
521.544	103
521.76	87
521.975	84
522.19	119
522.406	86
522.621	113
522.836	101
523.052	115
523.267	113
523.482	125
523.698	107
523.913	121
524.128	128
524.343	131
524.559	122
524.774	131
524.989	130
525.204	111
525.419	104
525.634	101
525.849	118
526.064	103
526.28	114
526.495	104
526.71	92
526.925	85
527.14	89
527.355	93
527.57	85
527.785	83
527.999	107
528.214	121
528.429	117
528.644	113
528.859	141
529.074	151
529.289	152
529.503	163
529.718	135
529.933	120
530.148	113
530.363	110
530.577	88
530.792	87
531.007	79
531.221	91
531.436	85
531.651	82
531.865	83
532.08	78
532.295	99
532.509	99
532.724	92
532.938	108
533.153	114
533.367	110
533.582	120
533.796	123
534.011	126
534.225	99
534.44	96
534.654	95
534.868	98
535.083	122
535.297	99
535.511	94
535.726	103
535.94	99
536.154	107
536.369	91
536.583	91
536.797	93
537.011	105
537.225	91
537.44	88
537.654	93
537.868	92
538.082	98
538.296	98
538.51	95
538.724	127
538.938	123
539.153	129
539.367	121
539.581	114
539.795	108
540.009	103
540.222	104
540.436	104
540.65	117
540.864	135
541.078	138
541.292	145
541.506	148
541.72	163
541.934	187
542.147	198
542.361	166
542.575	168
542.789	162
543.002	148
543.216	125
543.43	128
543.644	135
543.857	131
544.071	138
544.285	168
544.498	154
544.712	164
544.925	161
545.139	177
545.352	166
545.566	164
545.779	158
545.993	170
546.206	178
546.42	166
546.633	160
546.847	162
547.06	154
547.274	155
547.487	178
547.7	182
547.914	159
548.127	159
548.34	161
548.554	156
548.767	144
548.98	159
549.193	148
549.407	155
549.62	158
549.833	148
550.046	144
550.259	163
550.473	150
550.686	166
550.899	138
551.112	148
551.325	148
551.538	143
551.751	145
551.964	139
552.177	132
552.39	129
552.603	141
552.816	146
553.029	159
553.242	155
553.455	150
553.667	147
553.88	168
554.093	147
554.306	159
554.519	158
554.732	149
554.944	145
555.157	151
555.37	140
555.583	137
555.795	150
556.008	144
556.221	133
556.433	142
556.646	130
556.859	128
557.071	125
557.284	146
557.496	147
557.709	133
557.921	136
558.134	133
558.346	151
558.559	144
558.771	136
558.984	132
559.196	138
559.409	134
559.621	130
559.833	123
560.046	139
560.258	148
560.47	137
560.683	129
560.895	125
561.107	133
561.32	131
561.532	137
561.744	125
561.956	143
562.168	129
562.381	137
562.593	131
562.805	133
563.017	122
563.229	118
563.441	115
563.653	118
563.865	123
564.077	126
564.289	137
564.501	120
564.713	127
564.925	113
565.137	125
565.349	115
565.561	93
565.773	135
565.985	115
566.197	136
566.408	118
566.62	106
566.832	127
567.044	125
567.255	123
567.467	114
567.679	116
567.891	104
568.102	114
568.314	97
568.526	88
568.737	98
568.949	87
569.161	80
569.372	91
569.584	87
569.795	97
570.007	96
570.218	102
570.43	102
570.641	106
570.853	82
571.064	86
571.276	98
571.487	98
571.698	110
571.91	98
572.121	104
572.333	110
572.544	108
572.755	111
572.966	92
573.178	85
573.389	79
573.6	82
573.811	79
574.023	98
574.234	92
574.445	80
574.656	107
574.867	86
575.078	101
575.289	85
575.501	100
575.712	86
575.923	93
576.134	105
576.345	101
576.556	99
576.767	104
576.978	106
577.188	102
577.399	109
577.61	83
577.821	94
578.032	98
578.243	90
578.454	87
578.665	99
578.875	98
579.086	96
579.297	86
579.508	88
579.718	91
579.929	96
580.14	91
580.35	86
580.561	75
580.772	92
580.982	100
581.193	99
581.403	122
581.614	98
581.825	95
582.035	102
582.246	101
582.456	106
582.667	85
582.877	95
583.087	92
583.298	91
583.508	102
583.719	83
583.929	95
584.139	83
584.35	82
584.56	97
584.77	78
584.981	90
585.191	106
585.401	101
585.611	92
585.821	96
586.032	96
586.242	92
586.452	100
586.662	86
586.872	85
587.082	97
587.292	89
587.502	97
587.713	107
587.923	83
588.133	99
588.343	84
588.553	76
588.762	86
588.972	88
589.182	107
589.392	100
589.602	90
589.812	94
590.022	97
590.232	68
590.441	86
590.651	85
590.861	81
591.071	90
591.281	86
591.49	86
591.7	92
591.91	101
592.119	90
592.329	87
592.539	92
592.748	75
592.958	91
593.167	78
593.377	77
593.587	88
593.796	91
594.006	87
594.215	94
594.424	101
594.634	87
594.843	99
595.053	91
595.262	90
595.472	86
595.681	79
595.89	93
596.1	99
596.309	100
596.518	99
596.727	101
596.937	87
597.146	98
597.355	96
597.564	102
597.774	83
597.983	91
598.192	94
598.401	84
598.61	76
598.819	93
599.028	91
599.237	100
599.446	108
599.655	87
599.864	103
600.073	85
600.282	106
600.491	93
600.7	107
600.909	93
601.118	99
601.327	108
601.536	99
601.745	120
601.953	131
602.162	117
602.371	114
602.58	113
602.789	107
602.997	100
603.206	126
603.415	101
603.623	102
603.832	114
604.041	114
604.249	88
604.458	108
604.666	101
604.875	105
605.084	91
605.292	102
605.501	118
605.709	119
605.918	127
606.126	115
606.334	121
606.543	116
606.751	125
606.96	121
607.168	109
607.376	102
607.585	130
607.793	118
608.001	121
608.21	102
608.418	109
608.626	114
608.834	118
609.043	120
609.251	110
609.459	111
609.667	118
609.875	118
610.083	119
610.291	131
610.499	119
610.707	126
610.916	117
611.124	106
611.332	97
611.54	113
611.748	123
611.955	113
612.163	124
612.371	119
612.579	120
612.787	110
612.995	119
613.203	111
613.411	116
613.618	110
613.826	124
614.034	105
614.242	113
614.449	116
614.657	88
614.865	109
615.072	113
615.28	125
615.488	85
615.695	100
615.903	89
616.111	111
616.318	130
616.526	113
616.733	115
616.941	121
617.148	112
617.356	101
617.563	108
617.771	106
617.978	105
618.185	117
618.393	106
618.6	110
618.807	123
619.015	119
619.222	106
619.429	120
619.637	106
619.844	101
620.051	105
620.258	120
620.466	108
620.673	116
620.88	102
621.087	107
621.294	111
621.501	90
621.708	114
621.915	117
622.122	119
622.329	106
622.536	90
622.743	97
622.95	120
623.157	115
623.364	113
623.571	117
623.778	105
623.985	107
624.192	129
624.399	103
624.606	103
624.812	107
625.019	112
625.226	105
625.433	114
625.639	94
625.846	95
626.053	87
626.259	106
626.466	107
626.673	100
626.879	86
627.086	94
627.293	107
627.499	100
627.706	113
627.912	104
628.119	91
628.325	117
628.532	106
628.738	110
628.945	116
629.151	106
629.357	100
629.564	113
629.77	99
629.976	103
630.183	112
630.389	120
630.595	121
630.802	112
631.008	105
631.214	104
631.42	96
631.627	102
631.833	111
632.039	101
632.245	85
632.451	92
632.657	98
632.863	105
633.069	110
633.275	93
633.481	99
633.688	93
633.893	102
634.099	97
634.305	106
634.511	108
634.717	99
634.923	93
635.129	100
635.335	96
635.541	98
635.747	93
635.952	114
636.158	113
636.364	107
636.57	93
636.775	100
636.981	106
637.187	101
637.392	118
637.598	102
637.804	113
638.009	96
638.215	105
638.421	107
638.626	100
638.832	112
639.037	115
639.243	106
639.448	94
639.654	119
639.859	117
640.065	101
640.27	93
640.475	95
640.681	112
640.886	113
641.091	91
641.297	101
641.502	100
641.707	105
641.913	110
642.118	117
642.323	122
642.528	91
642.733	103
642.939	109
643.144	116
643.349	105
643.554	97
643.759	113
643.964	97
644.169	95
644.374	108
644.579	117
644.784	87
644.989	108
645.194	83
645.399	99
645.604	97
645.809	104
646.014	98
646.219	100
646.423	97
646.628	93
646.833	100
647.038	108
647.243	91
647.447	99
647.652	102
647.857	98
648.062	97
648.266	85
648.471	94
648.676	94
648.88	112
649.085	97
649.289	119
649.494	105
649.698	101
649.903	120
650.107	103
650.312	94
650.516	103
650.721	89
650.925	89
651.13	87
651.334	93
651.539	110
651.743	84
651.947	83
652.152	100
652.356	84
652.56	90
652.764	94
652.969	95
653.173	97
653.377	106
653.581	98
653.785	89
653.99	103
654.194	93
654.398	89
654.602	104
654.806	93
655.01	88
655.214	101
655.418	102
655.622	94
655.826	93
656.03	82
656.234	93
656.438	81
656.642	97
656.846	86
657.049	84
657.253	99
657.457	83
657.661	88
657.865	94
658.068	93
658.272	94
658.476	95
658.68	98
658.883	100
659.087	86
659.291	97
659.494	101
659.698	83
659.901	94
660.105	100
660.309	95
660.512	90
660.716	73
660.919	94
661.123	93
661.326	83
661.53	79
661.733	70
661.936	83
662.14	91
662.343	88
662.546	90
662.75	90
662.953	97
663.156	86
663.36	87
663.563	92
663.766	83
663.969	88
664.173	87
664.376	89
664.579	88
664.782	85
664.985	74
665.188	66
665.391	73
665.594	84
665.797	79
666	97
666.203	72
666.406	74
666.609	91
666.812	91
667.015	85
667.218	88
667.421	80
667.624	97
667.827	86
668.03	80
668.232	83
668.435	83
668.638	85
668.841	87
669.043	88
669.246	75
669.449	87
669.651	76
669.854	85
670.057	70
670.259	76
670.462	86
670.665	85
670.867	78
671.07	85
671.272	79
671.475	97
671.677	86
671.88	85
672.082	65
672.284	83
672.487	93
672.689	85
672.892	82
