Data from Location2.07152019.Energy5.Lamp.07192019.3%Agarose_HRD10591_14-55-45-358.txt Node
Date: Fri Jul 19 14:55:45 EDT 2019
User: cochatt
Spectrometer: HR+D1059
Trigger mode: 1
Integration Time (sec): 1.000000E-1
Scans to average: 1
Electric dark correction enabled: true
Nonlinearity correction enabled: false
Boxcar width: 0
XAxis mode: Wavelengths
Number of Pixels in Spectrum: 2048
>>>>>Begin Spectral Data<<<<<
223.165	-11
223.4	-11
223.635	-11
223.869	-21
224.104	-5
224.338	-18
224.573	-18
224.808	-9
225.042	-6
225.277	1
225.511	-13
225.746	7
225.98	5
226.215	21
226.449	2
226.683	18
226.918	23
227.152	24
227.387	38
227.621	44
227.856	32
228.09	38
228.324	56
228.559	51
228.793	76
229.027	56
229.262	61
229.496	71
229.73	64
229.964	72
230.199	85
230.433	75
230.667	82
230.901	71
231.136	85
231.37	70
231.604	81
231.838	79
232.072	71
232.306	78
232.541	72
232.775	73
233.009	82
233.243	89
233.477	82
233.711	88
233.945	88
234.179	82
234.413	91
234.647	84
234.881	81
235.115	61
235.349	91
235.583	88
235.817	79
236.051	76
236.285	71
236.519	91
236.753	90
236.987	77
237.221	76
237.455	80
237.689	77
237.922	81
238.156	70
238.39	67
238.624	89
238.858	78
239.091	78
239.325	82
239.559	78
239.793	79
240.027	92
240.26	73
240.494	84
240.728	81
240.961	77
241.195	88
241.429	79
241.662	73
241.896	84
242.13	76
242.363	85
242.597	69
242.83	79
243.064	86
243.298	77
243.531	74
243.765	82
243.998	78
244.232	88
244.465	74
244.699	80
244.932	71
245.166	71
245.399	86
245.633	81
245.866	87
246.099	71
246.333	84
246.566	68
246.8	77
247.033	81
247.266	79
247.5	69
247.733	86
247.966	85
248.2	79
248.433	74
248.666	76
248.899	89
249.133	79
249.366	85
249.599	90
249.832	75
250.066	86
250.299	83
250.532	74
250.765	78
250.998	75
251.231	88
251.465	91
251.698	74
251.931	83
252.164	84
252.397	76
252.63	99
252.863	64
253.096	74
253.329	75
253.562	86
253.795	66
254.028	75
254.261	73
254.494	80
254.727	86
254.96	82
255.193	79
255.426	76
255.659	75
255.892	85
256.124	69
256.357	78
256.59	85
256.823	69
257.056	94
257.289	85
257.521	80
257.754	87
257.987	83
258.22	69
258.452	79
258.685	82
258.918	78
259.151	73
259.383	83
259.616	77
259.849	84
260.081	71
260.314	81
260.547	83
260.779	90
261.012	75
261.244	69
261.477	90
261.71	81
261.942	70
262.175	80
262.407	84
262.64	78
262.872	83
263.105	85
263.337	91
263.57	105
263.802	69
264.035	84
264.267	88
264.499	78
264.732	81
264.964	76
265.197	81
265.429	93
265.661	91
265.894	92
266.126	85
266.358	93
266.591	82
266.823	83
267.055	97
267.287	81
267.52	87
267.752	96
267.984	83
268.216	76
268.448	74
268.681	86
268.913	83
269.145	95
269.377	86
269.609	78
269.841	95
270.073	84
270.306	87
270.538	83
270.77	91
271.002	80
271.234	80
271.466	66
271.698	83
271.93	77
272.162	85
272.394	74
272.626	83
272.858	90
273.09	86
273.322	83
273.553	97
273.785	81
274.017	92
274.249	88
274.481	75
274.713	84
274.945	92
275.176	93
275.408	91
275.64	93
275.872	102
276.104	87
276.335	85
276.567	65
276.799	91
277.031	81
277.262	79
277.494	85
277.726	84
277.957	91
278.189	83
278.421	71
278.652	79
278.884	102
279.115	79
279.347	78
279.579	90
279.81	90
280.042	75
280.273	84
280.505	98
280.736	87
280.968	91
281.199	87
281.431	75
281.662	99
281.894	90
282.125	82
282.356	80
282.588	104
282.819	84
283.051	100
283.282	74
283.513	83
283.745	90
283.976	83
284.207	85
284.439	76
284.67	81
284.901	87
285.132	79
285.364	88
285.595	87
285.826	89
286.057	77
286.288	85
286.52	94
286.751	93
286.982	103
287.213	79
287.444	83
287.675	92
287.906	83
288.138	85
288.369	84
288.6	93
288.831	67
289.062	82
289.293	82
289.524	82
289.755	79
289.986	73
290.217	75
290.448	85
290.679	84
290.91	89
291.141	76
291.371	92
291.602	93
291.833	76
292.064	95
292.295	88
292.526	79
292.757	86
292.987	78
293.218	69
293.449	95
293.68	91
293.91	79
294.141	68
294.372	85
294.603	77
294.833	89
295.064	74
295.295	71
295.525	91
295.756	82
295.987	86
296.217	74
296.448	84
296.679	78
296.909	85
297.14	87
297.37	93
297.601	76
297.831	87
298.062	106
298.292	99
298.523	89
298.753	88
298.984	84
299.214	89
299.445	83
299.675	85
299.905	80
300.136	85
300.366	81
300.597	76
300.827	81
301.057	87
301.288	84
301.518	93
301.748	84
301.979	85
302.209	94
302.439	77
302.669	86
302.9	85
303.13	90
303.36	79
303.59	83
303.82	86
304.051	91
304.281	84
304.511	89
304.741	79
304.971	89
305.201	84
305.431	97
305.661	95
305.891	84
306.121	77
306.352	81
306.582	82
306.812	81
307.042	88
307.272	101
307.502	90
307.731	100
307.961	81
308.191	83
308.421	82
308.651	93
308.881	90
309.111	85
309.341	92
309.571	94
309.8	92
310.03	84
310.26	79
310.49	93
310.72	81
310.949	88
311.179	90
311.409	80
311.639	89
311.868	89
312.098	95
312.328	83
312.557	75
312.787	84
313.017	88
313.246	95
313.476	78
313.706	86
313.935	79
314.165	89
314.394	97
314.624	79
314.853	90
315.083	82
315.312	77
315.542	93
315.771	81
316.001	96
316.23	87
316.46	84
316.689	89
316.919	83
317.148	91
317.377	89
317.607	87
317.836	94
318.065	95
318.295	80
318.524	91
318.753	70
318.983	84
319.212	95
319.441	87
319.67	85
319.9	84
320.129	81
320.358	79
320.587	81
320.816	85
321.046	81
321.275	81
321.504	85
321.733	89
321.962	90
322.191	76
322.42	83
322.649	95
322.878	80
323.108	89
323.337	86
323.566	78
323.795	99
324.024	81
324.253	62
324.482	79
324.71	78
324.939	75
325.168	77
325.397	90
325.626	71
325.855	80
326.084	93
326.313	81
326.542	91
326.77	104
326.999	86
327.228	83
327.457	75
327.686	78
327.914	81
328.143	91
328.372	76
328.6	84
328.829	82
329.058	94
329.287	94
329.515	76
329.744	89
329.972	83
330.201	76
330.43	94
330.658	79
330.887	87
331.115	84
331.344	85
331.572	85
331.801	89
332.03	91
332.258	74
332.486	95
332.715	86
332.943	80
333.172	99
333.4	78
333.629	93
333.857	77
334.085	72
334.314	86
334.542	80
334.771	79
334.999	83
335.227	85
335.455	88
335.684	94
335.912	87
336.14	94
336.369	109
336.597	83
336.825	76
337.053	95
337.281	75
337.51	78
337.738	78
337.966	95
338.194	97
338.422	89
338.65	77
338.878	75
339.106	89
339.334	87
339.562	68
339.79	87
340.018	79
340.246	79
340.474	80
340.702	95
340.93	93
341.158	89
341.386	83
341.614	77
341.842	86
342.07	93
342.298	82
342.526	76
342.754	71
342.981	82
343.209	85
343.437	82
343.665	73
343.893	70
344.12	81
344.348	82
344.576	77
344.804	81
345.031	73
345.259	91
345.487	81
345.714	97
345.942	98
346.17	94
346.397	90
346.625	86
346.853	64
347.08	86
347.308	78
347.535	71
347.763	82
347.99	66
348.218	91
348.445	77
348.673	91
348.9	79
349.128	93
349.355	86
349.583	85
349.81	79
350.037	96
350.265	96
350.492	73
350.72	78
350.947	97
351.174	91
351.402	93
351.629	82
351.856	94
352.083	87
352.311	90
352.538	95
352.765	88
352.992	79
353.22	83
353.447	76
353.674	99
353.901	85
354.128	85
354.355	75
354.583	75
354.81	82
355.037	80
355.264	89
355.491	93
355.718	92
355.945	70
356.172	87
356.399	82
356.626	95
356.853	78
357.08	85
357.307	90
357.534	89
357.761	102
357.988	83
358.215	84
358.441	79
358.668	88
358.895	87
359.122	99
359.349	90
359.576	75
359.802	89
360.029	91
360.256	83
360.483	98
360.709	82
360.936	80
361.163	72
361.39	83
361.616	83
361.843	84
362.07	84
362.296	81
362.523	72
362.749	83
362.976	85
363.203	96
363.429	92
363.656	97
363.882	89
364.109	95
364.335	79
364.562	80
364.788	75
365.015	85
365.241	71
365.468	93
365.694	96
365.92	87
366.147	77
366.373	85
366.599	81
366.826	79
367.052	86
367.278	89
367.505	84
367.731	115
367.957	101
368.184	90
368.41	103
368.636	91
368.862	86
369.089	79
369.315	83
369.541	87
369.767	80
369.993	86
370.219	78
370.445	80
370.672	98
370.898	85
371.124	100
371.35	73
371.576	81
371.802	74
372.028	90
372.254	86
372.48	100
372.706	94
372.932	90
373.158	93
373.384	90
373.61	109
373.835	103
374.061	88
374.287	89
374.513	95
374.739	99
374.965	87
375.191	96
375.416	90
375.642	100
375.868	88
376.094	95
376.319	99
376.545	87
376.771	97
376.997	87
377.222	86
377.448	93
377.674	92
377.899	77
378.125	78
378.35	102
378.576	91
378.802	92
379.027	91
379.253	104
379.478	90
379.704	93
379.929	78
380.155	100
380.38	107
380.606	94
380.831	102
381.057	108
381.282	98
381.507	112
381.733	91
381.958	86
382.184	85
382.409	93
382.634	106
382.86	97
383.085	90
383.31	92
383.535	97
383.761	97
383.986	102
384.211	74
384.436	87
384.662	102
384.887	105
385.112	106
385.337	106
385.562	94
385.787	91
386.013	105
386.238	94
386.463	97
386.688	113
386.913	82
387.138	94
387.363	96
387.588	107
387.813	110
388.038	104
388.263	102
388.488	100
388.713	94
388.938	106
389.163	102
389.387	107
389.612	110
389.837	105
390.062	109
390.287	96
390.512	100
390.736	98
390.961	98
391.186	118
391.411	113
391.636	113
391.86	91
392.085	103
392.31	102
392.534	97
392.759	110
392.984	88
393.208	104
393.433	118
393.658	122
393.882	102
394.107	106
394.331	114
394.556	105
394.78	116
395.005	117
395.229	116
395.454	106
395.678	96
395.903	104
396.127	109
396.352	110
396.576	107
396.801	116
397.025	113
397.249	102
397.474	102
397.698	118
397.922	120
398.147	108
398.371	109
398.595	121
398.82	115
399.044	102
399.268	112
399.492	119
399.717	103
399.941	123
400.165	110
400.389	106
400.613	110
400.837	108
401.062	117
401.286	105
401.51	121
401.734	108
401.958	110
402.182	124
402.406	106
402.63	119
402.854	114
403.078	112
403.302	118
403.526	118
403.75	118
403.974	120
404.198	105
404.422	121
404.645	121
404.869	130
405.093	120
405.317	129
405.541	117
405.765	122
405.988	119
406.212	119
406.436	123
406.66	119
406.883	120
407.107	114
407.331	118
407.555	115
407.778	99
408.002	131
408.226	111
408.449	129
408.673	126
408.896	120
409.12	137
409.344	114
409.567	120
409.791	117
410.014	131
410.238	123
410.461	106
410.685	115
410.908	104
411.132	131
411.355	133
411.578	123
411.802	112
412.025	121
412.249	112
412.472	124
412.695	105
412.919	124
413.142	117
413.365	124
413.589	117
413.812	125
414.035	132
414.258	124
414.482	131
414.705	121
414.928	141
415.151	111
415.374	107
415.597	135
415.821	136
416.044	132
416.267	123
416.49	127
416.713	125
416.936	122
417.159	133
417.382	126
417.605	109
417.828	133
418.051	116
418.274	129
418.497	122
418.72	123
418.943	128
419.166	141
419.389	142
419.611	130
419.834	133
420.057	137
420.28	145
420.503	127
420.726	138
420.948	131
421.171	109
421.394	134
421.617	141
421.839	135
422.062	131
422.285	132
422.507	134
422.73	125
422.953	125
423.175	126
423.398	124
423.621	145
423.843	129
424.066	122
424.288	137
424.511	135
424.733	142
424.956	138
425.178	132
425.401	137
425.623	129
425.846	131
426.068	137
426.291	129
426.513	126
426.735	131
426.958	123
427.18	141
427.402	119
427.625	131
427.847	129
428.069	136
428.292	118
428.514	135
428.736	125
428.958	127
429.181	110
429.403	119
429.625	129
429.847	143
430.069	126
430.292	128
430.514	141
430.736	125
430.958	139
431.18	135
431.402	141
431.624	120
431.846	107
432.068	99
432.29	103
432.512	111
432.734	119
432.956	138
433.178	129
433.4	133
433.622	131
433.844	130
434.066	122
434.287	120
434.509	101
434.731	106
434.953	121
435.175	127
435.397	122
435.618	121
435.84	113
436.062	116
436.284	139
436.505	131
436.727	129
436.949	139
437.17	115
437.392	131
437.614	124
437.835	127
438.057	123
438.278	121
438.5	120
438.721	135
438.943	149
439.165	138
439.386	131
439.608	130
439.829	152
440.05	150
440.272	156
440.493	145
440.715	141
440.936	122
441.158	134
441.379	143
441.6	146
441.822	141
442.043	137
442.264	123
442.486	135
442.707	137
442.928	137
443.149	146
443.371	142
443.592	137
443.813	143
444.034	137
444.255	143
444.476	120
444.698	149
444.919	135
445.14	279
445.361	215
445.582	146
445.803	153
446.024	155
446.245	134
446.466	151
446.687	159
446.908	168
447.129	154
447.35	144
447.571	143
447.792	141
448.013	135
448.234	139
448.455	121
448.675	137
448.896	141
449.117	141
449.338	138
449.559	151
449.779	135
450	144
450.221	139
450.442	133
450.662	128
450.883	133
451.104	142
451.324	135
451.545	139
451.766	135
451.986	139
452.207	139
452.428	125
452.648	129
452.869	119
453.089	106
453.31	119
453.53	111
453.751	110
453.971	108
454.192	97
454.412	106
454.633	127
454.853	117
455.073	119
455.294	109
455.514	129
455.734	139
455.955	115
456.175	121
456.395	105
456.616	120
456.836	122
457.056	118
457.276	111
457.497	114
457.717	102
457.937	120
458.157	118
458.377	103
458.598	92
458.818	98
459.038	97
459.258	82
459.478	102
459.698	96
459.918	104
460.138	113
460.358	127
460.578	131
460.798	120
461.018	127
461.238	117
461.458	117
461.678	104
461.898	99
462.118	122
462.338	107
462.558	113
462.777	121
462.997	105
463.217	115
463.437	123
463.657	109
463.876	116
464.096	122
464.316	112
464.536	118
464.755	109
464.975	121
465.195	133
465.414	116
465.634	102
465.854	113
466.073	106
466.293	129
466.512	116
466.732	137
466.951	133
467.171	137
467.391	125
467.61	127
467.829	144
468.049	131
468.268	127
468.488	121
468.707	153
468.927	147
469.146	143
469.365	134
469.585	148
469.804	132
470.023	146
470.243	135
470.462	123
470.681	145
470.901	135
471.12	134
471.339	124
471.558	141
471.777	130
471.997	139
472.216	127
472.435	121
472.654	98
472.873	99
473.092	96
473.311	116
473.53	112
473.749	137
473.968	117
474.187	122
474.406	124
474.625	133
474.844	133
475.063	122
475.282	124
475.501	124
475.72	140
475.939	134
476.158	122
476.377	137
476.596	125
476.814	120
477.033	133
477.252	123
477.471	109
477.69	140
477.908	152
478.127	144
478.346	124
478.564	124
478.783	138
479.002	132
479.22	121
479.439	137
479.658	126
479.876	118
480.095	118
480.313	112
480.532	118
480.751	118
480.969	97
481.188	94
481.406	90
481.624	81
481.843	110
482.061	107
482.28	129
482.498	122
482.717	109
482.935	106
483.153	152
483.372	156
483.59	149
483.808	142
484.027	133
484.245	129
484.463	153
484.681	159
484.9	151
485.118	137
485.336	131
485.554	116
485.772	106
485.99	124
486.209	105
486.427	115
486.645	128
486.863	130
487.081	157
487.299	125
487.517	132
487.735	177
487.953	199
488.171	181
488.389	162
488.607	168
488.825	138
489.043	126
489.261	126
489.479	142
489.696	138
489.914	142
490.132	146
490.35	161
490.568	162
490.786	185
491.003	180
491.221	183
491.439	179
491.657	189
491.874	210
492.092	227
492.31	228
492.527	226
492.745	207
492.963	202
493.18	183
493.398	175
493.615	164
493.833	170
494.05	188
494.268	179
494.485	179
494.703	173
494.92	173
495.138	166
495.355	172
495.573	172
495.79	162
496.008	170
496.225	163
496.442	162
496.66	167
496.877	181
497.094	168
497.312	175
497.529	172
497.746	155
497.963	149
498.181	147
498.398	124
498.615	134
498.832	122
499.049	125
499.267	114
499.484	136
499.701	129
499.918	140
500.135	148
500.352	150
500.569	138
500.786	157
501.003	138
501.22	124
501.437	125
501.654	128
501.871	135
502.088	128
502.305	127
502.522	131
502.739	131
502.956	148
503.172	127
503.389	123
503.606	133
503.823	129
504.04	126
504.256	141
504.473	126
504.69	129
504.907	128
505.123	126
505.34	133
505.557	127
505.773	122
505.99	133
506.207	125
506.423	117
506.64	121
506.856	111
507.073	129
507.289	129
507.506	126
507.722	116
507.939	120
508.155	124
508.372	113
508.588	103
508.805	107
509.021	122
509.238	106
509.454	109
509.67	101
509.887	109
510.103	100
510.319	106
510.536	103
510.752	77
510.968	90
511.184	86
511.401	84
511.617	87
511.833	92
512.049	95
512.265	103
512.481	96
512.698	95
512.914	96
513.13	94
513.346	91
513.562	101
513.778	101
513.994	96
514.21	97
514.426	91
514.642	99
514.858	93
515.074	93
515.29	102
515.506	92
515.721	95
515.937	101
516.153	88
516.369	93
516.585	96
516.801	87
517.016	81
517.232	95
517.448	92
517.664	95
517.879	84
518.095	99
518.311	86
518.527	100
518.742	92
518.958	81
519.173	115
519.389	101
519.605	109
519.82	98
520.036	115
520.251	113
520.467	100
520.682	99
520.898	99
521.113	89
521.329	97
521.544	98
521.76	90
521.975	93
522.19	85
522.406	102
522.621	97
522.836	101
523.052	95
523.267	105
523.482	110
523.698	111
523.913	116
524.128	97
524.343	116
524.559	124
524.774	109
524.989	123
525.204	111
525.419	127
525.634	121
525.849	110
526.064	119
526.28	115
526.495	87
526.71	100
526.925	93
527.14	90
527.355	79
527.57	92
527.785	85
527.999	101
528.214	98
528.429	110
528.644	110
528.859	130
529.074	159
529.289	161
529.503	166
529.718	117
529.933	121
530.148	101
530.363	113
530.577	93
530.792	90
531.007	87
531.221	79
531.436	90
531.651	89
531.865	90
532.08	92
532.295	89
532.509	97
532.724	86
532.938	102
533.153	103
533.367	122
533.582	121
533.796	123
534.011	114
534.225	106
534.44	93
534.654	102
534.868	99
535.083	92
535.297	109
535.511	115
535.726	110
535.94	109
536.154	96
536.369	94
536.583	91
536.797	86
537.011	94
537.225	94
537.44	91
537.654	105
537.868	105
538.082	93
538.296	84
538.51	93
538.724	117
538.938	125
539.153	114
539.367	148
539.581	120
539.795	103
540.009	90
540.222	108
540.436	107
540.65	119
540.864	134
541.078	135
541.292	134
541.506	158
541.72	164
541.934	164
542.147	198
542.361	189
542.575	166
542.789	143
543.002	153
543.216	137
543.43	116
543.644	136
543.857	139
544.071	168
544.285	163
544.498	155
544.712	157
544.925	161
545.139	159
545.352	147
545.566	160
545.779	155
545.993	160
546.206	148
546.42	164
546.633	158
546.847	163
547.06	160
547.274	181
547.487	173
547.7	170
547.914	168
548.127	156
548.34	170
548.554	153
548.767	177
548.98	158
549.193	163
549.407	161
549.62	152
549.833	158
550.046	163
550.259	166
550.473	157
550.686	152
550.899	162
551.112	152
551.325	143
551.538	143
551.751	137
551.964	123
552.177	120
552.39	144
552.603	146
552.816	138
553.029	150
553.242	153
553.455	146
553.667	163
553.88	157
554.093	154
554.306	152
554.519	137
554.732	160
554.944	150
555.157	158
555.37	150
555.583	150
555.795	146
556.008	125
556.221	144
556.433	132
556.646	147
556.859	137
557.071	145
557.284	141
557.496	133
557.709	142
557.921	153
558.134	145
558.346	160
558.559	146
558.771	153
558.984	133
559.196	121
559.409	121
559.621	133
559.833	127
560.046	140
560.258	137
560.47	140
560.683	129
560.895	124
561.107	125
561.32	131
561.532	134
561.744	124
561.956	132
562.168	125
562.381	128
562.593	133
562.805	120
563.017	127
563.229	117
563.441	128
563.653	124
563.865	125
564.077	134
564.289	129
564.501	128
564.713	124
564.925	108
565.137	122
565.349	111
565.561	111
565.773	122
565.985	111
566.197	115
566.408	119
566.62	123
566.832	118
567.044	130
567.255	122
567.467	99
567.679	111
567.891	117
568.102	95
568.314	94
568.526	79
568.737	83
568.949	97
569.161	93
569.372	88
569.584	88
569.795	92
570.007	83
570.218	91
570.43	95
570.641	93
570.853	93
571.064	93
571.276	103
571.487	106
571.698	98
571.91	115
572.121	103
572.333	102
572.544	95
572.755	88
572.966	99
573.178	101
573.389	90
573.6	89
573.811	88
574.023	86
574.234	88
574.445	93
574.656	104
574.867	99
575.078	101
575.289	107
575.501	107
575.712	110
575.923	98
576.134	99
576.345	87
576.556	109
576.767	102
576.978	111
577.188	97
577.399	95
577.61	100
577.821	106
578.032	97
578.243	95
578.454	95
578.665	91
578.875	86
579.086	73
579.297	94
579.508	84
579.718	92
579.929	89
580.14	86
580.35	91
580.561	95
580.772	92
580.982	99
581.193	95
581.403	99
581.614	84
581.825	85
582.035	99
582.246	87
582.456	84
582.667	89
582.877	94
583.087	78
583.298	93
583.508	91
583.719	80
583.929	102
584.139	85
584.35	84
584.56	102
584.77	74
584.981	88
585.191	90
585.401	90
585.611	88
585.821	98
586.032	89
586.242	75
586.452	82
586.662	98
586.872	87
587.082	74
587.292	79
587.502	89
587.713	80
587.923	95
588.133	83
588.343	86
588.553	77
588.762	83
588.972	74
589.182	92
589.392	96
589.602	79
589.812	81
590.022	82
590.232	82
590.441	90
590.651	94
590.861	80
591.071	89
591.281	82
591.49	97
591.7	101
591.91	100
592.119	82
592.329	83
592.539	91
592.748	91
592.958	87
593.167	88
593.377	81
593.587	95
593.796	85
594.006	91
594.215	86
594.424	86
594.634	92
594.843	105
595.053	93
595.262	81
595.472	96
595.681	93
595.89	78
596.1	91
596.309	105
596.518	100
596.727	91
596.937	86
597.146	87
597.355	87
597.564	81
597.774	104
597.983	81
598.192	85
598.401	78
598.61	85
598.819	92
599.028	91
599.237	99
599.446	106
599.655	97
599.864	115
600.073	103
600.282	93
600.491	104
600.7	90
600.909	90
601.118	87
601.327	99
601.536	106
601.745	114
601.953	110
602.162	108
602.371	114
602.58	101
602.789	109
602.997	114
603.206	115
603.415	116
603.623	99
603.832	107
604.041	114
604.249	115
604.458	96
604.666	99
604.875	98
605.084	95
605.292	107
605.501	109
605.709	118
605.918	122
606.126	116
606.334	113
606.543	100
606.751	125
606.96	118
607.168	105
607.376	123
607.585	113
607.793	109
608.001	108
608.21	111
608.418	118
608.626	120
608.834	107
609.043	117
609.251	123
609.459	131
609.667	104
609.875	121
610.083	121
610.291	100
610.499	114
610.707	119
610.916	106
611.124	112
611.332	125
611.54	122
611.748	110
611.955	123
612.163	114
612.371	111
612.579	114
612.787	121
612.995	110
613.203	117
613.411	118
613.618	101
613.826	119
614.034	110
614.242	123
614.449	122
614.657	125
614.865	101
615.072	118
615.28	106
615.488	104
615.695	117
615.903	103
616.111	99
616.318	125
616.526	110
616.733	102
616.941	106
617.148	127
617.356	94
617.563	109
617.771	109
617.978	117
618.185	109
618.393	103
618.6	114
618.807	113
619.015	119
619.222	116
619.429	114
619.637	89
619.844	105
620.051	93
620.258	126
620.466	110
620.673	117
620.88	107
621.087	107
621.294	107
621.501	103
621.708	103
621.915	105
622.122	104
622.329	117
622.536	117
622.743	100
622.95	104
623.157	107
623.364	107
623.571	112
623.778	100
623.985	102
624.192	111
624.399	105
624.606	107
624.812	113
625.019	124
625.226	105
625.433	89
625.639	106
625.846	93
626.053	104
626.259	97
626.466	118
626.673	93
626.879	97
627.086	118
627.293	98
627.499	113
627.706	121
627.912	90
628.119	99
628.325	105
628.532	110
628.738	115
628.945	108
629.151	92
629.357	109
629.564	101
629.77	93
629.976	120
630.183	103
630.389	99
630.595	114
630.802	117
631.008	123
631.214	106
631.42	103
631.627	100
631.833	106
632.039	117
632.245	99
632.451	99
632.657	102
632.863	109
633.069	107
633.275	97
633.481	104
633.688	94
633.893	97
634.099	96
634.305	85
634.511	100
634.717	102
634.923	98
635.129	91
635.335	92
635.541	103
635.747	104
635.952	121
636.158	110
636.364	96
636.57	95
636.775	105
636.981	99
637.187	104
637.392	92
637.598	90
637.804	109
638.009	111
638.215	97
638.421	92
638.626	96
638.832	86
639.037	107
639.243	101
639.448	110
639.654	98
639.859	102
640.065	103
640.27	116
640.475	95
640.681	94
640.886	99
641.091	95
641.297	116
641.502	101
641.707	113
641.913	114
642.118	103
642.323	90
642.528	119
642.733	112
642.939	109
643.144	108
643.349	95
643.554	100
643.759	91
643.964	78
644.169	101
644.374	104
644.579	102
644.784	94
644.989	97
645.194	109
645.399	104
645.604	85
645.809	96
646.014	103
646.219	91
646.423	103
646.628	98
646.833	91
647.038	101
647.243	113
647.447	87
647.652	102
647.857	102
648.062	119
648.266	99
648.471	105
648.676	92
648.88	106
649.085	106
649.289	86
649.494	93
649.698	97
649.903	98
650.107	111
650.312	88
650.516	97
650.721	101
650.925	110
651.13	109
651.334	94
651.539	94
651.743	103
651.947	84
652.152	87
652.356	98
652.56	92
652.764	85
652.969	100
653.173	94
653.377	90
653.581	97
653.785	80
653.99	93
654.194	84
654.398	78
654.602	104
654.806	97
655.01	85
655.214	100
655.418	93
655.622	92
655.826	90
656.03	93
656.234	79
656.438	95
656.642	73
656.846	81
657.049	82
657.253	102
657.457	86
657.661	90
657.865	85
658.068	82
658.272	90
658.476	82
658.68	89
658.883	75
659.087	82
659.291	83
659.494	73
659.698	87
659.901	89
660.105	95
660.309	84
660.512	75
660.716	83
660.919	91
661.123	80
661.326	73
661.53	73
661.733	89
661.936	73
662.14	88
662.343	84
662.546	100
662.75	81
662.953	82
663.156	78
663.36	82
663.563	73
663.766	81
663.969	86
664.173	84
664.376	83
664.579	86
664.782	77
664.985	73
665.188	68
665.391	87
665.594	76
665.797	83
666	91
666.203	98
666.406	93
666.609	94
666.812	94
667.015	99
667.218	93
667.421	80
667.624	98
667.827	76
668.03	85
668.232	84
668.435	93
668.638	79
668.841	82
669.043	76
669.246	82
669.449	83
669.651	81
669.854	79
670.057	79
670.259	90
670.462	83
670.665	70
670.867	79
671.07	81
671.272	81
671.475	73
671.677	80
671.88	70
672.082	90
672.284	94
672.487	77
672.689	70
672.892	80
