Data from Location2.07152019.Energy5.Lamp.07192019.3%Agarose_HRD10591_14-58-31-359.txt Node
Date: Fri Jul 19 14:58:31 EDT 2019
User: cochatt
Spectrometer: HR+D1059
Trigger mode: 1
Integration Time (sec): 1.000000E-1
Scans to average: 1
Electric dark correction enabled: true
Nonlinearity correction enabled: false
Boxcar width: 0
XAxis mode: Wavelengths
Number of Pixels in Spectrum: 2048
>>>>>Begin Spectral Data<<<<<
223.165	-3
223.4	-3
223.635	-3
223.869	-7
224.104	-18
224.338	-22
224.573	-11
224.808	-24
225.042	-1
225.277	-3
225.511	1
225.746	-1
225.98	-3
226.215	18
226.449	18
226.683	25
226.918	21
227.152	10
227.387	40
227.621	33
227.856	33
228.09	54
228.324	38
228.559	58
228.793	53
229.027	47
229.262	64
229.496	67
229.73	61
229.964	58
230.199	69
230.433	77
230.667	82
230.901	75
231.136	78
231.37	66
231.604	88
231.838	80
232.072	86
232.306	80
232.541	75
232.775	71
233.009	71
233.243	70
233.477	79
233.711	85
233.945	79
234.179	66
234.413	75
234.647	75
234.881	78
235.115	83
235.349	89
235.583	81
235.817	82
236.051	89
236.285	93
236.519	67
236.753	74
236.987	84
237.221	85
237.455	81
237.689	86
237.922	80
238.156	69
238.39	70
238.624	69
238.858	76
239.091	76
239.325	81
239.559	84
239.793	78
240.027	85
240.26	67
240.494	69
240.728	77
240.961	70
241.195	73
241.429	81
241.662	73
241.896	85
242.13	76
242.363	69
242.597	66
242.83	67
243.064	74
243.298	70
243.531	71
243.765	84
243.998	75
244.232	72
244.465	71
244.699	82
244.932	73
245.166	84
245.399	69
245.633	82
245.866	71
246.099	65
246.333	79
246.566	75
246.8	72
247.033	72
247.266	72
247.5	71
247.733	87
247.966	79
248.2	75
248.433	80
248.666	70
248.899	85
249.133	72
249.366	63
249.599	82
249.832	73
250.066	73
250.299	76
250.532	72
250.765	86
250.998	77
251.231	70
251.465	67
251.698	75
251.931	69
252.164	74
252.397	79
252.63	77
252.863	74
253.096	74
253.329	72
253.562	81
253.795	83
254.028	89
254.261	77
254.494	71
254.727	72
254.96	90
255.193	68
255.426	75
255.659	78
255.892	87
256.124	71
256.357	68
256.59	62
256.823	81
257.056	80
257.289	86
257.521	72
257.754	77
257.987	83
258.22	80
258.452	79
258.685	76
258.918	78
259.151	75
259.383	91
259.616	80
259.849	79
260.081	71
260.314	85
260.547	74
260.779	76
261.012	78
261.244	66
261.477	84
261.71	82
261.942	75
262.175	65
262.407	90
262.64	84
262.872	91
263.105	76
263.337	80
263.57	76
263.802	75
264.035	96
264.267	80
264.499	86
264.732	76
264.964	78
265.197	84
265.429	82
265.661	75
265.894	66
266.126	82
266.358	86
266.591	79
266.823	90
267.055	76
267.287	74
267.52	82
267.752	86
267.984	77
268.216	70
268.448	74
268.681	83
268.913	95
269.145	83
269.377	85
269.609	79
269.841	73
270.073	89
270.306	88
270.538	80
270.77	78
271.002	88
271.234	87
271.466	89
271.698	72
271.93	92
272.162	67
272.394	69
272.626	62
272.858	81
273.09	73
273.322	88
273.553	80
273.785	87
274.017	81
274.249	77
274.481	88
274.713	70
274.945	80
275.176	83
275.408	92
275.64	91
275.872	69
276.104	78
276.335	71
276.567	85
276.799	70
277.031	78
277.262	73
277.494	86
277.726	90
277.957	78
278.189	83
278.421	70
278.652	75
278.884	90
279.115	72
279.347	75
279.579	88
279.81	67
280.042	91
280.273	82
280.505	87
280.736	101
280.968	86
281.199	73
281.431	84
281.662	69
281.894	83
282.125	91
282.356	71
282.588	76
282.819	90
283.051	85
283.282	98
283.513	74
283.745	79
283.976	84
284.207	94
284.439	76
284.67	77
284.901	79
285.132	88
285.364	86
285.595	84
285.826	76
286.057	74
286.288	78
286.52	80
286.751	82
286.982	79
287.213	69
287.444	75
287.675	89
287.906	81
288.138	100
288.369	87
288.6	78
288.831	94
289.062	88
289.293	80
289.524	88
289.755	76
289.986	73
290.217	79
290.448	86
290.679	97
290.91	101
291.141	90
291.371	81
291.602	86
291.833	89
292.064	92
292.295	77
292.526	80
292.757	91
292.987	72
293.218	72
293.449	70
293.68	84
293.91	86
294.141	89
294.372	85
294.603	83
294.833	64
295.064	79
295.295	81
295.525	82
295.756	102
295.987	74
296.217	88
296.448	78
296.679	87
296.909	99
297.14	98
297.37	80
297.601	71
297.831	72
298.062	89
298.292	92
298.523	86
298.753	91
298.984	84
299.214	83
299.445	83
299.675	81
299.905	95
300.136	70
300.366	72
300.597	74
300.827	98
301.057	75
301.288	82
301.518	86
301.748	88
301.979	87
302.209	87
302.439	94
302.669	87
302.9	83
303.13	90
303.36	88
303.59	82
303.82	79
304.051	80
304.281	81
304.511	67
304.741	79
304.971	78
305.201	86
305.431	90
305.661	76
305.891	69
306.121	83
306.352	84
306.582	73
306.812	81
307.042	68
307.272	97
307.502	86
307.731	94
307.961	94
308.191	92
308.421	82
308.651	93
308.881	83
309.111	70
309.341	88
309.571	84
309.8	84
310.03	80
310.26	86
310.49	81
310.72	86
310.949	72
311.179	81
311.409	85
311.639	82
311.868	79
312.098	69
312.328	81
312.557	83
312.787	82
313.017	97
313.246	95
313.476	90
313.706	72
313.935	71
314.165	91
314.394	87
314.624	89
314.853	88
315.083	88
315.312	88
315.542	87
315.771	80
316.001	74
316.23	82
316.46	73
316.689	75
316.919	81
317.148	69
317.377	75
317.607	75
317.836	67
318.065	89
318.295	79
318.524	91
318.753	79
318.983	69
319.212	72
319.441	97
319.67	83
319.9	85
320.129	84
320.358	82
320.587	82
320.816	88
321.046	89
321.275	86
321.504	85
321.733	91
321.962	88
322.191	69
322.42	93
322.649	95
322.878	74
323.108	78
323.337	81
323.566	78
323.795	82
324.024	78
324.253	93
324.482	86
324.71	90
324.939	89
325.168	81
325.397	73
325.626	76
325.855	90
326.084	79
326.313	74
326.542	79
326.77	80
326.999	87
327.228	89
327.457	81
327.686	74
327.914	98
328.143	98
328.372	76
328.6	71
328.829	78
329.058	79
329.287	72
329.515	82
329.744	90
329.972	81
330.201	79
330.43	100
330.658	76
330.887	86
331.115	86
331.344	75
331.572	84
331.801	83
332.03	97
332.258	75
332.486	86
332.715	81
332.943	85
333.172	78
333.4	75
333.629	93
333.857	89
334.085	78
334.314	88
334.542	85
334.771	71
334.999	80
335.227	87
335.455	88
335.684	81
335.912	73
336.14	73
336.369	82
336.597	66
336.825	84
337.053	76
337.281	79
337.51	83
337.738	93
337.966	81
338.194	79
338.422	83
338.65	79
338.878	75
339.106	68
339.334	93
339.562	75
339.79	85
340.018	79
340.246	83
340.474	89
340.702	81
340.93	63
341.158	66
341.386	88
341.614	105
341.842	83
342.07	85
342.298	93
342.526	95
342.754	76
342.981	70
343.209	72
343.437	85
343.665	87
343.893	79
344.12	75
344.348	83
344.576	75
344.804	88
345.031	79
345.259	80
345.487	75
345.714	77
345.942	79
346.17	88
346.397	79
346.625	81
346.853	85
347.08	78
347.308	88
347.535	75
347.763	90
347.99	88
348.218	72
348.445	84
348.673	87
348.9	87
349.128	86
349.355	72
349.583	92
349.81	88
350.037	86
350.265	87
350.492	79
350.72	84
350.947	76
351.174	88
351.402	79
351.629	89
351.856	70
352.083	67
352.311	76
352.538	79
352.765	82
352.992	75
353.22	74
353.447	81
353.674	79
353.901	86
354.128	86
354.355	70
354.583	73
354.81	85
355.037	78
355.264	73
355.491	82
355.718	85
355.945	80
356.172	84
356.399	75
356.626	66
356.853	73
357.08	78
357.307	79
357.534	82
357.761	89
357.988	86
358.215	88
358.441	76
358.668	94
358.895	93
359.122	75
359.349	69
359.576	84
359.802	78
360.029	82
360.256	88
360.483	83
360.709	80
360.936	85
361.163	76
361.39	82
361.616	82
361.843	87
362.07	61
362.296	70
362.523	84
362.749	88
362.976	87
363.203	90
363.429	71
363.656	89
363.882	82
364.109	91
364.335	91
364.562	75
364.788	73
365.015	85
365.241	90
365.468	94
365.694	92
365.92	82
366.147	83
366.373	89
366.599	75
366.826	82
367.052	87
367.278	76
367.505	85
367.731	86
367.957	74
368.184	95
368.41	89
368.636	79
368.862	93
369.089	93
369.315	82
369.541	83
369.767	83
369.993	79
370.219	84
370.445	89
370.672	85
370.898	75
371.124	84
371.35	81
371.576	99
371.802	83
372.028	87
372.254	100
372.48	90
372.706	75
372.932	87
373.158	83
373.384	94
373.61	87
373.835	82
374.061	80
374.287	79
374.513	75
374.739	89
374.965	104
375.191	87
375.416	84
375.642	86
375.868	85
376.094	89
376.319	86
376.545	71
376.771	93
376.997	102
377.222	83
377.448	90
377.674	82
377.899	85
378.125	78
378.35	82
378.576	94
378.802	91
379.027	96
379.253	97
379.478	93
379.704	96
379.929	89
380.155	98
380.38	88
380.606	95
380.831	105
381.057	87
381.282	86
381.507	95
381.733	94
381.958	92
382.184	97
382.409	88
382.634	101
382.86	112
383.085	87
383.31	91
383.535	101
383.761	89
383.986	92
384.211	89
384.436	94
384.662	101
384.887	97
385.112	85
385.337	91
385.562	72
385.787	94
386.013	105
386.238	91
386.463	84
386.688	96
386.913	95
387.138	103
387.363	87
387.588	90
387.813	110
388.038	93
388.263	84
388.488	90
388.713	95
388.938	111
389.163	97
389.387	101
389.612	112
389.837	90
390.062	103
390.287	93
390.512	103
390.736	99
390.961	101
391.186	107
391.411	89
391.636	104
391.86	101
392.085	97
392.31	91
392.534	92
392.759	98
392.984	107
393.208	105
393.433	97
393.658	113
393.882	88
394.107	97
394.331	105
394.556	100
394.78	102
395.005	99
395.229	100
395.454	96
395.678	106
395.903	101
396.127	102
396.352	109
396.576	98
396.801	96
397.025	106
397.249	108
397.474	101
397.698	113
397.922	111
398.147	102
398.371	113
398.595	99
398.82	95
399.044	105
399.268	106
399.492	117
399.717	109
399.941	104
400.165	104
400.389	96
400.613	119
400.837	104
401.062	99
401.286	98
401.51	104
401.734	98
401.958	117
402.182	115
402.406	113
402.63	118
402.854	118
403.078	105
403.302	109
403.526	111
403.75	105
403.974	125
404.198	102
404.422	112
404.645	110
404.869	117
405.093	106
405.317	110
405.541	114
405.765	117
405.988	114
406.212	111
406.436	118
406.66	126
406.883	129
407.107	109
407.331	113
407.555	103
407.778	119
408.002	114
408.226	111
408.449	110
408.673	114
408.896	121
409.12	121
409.344	116
409.567	113
409.791	109
410.014	104
410.238	104
410.461	113
410.685	109
410.908	117
411.132	118
411.355	104
411.578	107
411.802	118
412.025	109
412.249	118
412.472	111
412.695	111
412.919	122
413.142	118
413.365	122
413.589	129
413.812	123
414.035	124
414.258	118
414.482	127
414.705	127
414.928	107
415.151	109
415.374	120
415.597	117
415.821	130
416.044	119
416.267	133
416.49	119
416.713	123
416.936	122
417.159	138
417.382	118
417.605	105
417.828	111
418.051	121
418.274	121
418.497	119
418.72	137
418.943	131
419.166	120
419.389	139
419.611	141
419.834	131
420.057	149
420.28	121
420.503	129
420.726	120
420.948	136
421.171	126
421.394	144
421.617	128
421.839	134
422.062	132
422.285	137
422.507	126
422.73	117
422.953	121
423.175	120
423.398	124
423.621	128
423.843	129
424.066	135
424.288	111
424.511	143
424.733	139
424.956	137
425.178	126
425.401	121
425.623	129
425.846	146
426.068	137
426.291	143
426.513	132
426.735	116
426.958	117
427.18	145
427.402	130
427.625	133
427.847	123
428.069	133
428.292	130
428.514	125
428.736	131
428.958	131
429.181	133
429.403	120
429.625	125
429.847	133
430.069	118
430.292	127
430.514	129
430.736	112
430.958	142
431.18	130
431.402	129
431.624	100
431.846	99
432.068	99
432.29	89
432.512	101
432.734	111
432.956	121
433.178	134
433.4	121
433.622	133
433.844	134
434.066	121
434.287	88
434.509	91
434.731	113
434.953	109
435.175	123
435.397	111
435.618	105
435.84	106
436.062	117
436.284	119
436.505	128
436.727	137
436.949	122
437.17	133
437.392	127
437.614	125
437.835	111
438.057	105
438.278	95
438.5	125
438.721	125
438.943	129
439.165	136
439.386	139
439.608	130
439.829	126
440.05	142
440.272	146
440.493	160
440.715	140
440.936	149
441.158	134
441.379	142
441.6	145
441.822	142
442.043	141
442.264	131
442.486	145
442.707	124
442.928	137
443.149	154
443.371	146
443.592	151
443.813	124
444.034	123
444.255	133
444.476	135
444.698	139
444.919	148
445.14	220
445.361	181
445.582	149
445.803	151
446.024	146
446.245	155
446.466	146
446.687	147
446.908	122
447.129	134
447.35	146
447.571	144
447.792	137
448.013	148
448.234	148
448.455	143
448.675	142
448.896	142
449.117	137
449.338	140
449.559	122
449.779	130
450	118
450.221	131
450.442	139
450.662	127
450.883	132
451.104	130
451.324	129
451.545	127
451.766	138
451.986	127
452.207	117
452.428	121
452.648	129
452.869	103
453.089	111
453.31	106
453.53	93
453.751	87
453.971	99
454.192	101
454.412	97
454.633	109
454.853	115
455.073	118
455.294	123
455.514	144
455.734	105
455.955	104
456.175	96
456.395	104
456.616	99
456.836	113
457.056	113
457.276	94
457.497	114
457.717	96
457.937	106
458.157	97
458.377	100
458.598	104
458.818	99
459.038	94
459.258	94
459.478	86
459.698	83
459.918	106
460.138	104
460.358	105
460.578	110
460.798	119
461.018	118
461.238	112
461.458	97
461.678	105
461.898	103
462.118	99
462.338	103
462.558	110
462.777	106
462.997	113
463.217	107
463.437	106
463.657	94
463.876	104
464.096	94
464.316	95
464.536	111
464.755	105
464.975	110
465.195	103
465.414	103
465.634	103
465.854	112
466.073	113
466.293	122
466.512	135
466.732	140
466.951	114
467.171	127
467.391	131
467.61	126
467.829	129
468.049	128
468.268	140
468.488	129
468.707	134
468.927	138
469.146	143
469.365	135
469.585	119
469.804	136
470.023	143
470.243	136
470.462	134
470.681	154
470.901	130
471.12	134
471.339	154
471.558	137
471.777	134
471.997	141
472.216	121
472.435	112
472.654	116
472.873	109
473.092	117
473.311	121
473.53	116
473.749	135
473.968	133
474.187	121
474.406	109
474.625	125
474.844	134
475.063	135
475.282	128
475.501	121
475.72	120
475.939	126
476.158	119
476.377	129
476.596	122
476.814	113
477.033	110
477.252	116
477.471	121
477.69	137
477.908	144
478.127	145
478.346	138
478.564	140
478.783	132
479.002	149
479.22	146
479.439	133
479.658	125
479.876	110
480.095	96
480.313	123
480.532	121
480.751	121
480.969	98
481.188	91
481.406	98
481.624	87
481.843	73
482.061	99
482.28	106
482.498	104
482.717	103
482.935	110
483.153	147
483.372	139
483.59	146
483.808	166
484.027	127
484.245	146
484.463	137
484.681	151
484.9	144
485.118	139
485.336	125
485.554	126
485.772	103
485.99	108
486.209	109
486.427	104
486.645	117
486.863	129
487.081	138
487.299	135
487.517	130
487.735	151
487.953	182
488.171	180
488.389	157
488.607	133
488.825	138
489.043	127
489.261	129
489.479	120
489.696	157
489.914	135
490.132	138
490.35	152
490.568	155
490.786	174
491.003	169
491.221	181
491.439	173
491.657	191
491.874	193
492.092	212
492.31	230
492.527	225
492.745	209
492.963	186
493.18	174
493.398	188
493.615	173
493.833	174
494.05	181
494.268	181
494.485	191
494.703	176
494.92	158
495.138	160
495.355	160
495.573	165
495.79	171
496.008	162
496.225	166
496.442	175
496.66	165
496.877	151
497.094	167
497.312	162
497.529	154
497.746	147
497.963	153
498.181	129
498.398	119
498.615	110
498.832	106
499.049	113
499.267	127
499.484	122
499.701	139
499.918	128
500.135	154
500.352	150
500.569	133
500.786	142
501.003	138
501.22	135
501.437	123
501.654	133
501.871	136
502.088	129
502.305	143
502.522	138
502.739	137
502.956	127
503.172	136
503.389	124
503.606	119
503.823	106
504.04	113
504.256	109
504.473	116
504.69	121
504.907	121
505.123	119
505.34	114
505.557	119
505.773	123
505.99	131
506.207	112
506.423	114
506.64	128
506.856	116
507.073	120
507.289	119
507.506	109
507.722	109
507.939	115
508.155	118
508.372	125
508.588	97
508.805	106
509.021	100
509.238	105
509.454	104
509.67	97
509.887	90
510.103	98
510.319	99
510.536	111
510.752	84
510.968	92
511.184	77
511.401	71
511.617	86
511.833	92
512.049	91
512.265	76
512.481	91
512.698	93
512.914	97
513.13	97
513.346	96
513.562	80
513.778	90
513.994	91
514.21	91
514.426	93
514.642	84
514.858	75
515.074	93
515.29	86
515.506	81
515.721	74
515.937	77
516.153	85
516.369	94
516.585	75
516.801	82
517.016	92
517.232	99
517.448	82
517.664	75
517.879	90
518.095	97
518.311	92
518.527	87
518.742	88
518.958	94
519.173	100
519.389	116
519.605	102
519.82	90
520.036	105
520.251	99
520.467	89
520.682	96
520.898	95
521.113	91
521.329	91
521.544	83
521.76	96
521.975	111
522.19	88
522.406	91
522.621	91
522.836	97
523.052	94
523.267	93
523.482	111
523.698	101
523.913	106
524.128	101
524.343	117
524.559	125
524.774	119
524.989	120
525.204	105
525.419	114
525.634	94
525.849	118
526.064	93
526.28	107
526.495	85
526.71	88
526.925	82
527.14	80
527.355	83
527.57	103
527.785	97
527.999	92
528.214	114
528.429	111
528.644	117
528.859	134
529.074	144
529.289	144
529.503	153
529.718	156
529.933	133
530.148	93
530.363	103
530.577	90
530.792	80
531.007	78
531.221	90
531.436	88
531.651	86
531.865	96
532.08	86
532.295	87
532.509	91
532.724	90
532.938	100
533.153	89
533.367	115
533.582	118
533.796	120
534.011	94
534.225	94
534.44	97
534.654	93
534.868	104
535.083	93
535.297	104
535.511	93
535.726	104
535.94	100
536.154	91
536.369	84
536.583	93
536.797	84
537.011	93
537.225	88
537.44	81
537.654	85
537.868	87
538.082	89
538.296	86
538.51	97
538.724	111
538.938	119
539.153	130
539.367	123
539.581	124
539.795	95
540.009	101
540.222	96
540.436	97
540.65	108
540.864	129
541.078	129
541.292	142
541.506	161
541.72	157
541.934	175
542.147	196
542.361	179
542.575	155
542.789	143
543.002	139
543.216	119
543.43	128
543.644	118
543.857	140
544.071	144
544.285	163
544.498	153
544.712	158
544.925	164
545.139	147
545.352	166
545.566	163
545.779	160
545.993	156
546.206	160
546.42	180
546.633	150
546.847	147
547.06	165
547.274	163
547.487	183
547.7	179
547.914	161
548.127	169
548.34	152
548.554	150
548.767	164
548.98	143
549.193	145
549.407	138
549.62	147
549.833	137
550.046	148
550.259	153
550.473	144
550.686	152
550.899	140
551.112	135
551.325	132
551.538	141
551.751	125
551.964	116
552.177	138
552.39	142
552.603	153
552.816	152
553.029	144
553.242	155
553.455	158
553.667	153
553.88	162
554.093	147
554.306	134
554.519	154
554.732	145
554.944	138
555.157	134
555.37	127
555.583	137
555.795	145
556.008	135
556.221	115
556.433	129
556.646	123
556.859	149
557.071	139
557.284	139
557.496	147
557.709	122
557.921	139
558.134	144
558.346	125
558.559	129
558.771	126
558.984	110
559.196	135
559.409	125
559.621	139
559.833	127
560.046	133
560.258	130
560.47	129
560.683	138
560.895	122
561.107	142
561.32	142
561.532	128
561.744	123
561.956	137
562.168	121
562.381	134
562.593	120
562.805	127
563.017	118
563.229	118
563.441	129
563.653	121
563.865	111
564.077	123
564.289	120
564.501	130
564.713	121
564.925	105
565.137	108
565.349	119
565.561	124
565.773	125
565.985	111
566.197	111
566.408	109
566.62	122
566.832	120
567.044	122
567.255	112
567.467	128
567.679	104
567.891	119
568.102	114
568.314	88
568.526	95
568.737	79
568.949	85
569.161	85
569.372	68
569.584	91
569.795	79
570.007	87
570.218	82
570.43	95
570.641	88
570.853	95
571.064	98
571.276	87
571.487	105
571.698	109
571.91	115
572.121	91
572.333	105
572.544	93
572.755	80
572.966	83
573.178	83
573.389	81
573.6	83
573.811	94
574.023	69
574.234	86
574.445	87
574.656	92
574.867	74
575.078	99
575.289	106
575.501	93
575.712	91
575.923	90
576.134	93
576.345	89
576.556	105
576.767	103
576.978	97
577.188	109
577.399	90
577.61	96
577.821	99
578.032	85
578.243	93
578.454	96
578.665	90
578.875	94
579.086	89
579.297	80
579.508	74
579.718	81
579.929	72
580.14	75
580.35	80
580.561	81
580.772	97
580.982	85
581.193	87
581.403	83
581.614	82
581.825	100
582.035	93
582.246	88
582.456	96
582.667	82
582.877	100
583.087	102
583.298	105
583.508	83
583.719	70
583.929	84
584.139	77
584.35	75
584.56	83
584.77	89
584.981	73
585.191	94
585.401	88
585.611	77
585.821	84
586.032	91
586.242	71
586.452	79
586.662	87
586.872	79
587.082	100
587.292	82
587.502	66
587.713	88
587.923	77
588.133	79
588.343	71
588.553	72
588.762	86
588.972	82
589.182	74
589.392	83
589.602	93
589.812	76
590.022	73
590.232	91
590.441	82
590.651	89
590.861	83
591.071	77
591.281	95
591.49	79
591.7	85
591.91	75
592.119	79
592.329	93
592.539	94
592.748	84
592.958	84
593.167	74
593.377	92
593.587	102
593.796	75
594.006	98
594.215	79
594.424	98
594.634	86
594.843	83
595.053	97
595.262	82
595.472	85
595.681	81
595.89	97
596.1	80
596.309	99
596.518	95
596.727	83
596.937	91
597.146	98
597.355	92
597.564	84
597.774	107
597.983	95
598.192	80
598.401	81
598.61	74
598.819	81
599.028	83
599.237	96
599.446	99
599.655	99
599.864	90
600.073	86
600.282	100
600.491	86
600.7	92
600.909	96
601.118	89
601.327	89
601.536	103
601.745	98
601.953	113
602.162	105
602.371	98
602.58	117
602.789	115
602.997	101
603.206	108
603.415	109
603.623	95
603.832	96
604.041	100
604.249	101
604.458	98
604.666	101
604.875	95
605.084	90
605.292	113
605.501	101
605.709	118
605.918	111
606.126	108
606.334	104
606.543	116
606.751	103
606.96	108
607.168	119
607.376	113
607.585	112
607.793	116
608.001	104
608.21	119
608.418	127
608.626	103
608.834	121
609.043	117
609.251	129
609.459	104
609.667	113
609.875	115
610.083	119
610.291	126
610.499	114
610.707	117
610.916	125
611.124	126
611.332	111
611.54	109
611.748	118
611.955	107
612.163	105
612.371	98
612.579	115
612.787	106
612.995	113
613.203	117
613.411	120
613.618	108
613.826	106
614.034	101
614.242	109
614.449	94
614.657	115
614.865	109
615.072	109
615.28	119
615.488	110
615.695	111
615.903	99
616.111	120
616.318	107
616.526	114
616.733	104
616.941	118
617.148	102
617.356	112
617.563	91
617.771	95
617.978	108
618.185	92
618.393	115
618.6	99
618.807	105
619.015	107
619.222	98
619.429	97
619.637	121
619.844	122
620.051	95
620.258	111
620.466	114
620.673	107
620.88	99
621.087	99
621.294	97
621.501	95
621.708	88
621.915	105
622.122	107
622.329	100
622.536	110
622.743	112
622.95	101
623.157	105
623.364	97
623.571	118
623.778	111
623.985	99
624.192	109
624.399	103
624.606	107
624.812	106
625.019	106
625.226	106
625.433	106
625.639	86
625.846	96
626.053	96
626.259	91
626.466	82
626.673	100
626.879	90
627.086	97
627.293	99
627.499	106
627.706	102
627.912	100
628.119	98
628.325	105
628.532	96
628.738	93
628.945	97
629.151	113
629.357	93
629.564	111
629.77	104
629.976	77
630.183	95
630.389	95
630.595	89
630.802	97
631.008	96
631.214	83
631.42	104
631.627	109
631.833	95
632.039	95
632.245	99
632.451	96
632.657	83
632.863	97
633.069	96
633.275	105
633.481	96
633.688	88
633.893	91
634.099	111
634.305	92
634.511	109
634.717	94
634.923	101
635.129	88
635.335	89
635.541	88
635.747	92
635.952	88
636.158	86
636.364	114
636.57	93
636.775	102
636.981	110
637.187	90
637.392	97
637.598	101
637.804	112
638.009	99
638.215	102
638.421	101
638.626	100
638.832	109
639.037	80
639.243	95
639.448	98
639.654	96
639.859	91
640.065	99
640.27	98
640.475	120
640.681	109
640.886	97
641.091	96
641.297	104
641.502	115
641.707	97
641.913	92
642.118	93
642.323	95
642.528	107
642.733	101
642.939	102
643.144	85
643.349	89
643.554	103
643.759	88
643.964	89
644.169	104
644.374	98
644.579	117
644.784	99
644.989	80
645.194	96
645.399	82
645.604	96
645.809	89
646.014	102
646.219	106
646.423	94
646.628	98
646.833	99
647.038	99
647.243	87
647.447	104
647.652	96
647.857	92
648.062	94
648.266	96
648.471	94
648.676	87
648.88	112
649.085	95
649.289	91
649.494	91
649.698	94
649.903	94
650.107	98
650.312	98
650.516	99
650.721	92
650.925	99
651.13	100
651.334	96
651.539	92
651.743	106
651.947	114
652.152	89
652.356	96
652.56	80
652.764	103
652.969	92
653.173	67
653.377	92
653.581	89
653.785	90
653.99	96
654.194	89
654.398	92
654.602	88
654.806	88
655.01	92
655.214	69
655.418	63
655.622	78
655.826	87
656.03	89
656.234	82
656.438	101
656.642	89
656.846	78
657.049	94
657.253	78
657.457	99
657.661	83
657.865	94
658.068	83
658.272	94
658.476	79
658.68	96
658.883	64
659.087	66
659.291	83
659.494	75
659.698	80
659.901	79
660.105	85
660.309	87
660.512	82
660.716	67
660.919	90
661.123	93
661.326	89
661.53	79
661.733	79
661.936	92
662.14	76
662.343	86
662.546	70
662.75	92
662.953	73
663.156	84
663.36	80
663.563	90
663.766	74
663.969	76
664.173	70
664.376	81
664.579	86
664.782	89
664.985	65
665.188	80
665.391	83
665.594	89
665.797	79
666	80
666.203	65
666.406	95
666.609	78
666.812	84
667.015	77
667.218	78
667.421	82
667.624	84
667.827	89
668.03	78
668.232	78
668.435	89
668.638	81
668.841	91
669.043	75
669.246	78
669.449	74
669.651	80
669.854	74
670.057	72
670.259	74
670.462	88
670.665	65
670.867	77
671.07	83
671.272	90
671.475	83
671.677	70
671.88	86
672.082	86
672.284	71
672.487	71
672.689	82
672.892	69
