Data from Location6.07152019.Energy5.Lamp.07192019.3%Agarose_HRD10591_16-12-29-395.txt Node
Date: Fri Jul 19 16:12:29 EDT 2019
User: cochatt
Spectrometer: HR+D1059
Trigger mode: 1
Integration Time (sec): 1.000000E-1
Scans to average: 1
Electric dark correction enabled: true
Nonlinearity correction enabled: false
Boxcar width: 0
XAxis mode: Wavelengths
Number of Pixels in Spectrum: 2048
>>>>>Begin Spectral Data<<<<<
223.165	-6
223.4	-6
223.635	-6
223.869	-18
224.104	-6
224.338	-18
224.573	-19
224.808	-18
225.042	3
225.277	13
225.511	7
225.746	-12
225.98	-5
226.215	5
226.449	8
226.683	12
226.918	23
227.152	31
227.387	37
227.621	28
227.856	46
228.09	56
228.324	62
228.559	64
228.793	60
229.027	60
229.262	70
229.496	82
229.73	84
229.964	71
230.199	64
230.433	81
230.667	63
230.901	78
231.136	83
231.37	81
231.604	77
231.838	96
232.072	74
232.306	67
232.541	87
232.775	85
233.009	85
233.243	76
233.477	82
233.711	89
233.945	85
234.179	97
234.413	83
234.647	86
234.881	80
235.115	79
235.349	64
235.583	68
235.817	87
236.051	88
236.285	82
236.519	93
236.753	77
236.987	84
237.221	79
237.455	71
237.689	80
237.922	78
238.156	82
238.39	85
238.624	74
238.858	88
239.091	77
239.325	88
239.559	83
239.793	62
240.027	91
240.26	74
240.494	77
240.728	82
240.961	81
241.195	90
241.429	71
241.662	76
241.896	79
242.13	85
242.363	82
242.597	70
242.83	76
243.064	93
243.298	78
243.531	89
243.765	96
243.998	89
244.232	73
244.465	92
244.699	74
244.932	86
245.166	76
245.399	76
245.633	79
245.866	103
246.099	77
246.333	87
246.566	84
246.8	79
247.033	83
247.266	79
247.5	70
247.733	80
247.966	79
248.2	76
248.433	94
248.666	75
248.899	75
249.133	74
249.366	85
249.599	74
249.832	89
250.066	90
250.299	90
250.532	75
250.765	93
250.998	83
251.231	87
251.465	87
251.698	90
251.931	73
252.164	68
252.397	84
252.63	72
252.863	96
253.096	77
253.329	82
253.562	83
253.795	91
254.028	81
254.261	76
254.494	85
254.727	80
254.96	76
255.193	90
255.426	75
255.659	70
255.892	68
256.124	82
256.357	84
256.59	92
256.823	85
257.056	67
257.289	85
257.521	90
257.754	101
257.987	75
258.22	80
258.452	70
258.685	80
258.918	83
259.151	88
259.383	83
259.616	81
259.849	86
260.081	77
260.314	78
260.547	70
260.779	83
261.012	82
261.244	84
261.477	94
261.71	76
261.942	79
262.175	72
262.407	79
262.64	92
262.872	79
263.105	88
263.337	86
263.57	97
263.802	88
264.035	78
264.267	86
264.499	84
264.732	104
264.964	73
265.197	92
265.429	83
265.661	85
265.894	79
266.126	100
266.358	82
266.591	88
266.823	82
267.055	80
267.287	78
267.52	72
267.752	92
267.984	85
268.216	98
268.448	87
268.681	85
268.913	90
269.145	92
269.377	83
269.609	85
269.841	79
270.073	68
270.306	83
270.538	86
270.77	81
271.002	83
271.234	81
271.466	85
271.698	83
271.93	85
272.162	86
272.394	94
272.626	76
272.858	94
273.09	91
273.322	108
273.553	86
273.785	78
274.017	78
274.249	86
274.481	94
274.713	74
274.945	94
275.176	92
275.408	74
275.64	79
275.872	86
276.104	83
276.335	90
276.567	90
276.799	76
277.031	84
277.262	91
277.494	102
277.726	96
277.957	92
278.189	78
278.421	79
278.652	79
278.884	82
279.115	87
279.347	98
279.579	84
279.81	95
280.042	85
280.273	84
280.505	89
280.736	87
280.968	79
281.199	94
281.431	80
281.662	78
281.894	89
282.125	92
282.356	91
282.588	81
282.819	92
283.051	91
283.282	76
283.513	80
283.745	85
283.976	83
284.207	73
284.439	93
284.67	89
284.901	94
285.132	93
285.364	89
285.595	84
285.826	86
286.057	76
286.288	90
286.52	94
286.751	95
286.982	96
287.213	90
287.444	80
287.675	76
287.906	91
288.138	106
288.369	91
288.6	88
288.831	73
289.062	92
289.293	90
289.524	86
289.755	84
289.986	94
290.217	78
290.448	86
290.679	99
290.91	95
291.141	85
291.371	91
291.602	81
291.833	74
292.064	88
292.295	86
292.526	80
292.757	98
292.987	87
293.218	85
293.449	79
293.68	79
293.91	80
294.141	86
294.372	78
294.603	81
294.833	86
295.064	81
295.295	96
295.525	85
295.756	71
295.987	81
296.217	91
296.448	86
296.679	89
296.909	86
297.14	88
297.37	99
297.601	83
297.831	84
298.062	85
298.292	85
298.523	91
298.753	98
298.984	85
299.214	95
299.445	76
299.675	100
299.905	94
300.136	73
300.366	100
300.597	83
300.827	88
301.057	100
301.288	93
301.518	74
301.748	79
301.979	79
302.209	87
302.439	81
302.669	96
302.9	95
303.13	94
303.36	80
303.59	94
303.82	88
304.051	86
304.281	100
304.511	86
304.741	94
304.971	77
305.201	90
305.431	101
305.661	94
305.891	90
306.121	90
306.352	100
306.582	82
306.812	85
307.042	85
307.272	80
307.502	87
307.731	97
307.961	82
308.191	87
308.421	88
308.651	76
308.881	93
309.111	92
309.341	86
309.571	87
309.8	77
310.03	74
310.26	86
310.49	84
310.72	89
310.949	84
311.179	79
311.409	90
311.639	75
311.868	95
312.098	90
312.328	79
312.557	79
312.787	81
313.017	88
313.246	85
313.476	82
313.706	99
313.935	91
314.165	88
314.394	87
314.624	84
314.853	101
315.083	107
315.312	92
315.542	78
315.771	81
316.001	96
316.23	88
316.46	95
316.689	93
316.919	79
317.148	86
317.377	82
317.607	94
317.836	64
318.065	99
318.295	91
318.524	91
318.753	87
318.983	88
319.212	99
319.441	73
319.67	92
319.9	85
320.129	103
320.358	93
320.587	89
320.816	92
321.046	111
321.275	86
321.504	87
321.733	74
321.962	87
322.191	73
322.42	80
322.649	98
322.878	86
323.108	86
323.337	85
323.566	93
323.795	90
324.024	88
324.253	94
324.482	79
324.71	97
324.939	97
325.168	84
325.397	97
325.626	87
325.855	95
326.084	81
326.313	92
326.542	81
326.77	81
326.999	88
327.228	93
327.457	87
327.686	86
327.914	85
328.143	96
328.372	94
328.6	90
328.829	90
329.058	77
329.287	87
329.515	100
329.744	105
329.972	102
330.201	88
330.43	86
330.658	93
330.887	103
331.115	88
331.344	93
331.572	94
331.801	98
332.03	87
332.258	89
332.486	91
332.715	87
332.943	96
333.172	92
333.4	78
333.629	80
333.857	89
334.085	74
334.314	90
334.542	85
334.771	83
334.999	95
335.227	79
335.455	76
335.684	91
335.912	90
336.14	73
336.369	92
336.597	88
336.825	79
337.053	81
337.281	81
337.51	94
337.738	83
337.966	93
338.194	89
338.422	80
338.65	87
338.878	87
339.106	98
339.334	95
339.562	80
339.79	79
340.018	81
340.246	81
340.474	104
340.702	90
340.93	88
341.158	95
341.386	101
341.614	91
341.842	95
342.07	91
342.298	97
342.526	87
342.754	86
342.981	85
343.209	89
343.437	89
343.665	82
343.893	89
344.12	89
344.348	90
344.576	89
344.804	75
345.031	83
345.259	87
345.487	88
345.714	92
345.942	86
346.17	89
346.397	94
346.625	78
346.853	87
347.08	95
347.308	89
347.535	89
347.763	95
347.99	77
348.218	81
348.445	86
348.673	87
348.9	95
349.128	98
349.355	77
349.583	96
349.81	91
350.037	70
350.265	93
350.492	97
350.72	104
350.947	92
351.174	73
351.402	86
351.629	87
351.856	79
352.083	84
352.311	94
352.538	87
352.765	87
352.992	93
353.22	76
353.447	91
353.674	80
353.901	85
354.128	93
354.355	88
354.583	90
354.81	76
355.037	89
355.264	91
355.491	82
355.718	90
355.945	91
356.172	92
356.399	90
356.626	86
356.853	84
357.08	88
357.307	91
357.534	93
357.761	92
357.988	82
358.215	95
358.441	78
358.668	82
358.895	89
359.122	88
359.349	109
359.576	90
359.802	91
360.029	84
360.256	99
360.483	95
360.709	82
360.936	109
361.163	85
361.39	88
361.616	99
361.843	85
362.07	107
362.296	82
362.523	87
362.749	83
362.976	61
363.203	83
363.429	65
363.656	86
363.882	98
364.109	89
364.335	87
364.562	90
364.788	111
365.015	83
365.241	102
365.468	82
365.694	87
365.92	79
366.147	98
366.373	88
366.599	88
366.826	91
367.052	108
367.278	95
367.505	80
367.731	102
367.957	85
368.184	88
368.41	103
368.636	95
368.862	94
369.089	94
369.315	82
369.541	102
369.767	85
369.993	95
370.219	87
370.445	100
370.672	99
370.898	95
371.124	100
371.35	96
371.576	97
371.802	100
372.028	105
372.254	98
372.48	81
372.706	98
372.932	88
373.158	97
373.384	93
373.61	89
373.835	99
374.061	78
374.287	101
374.513	105
374.739	104
374.965	97
375.191	98
375.416	86
375.642	100
375.868	99
376.094	115
376.319	106
376.545	94
376.771	85
376.997	106
377.222	106
377.448	89
377.674	104
377.899	94
378.125	78
378.35	96
378.576	89
378.802	93
379.027	109
379.253	96
379.478	90
379.704	92
379.929	104
380.155	109
380.38	103
380.606	88
380.831	103
381.057	107
381.282	107
381.507	109
381.733	110
381.958	90
382.184	102
382.409	109
382.634	123
382.86	102
383.085	93
383.31	98
383.535	106
383.761	104
383.986	109
384.211	104
384.436	102
384.662	99
384.887	106
385.112	94
385.337	104
385.562	98
385.787	98
386.013	115
386.238	105
386.463	118
386.688	104
386.913	94
387.138	90
387.363	111
387.588	101
387.813	120
388.038	110
388.263	108
388.488	96
388.713	117
388.938	102
389.163	98
389.387	95
389.612	87
389.837	110
390.062	98
390.287	108
390.512	112
390.736	97
390.961	92
391.186	106
391.411	102
391.636	108
391.86	126
392.085	100
392.31	118
392.534	102
392.759	126
392.984	115
393.208	95
393.433	114
393.658	110
393.882	120
394.107	113
394.331	116
394.556	128
394.78	105
395.005	114
395.229	115
395.454	128
395.678	124
395.903	118
396.127	111
396.352	119
396.576	104
396.801	116
397.025	103
397.249	112
397.474	120
397.698	120
397.922	114
398.147	118
398.371	125
398.595	127
398.82	109
399.044	112
399.268	119
399.492	102
399.717	121
399.941	99
400.165	111
400.389	112
400.613	107
400.837	103
401.062	110
401.286	121
401.51	116
401.734	127
401.958	130
402.182	119
402.406	122
402.63	128
402.854	117
403.078	118
403.302	129
403.526	127
403.75	124
403.974	114
404.198	130
404.422	133
404.645	130
404.869	110
405.093	116
405.317	130
405.541	121
405.765	132
405.988	116
406.212	125
406.436	115
406.66	132
406.883	118
407.107	135
407.331	140
407.555	126
407.778	126
408.002	125
408.226	127
408.449	131
408.673	124
408.896	127
409.12	137
409.344	130
409.567	120
409.791	133
410.014	142
410.238	125
410.461	140
410.685	137
410.908	151
411.132	126
411.355	128
411.578	125
411.802	132
412.025	125
412.249	131
412.472	133
412.695	134
412.919	133
413.142	132
413.365	121
413.589	137
413.812	131
414.035	128
414.258	142
414.482	142
414.705	128
414.928	126
415.151	128
415.374	117
415.597	127
415.821	139
416.044	137
416.267	125
416.49	122
416.713	114
416.936	140
417.159	126
417.382	126
417.605	126
417.828	130
418.051	142
418.274	145
418.497	148
418.72	147
418.943	149
419.166	150
419.389	158
419.611	146
419.834	143
420.057	138
420.28	138
420.503	136
420.726	126
420.948	133
421.171	151
421.394	145
421.617	124
421.839	139
422.062	162
422.285	138
422.507	159
422.73	144
422.953	134
423.175	136
423.398	147
423.621	140
423.843	149
424.066	140
424.288	152
424.511	158
424.733	158
424.956	159
425.178	156
425.401	156
425.623	126
425.846	134
426.068	160
426.291	124
426.513	134
426.735	137
426.958	138
427.18	147
427.402	154
427.625	127
427.847	123
428.069	148
428.292	139
428.514	153
428.736	122
428.958	141
429.181	134
429.403	126
429.625	134
429.847	131
430.069	139
430.292	145
430.514	140
430.736	150
430.958	134
431.18	142
431.402	126
431.624	127
431.846	118
432.068	103
432.29	109
432.512	124
432.734	142
432.956	141
433.178	150
433.4	139
433.622	142
433.844	130
434.066	115
434.287	114
434.509	110
434.731	110
434.953	126
435.175	145
435.397	121
435.618	134
435.84	106
436.062	122
436.284	138
436.505	125
436.727	148
436.949	127
437.17	148
437.392	134
437.614	134
437.835	112
438.057	113
438.278	111
438.5	142
438.721	132
438.943	142
439.165	162
439.386	136
439.608	140
439.829	152
440.05	166
440.272	148
440.493	173
440.715	156
440.936	149
441.158	153
441.379	168
441.6	153
441.822	145
442.043	151
442.264	158
442.486	148
442.707	155
442.928	140
443.149	149
443.371	148
443.592	149
443.813	142
444.034	140
444.255	153
444.476	150
444.698	142
444.919	146
445.14	270
445.361	223
445.582	162
445.803	152
446.024	174
446.245	164
446.466	168
446.687	155
446.908	182
447.129	177
447.35	168
447.571	173
447.792	154
448.013	160
448.234	145
448.455	148
448.675	154
448.896	140
449.117	143
449.338	144
449.559	154
449.779	144
450	150
450.221	155
450.442	156
450.662	153
450.883	154
451.104	145
451.324	148
451.545	127
451.766	130
451.986	144
452.207	130
452.428	139
452.648	132
452.869	131
453.089	106
453.31	138
453.53	117
453.751	119
453.971	123
454.192	108
454.412	120
454.633	118
454.853	132
455.073	126
455.294	120
455.514	148
455.734	126
455.955	122
456.175	108
456.395	132
456.616	121
456.836	121
457.056	116
457.276	111
457.497	119
457.717	103
457.937	119
458.157	120
458.377	109
458.598	102
458.818	110
459.038	99
459.258	101
459.478	94
459.698	100
459.918	90
460.138	118
460.358	106
460.578	126
460.798	124
461.018	136
461.238	124
461.458	126
461.678	135
461.898	108
462.118	130
462.338	120
462.558	128
462.777	121
462.997	124
463.217	124
463.437	114
463.657	118
463.876	107
464.096	109
464.316	102
464.536	123
464.755	132
464.975	107
465.195	121
465.414	143
465.634	141
465.854	136
466.073	127
466.293	134
466.512	146
466.732	137
466.951	146
467.171	149
467.391	145
467.61	163
467.829	124
468.049	139
468.268	145
468.488	147
468.707	136
468.927	148
469.146	156
469.365	142
469.585	140
469.804	144
470.023	158
470.243	169
470.462	152
470.681	144
470.901	162
471.12	155
471.339	151
471.558	149
471.777	153
471.997	151
472.216	143
472.435	136
472.654	114
472.873	124
473.092	119
473.311	127
473.53	138
473.749	158
473.968	148
474.187	135
474.406	126
474.625	148
474.844	136
475.063	128
475.282	144
475.501	123
475.72	137
475.939	146
476.158	141
476.377	140
476.596	126
476.814	111
477.033	117
477.252	139
477.471	129
477.69	152
477.908	159
478.127	146
478.346	126
478.564	136
478.783	139
479.002	147
479.22	147
479.439	134
479.658	124
479.876	122
480.095	105
480.313	138
480.532	132
480.751	122
480.969	101
481.188	90
481.406	86
481.624	102
481.843	92
482.061	102
482.28	124
482.498	130
482.717	118
482.935	135
483.153	161
483.372	166
483.59	166
483.808	156
484.027	133
484.245	147
484.463	167
484.681	175
484.9	150
485.118	148
485.336	143
485.554	140
485.772	115
485.99	124
486.209	106
486.427	121
486.645	135
486.863	157
487.081	150
487.299	137
487.517	153
487.735	168
487.953	212
488.171	199
488.389	179
488.607	175
488.825	162
489.043	153
489.261	158
489.479	159
489.696	167
489.914	144
490.132	144
490.35	154
490.568	169
490.786	180
491.003	192
491.221	195
491.439	202
491.657	212
491.874	220
492.092	230
492.31	256
492.527	239
492.745	223
492.963	216
493.18	206
493.398	192
493.615	186
493.833	196
494.05	205
494.268	173
494.485	155
494.703	175
494.92	193
495.138	178
495.355	196
495.573	173
495.79	170
496.008	178
496.225	172
496.442	184
496.66	166
496.877	175
497.094	178
497.312	179
497.529	192
497.746	157
497.963	162
498.181	136
498.398	158
498.615	122
498.832	107
499.049	130
499.267	132
499.484	148
499.701	142
499.918	138
500.135	133
500.352	156
500.569	158
500.786	171
501.003	166
501.22	149
501.437	137
501.654	140
501.871	148
502.088	132
502.305	141
502.522	143
502.739	148
502.956	137
503.172	134
503.389	146
503.606	138
503.823	130
504.04	111
504.256	132
504.473	130
504.69	130
504.907	130
505.123	116
505.34	138
505.557	131
505.773	136
505.99	131
506.207	128
506.423	124
506.64	142
506.856	136
507.073	123
507.289	122
507.506	111
507.722	124
507.939	124
508.155	128
508.372	130
508.588	117
508.805	107
509.021	109
509.238	108
509.454	115
509.67	107
509.887	109
510.103	104
510.319	91
510.536	93
510.752	103
510.968	99
511.184	93
511.401	92
511.617	80
511.833	96
512.049	110
512.265	89
512.481	105
512.698	95
512.914	102
513.13	111
513.346	94
513.562	96
513.778	86
513.994	103
514.21	95
514.426	97
514.642	88
514.858	90
515.074	77
515.29	98
515.506	98
515.721	91
515.937	90
516.153	84
516.369	86
516.585	93
516.801	87
517.016	91
517.232	91
517.448	114
517.664	96
517.879	105
518.095	91
518.311	94
518.527	106
518.742	98
518.958	105
519.173	107
519.389	119
519.605	116
519.82	110
520.036	114
520.251	109
520.467	111
520.682	114
520.898	105
521.113	83
521.329	80
521.544	99
521.76	77
521.975	92
522.19	107
522.406	88
522.621	101
522.836	108
523.052	114
523.267	120
523.482	116
523.698	104
523.913	126
524.128	132
524.343	107
524.559	116
524.774	120
524.989	121
525.204	125
525.419	122
525.634	115
525.849	119
526.064	109
526.28	106
526.495	96
526.71	93
526.925	78
527.14	98
527.355	93
527.57	103
527.785	83
527.999	102
528.214	106
528.429	110
528.644	124
528.859	145
529.074	158
529.289	176
529.503	189
529.718	139
529.933	133
530.148	106
530.363	97
530.577	92
530.792	79
531.007	72
531.221	77
531.436	89
531.651	98
531.865	84
532.08	104
532.295	100
532.509	95
532.724	100
532.938	90
533.153	110
533.367	107
533.582	124
533.796	114
534.011	131
534.225	111
534.44	85
534.654	103
534.868	105
535.083	105
535.297	107
535.511	108
535.726	117
535.94	102
536.154	96
536.369	99
536.583	84
536.797	102
537.011	100
537.225	86
537.44	82
537.654	100
537.868	102
538.082	102
538.296	109
538.51	120
538.724	130
538.938	135
539.153	132
539.367	122
539.581	120
539.795	102
540.009	108
540.222	112
540.436	103
540.65	105
540.864	128
541.078	157
541.292	167
541.506	162
541.72	181
541.934	222
542.147	214
542.361	192
542.575	170
542.789	180
543.002	153
543.216	140
543.43	141
543.644	157
543.857	154
544.071	168
544.285	164
544.498	163
544.712	167
544.925	153
545.139	170
545.352	169
545.566	172
545.779	166
545.993	161
546.206	166
546.42	183
546.633	180
546.847	162
547.06	179
547.274	198
547.487	188
547.7	178
547.914	177
548.127	176
548.34	170
548.554	164
548.767	157
548.98	172
549.193	164
549.407	150
549.62	152
549.833	162
550.046	166
550.259	153
550.473	158
550.686	168
550.899	163
551.112	155
551.325	162
551.538	143
551.751	134
551.964	126
552.177	148
552.39	141
552.603	152
552.816	158
553.029	156
553.242	159
553.455	162
553.667	162
553.88	170
554.093	159
554.306	146
554.519	161
554.732	156
554.944	155
555.157	137
555.37	141
555.583	143
555.795	171
556.008	140
556.221	142
556.433	142
556.646	128
556.859	152
557.071	165
557.284	148
557.496	145
557.709	135
557.921	146
558.134	126
558.346	152
558.559	165
558.771	152
558.984	159
559.196	143
559.409	151
559.621	138
559.833	126
560.046	136
560.258	121
560.47	124
560.683	128
560.895	128
561.107	144
561.32	123
561.532	133
561.744	142
561.956	147
562.168	137
562.381	135
562.593	138
562.805	136
563.017	144
563.229	142
563.441	129
563.653	125
563.865	130
564.077	124
564.289	135
564.501	132
564.713	149
564.925	116
565.137	131
565.349	122
565.561	122
565.773	129
565.985	114
566.197	141
566.408	115
566.62	125
566.832	127
567.044	122
567.255	128
567.467	118
567.679	111
567.891	115
568.102	116
568.314	111
568.526	90
568.737	98
568.949	89
569.161	80
569.372	94
569.584	84
569.795	101
570.007	88
570.218	95
570.43	104
570.641	90
570.853	91
571.064	107
571.276	112
571.487	101
571.698	104
571.91	116
572.121	104
572.333	109
572.544	98
572.755	105
572.966	98
573.178	85
573.389	68
573.6	95
573.811	94
574.023	75
574.234	93
574.445	82
574.656	98
574.867	99
575.078	108
575.289	98
575.501	99
575.712	101
575.923	97
576.134	100
576.345	90
576.556	95
576.767	105
576.978	105
577.188	92
577.399	103
577.61	92
577.821	114
578.032	107
578.243	104
578.454	95
578.665	107
578.875	100
579.086	90
579.297	89
579.508	78
579.718	83
579.929	97
580.14	91
580.35	90
580.561	92
580.772	97
580.982	96
581.193	102
581.403	95
581.614	94
581.825	93
582.035	78
582.246	89
582.456	91
582.667	114
582.877	109
583.087	88
583.298	99
583.508	104
583.719	80
583.929	106
584.139	104
584.35	94
584.56	103
584.77	72
584.981	87
585.191	92
585.401	84
585.611	92
585.821	78
586.032	88
586.242	110
586.452	83
586.662	80
586.872	82
587.082	83
587.292	79
587.502	100
587.713	98
587.923	83
588.133	83
588.343	80
588.553	100
588.762	84
588.972	84
589.182	72
589.392	80
589.602	71
589.812	75
590.022	80
590.232	81
590.441	108
590.651	75
590.861	84
591.071	83
591.281	87
591.49	83
591.7	87
591.91	77
592.119	93
592.329	94
592.539	96
592.748	102
592.958	84
593.167	101
593.377	74
593.587	78
593.796	88
594.006	99
594.215	95
594.424	91
594.634	100
594.843	96
595.053	86
595.262	105
595.472	77
595.681	99
595.89	90
596.1	84
596.309	111
596.518	101
596.727	109
596.937	88
597.146	94
597.355	86
597.564	98
597.774	102
597.983	88
598.192	100
598.401	86
598.61	97
598.819	95
599.028	100
599.237	100
599.446	99
599.655	87
599.864	83
600.073	88
600.282	108
600.491	90
600.7	97
600.909	93
601.118	118
601.327	98
601.536	111
601.745	111
601.953	116
602.162	112
602.371	116
602.58	108
602.789	112
602.997	125
603.206	118
603.415	111
603.623	115
603.832	111
604.041	118
604.249	103
604.458	103
604.666	101
604.875	108
605.084	111
605.292	107
605.501	121
605.709	104
605.918	126
606.126	107
606.334	105
606.543	121
606.751	130
606.96	118
607.168	109
607.376	120
607.585	107
607.793	120
608.001	113
608.21	119
608.418	132
608.626	116
608.834	112
609.043	107
609.251	123
609.459	118
609.667	129
609.875	117
610.083	129
610.291	128
610.499	112
610.707	117
610.916	127
611.124	136
611.332	126
611.54	137
611.748	122
611.955	134
612.163	118
612.371	119
612.579	122
612.787	123
612.995	132
613.203	113
613.411	112
613.618	114
613.826	104
614.034	114
614.242	120
614.449	111
614.657	107
614.865	103
615.072	97
615.28	103
615.488	126
615.695	127
615.903	106
616.111	113
616.318	118
616.526	120
616.733	123
616.941	115
617.148	123
617.356	121
617.563	117
617.771	118
617.978	118
618.185	101
618.393	123
618.6	125
618.807	108
619.015	121
619.222	114
619.429	122
619.637	116
619.844	99
620.051	96
620.258	102
620.466	105
620.673	119
620.88	116
621.087	115
621.294	112
621.501	116
621.708	105
621.915	102
622.122	120
622.329	120
622.536	104
622.743	117
622.95	126
623.157	107
623.364	119
623.571	118
623.778	111
623.985	109
624.192	116
624.399	113
624.606	116
624.812	103
625.019	106
625.226	104
625.433	112
625.639	117
625.846	113
626.053	102
626.259	93
626.466	98
626.673	117
626.879	101
627.086	104
627.293	107
627.499	107
627.706	97
627.912	122
628.119	116
628.325	119
628.532	108
628.738	114
628.945	91
629.151	102
629.357	103
629.564	111
629.77	102
629.976	118
630.183	98
630.389	122
630.595	109
630.802	114
631.008	112
631.214	105
631.42	108
631.627	109
631.833	105
632.039	107
632.245	114
632.451	114
632.657	105
632.863	100
633.069	104
633.275	108
633.481	98
633.688	105
633.893	96
634.099	108
634.305	108
634.511	114
634.717	98
634.923	83
635.129	102
635.335	115
635.541	100
635.747	90
635.952	99
636.158	114
636.364	122
636.57	109
636.775	106
636.981	121
637.187	107
637.392	106
637.598	104
637.804	117
638.009	107
638.215	118
638.421	102
638.626	104
638.832	95
639.037	119
639.243	111
639.448	108
639.654	108
639.859	109
640.065	90
640.27	109
640.475	116
640.681	104
640.886	104
641.091	107
641.297	111
641.502	110
641.707	95
641.913	108
642.118	110
642.323	94
642.528	104
642.733	116
642.939	113
643.144	103
643.349	93
643.554	99
643.759	93
643.964	101
644.169	115
644.374	111
644.579	106
644.784	98
644.989	112
645.194	107
645.399	105
645.604	109
645.809	102
646.014	86
646.219	106
646.423	107
646.628	95
646.833	96
647.038	100
647.243	99
647.447	122
647.652	118
647.857	98
648.062	82
648.266	107
648.471	115
648.676	102
648.88	96
649.085	89
649.289	95
649.494	85
649.698	105
649.903	106
650.107	101
650.312	104
650.516	103
650.721	107
650.925	103
651.13	103
651.334	96
651.539	106
651.743	88
651.947	100
652.152	101
652.356	105
652.56	105
652.764	106
652.969	89
653.173	95
653.377	104
653.581	91
653.785	108
653.99	102
654.194	100
654.398	102
654.602	111
654.806	103
655.01	93
655.214	97
655.418	95
655.622	98
655.826	109
656.03	98
656.234	76
656.438	101
656.642	100
656.846	90
657.049	91
657.253	85
657.457	93
657.661	93
657.865	98
658.068	98
658.272	82
658.476	91
658.68	101
658.883	85
659.087	102
659.291	101
659.494	95
659.698	100
659.901	99
660.105	84
660.309	80
660.512	93
660.716	82
660.919	90
661.123	102
661.326	82
661.53	84
661.733	84
661.936	106
662.14	80
662.343	90
662.546	74
662.75	88
662.953	90
663.156	89
663.36	72
663.563	83
663.766	70
663.969	92
664.173	82
664.376	86
664.579	92
664.782	90
664.985	87
665.188	86
665.391	70
665.594	79
665.797	89
666	93
666.203	93
666.406	79
666.609	82
666.812	80
667.015	86
667.218	86
667.421	74
667.624	64
667.827	85
668.03	82
668.232	95
668.435	84
668.638	99
668.841	100
669.043	84
669.246	75
669.449	88
669.651	85
669.854	88
670.057	75
670.259	85
670.462	91
670.665	81
670.867	90
671.07	84
671.272	75
671.475	82
671.677	97
671.88	91
672.082	94
672.284	89
672.487	71
672.689	82
672.892	82
