Data from Location6.07152019.Energy5.Lamp.07192019.3%Agarose_HRD10591_16-11-11-394.txt Node
Date: Fri Jul 19 16:11:11 EDT 2019
User: cochatt
Spectrometer: HR+D1059
Trigger mode: 1
Integration Time (sec): 1.000000E-1
Scans to average: 1
Electric dark correction enabled: true
Nonlinearity correction enabled: false
Boxcar width: 0
XAxis mode: Wavelengths
Number of Pixels in Spectrum: 2048
>>>>>Begin Spectral Data<<<<<
223.165	-5
223.4	-5
223.635	-5
223.869	-4
224.104	-17
224.338	-19
224.573	-17
224.808	-26
225.042	-10
225.277	-10
225.511	-4
225.746	6
225.98	5
226.215	8
226.449	8
226.683	22
226.918	24
227.152	39
227.387	34
227.621	35
227.856	50
228.09	41
228.324	43
228.559	54
228.793	55
229.027	60
229.262	66
229.496	67
229.73	68
229.964	85
230.199	74
230.433	76
230.667	75
230.901	64
231.136	87
231.37	87
231.604	81
231.838	95
232.072	77
232.306	70
232.541	84
232.775	88
233.009	86
233.243	73
233.477	81
233.711	81
233.945	87
234.179	86
234.413	78
234.647	68
234.881	81
235.115	87
235.349	82
235.583	88
235.817	74
236.051	70
236.285	72
236.519	82
236.753	76
236.987	90
237.221	74
237.455	79
237.689	80
237.922	64
238.156	92
238.39	79
238.624	76
238.858	80
239.091	80
239.325	66
239.559	79
239.793	82
240.027	76
240.26	76
240.494	82
240.728	75
240.961	64
241.195	86
241.429	84
241.662	79
241.896	86
242.13	76
242.363	88
242.597	76
242.83	76
243.064	89
243.298	88
243.531	83
243.765	86
243.998	64
244.232	77
244.465	88
244.699	88
244.932	85
245.166	87
245.399	68
245.633	85
245.866	90
246.099	76
246.333	70
246.566	71
246.8	68
247.033	71
247.266	76
247.5	84
247.733	76
247.966	81
248.2	82
248.433	85
248.666	74
248.899	75
249.133	75
249.366	73
249.599	79
249.832	81
250.066	86
250.299	69
250.532	100
250.765	77
250.998	71
251.231	76
251.465	74
251.698	80
251.931	77
252.164	83
252.397	82
252.63	87
252.863	74
253.096	97
253.329	93
253.562	91
253.795	76
254.028	85
254.261	79
254.494	86
254.727	87
254.96	92
255.193	76
255.426	99
255.659	92
255.892	93
256.124	88
256.357	83
256.59	84
256.823	96
257.056	72
257.289	81
257.521	86
257.754	80
257.987	93
258.22	92
258.452	70
258.685	82
258.918	83
259.151	90
259.383	78
259.616	79
259.849	87
260.081	85
260.314	84
260.547	71
260.779	76
261.012	83
261.244	90
261.477	87
261.71	86
261.942	90
262.175	84
262.407	102
262.64	80
262.872	68
263.105	97
263.337	84
263.57	82
263.802	83
264.035	79
264.267	70
264.499	98
264.732	99
264.964	83
265.197	66
265.429	92
265.661	92
265.894	84
266.126	75
266.358	85
266.591	90
266.823	88
267.055	80
267.287	73
267.52	77
267.752	88
267.984	88
268.216	93
268.448	85
268.681	89
268.913	83
269.145	77
269.377	71
269.609	86
269.841	82
270.073	79
270.306	80
270.538	92
270.77	80
271.002	80
271.234	94
271.466	92
271.698	79
271.93	74
272.162	102
272.394	79
272.626	69
272.858	92
273.09	84
273.322	86
273.553	88
273.785	85
274.017	83
274.249	99
274.481	82
274.713	71
274.945	79
275.176	92
275.408	78
275.64	84
275.872	84
276.104	80
276.335	81
276.567	80
276.799	81
277.031	98
277.262	89
277.494	78
277.726	90
277.957	102
278.189	95
278.421	102
278.652	100
278.884	71
279.115	80
279.347	86
279.579	91
279.81	79
280.042	99
280.273	96
280.505	81
280.736	94
280.968	87
281.199	95
281.431	68
281.662	80
281.894	84
282.125	84
282.356	89
282.588	97
282.819	81
283.051	88
283.282	77
283.513	76
283.745	94
283.976	69
284.207	83
284.439	94
284.67	90
284.901	96
285.132	79
285.364	96
285.595	66
285.826	82
286.057	103
286.288	99
286.52	100
286.751	80
286.982	68
287.213	94
287.444	92
287.675	85
287.906	92
288.138	95
288.369	77
288.6	81
288.831	99
289.062	99
289.293	94
289.524	80
289.755	93
289.986	90
290.217	89
290.448	81
290.679	77
290.91	99
291.141	93
291.371	91
291.602	95
291.833	77
292.064	85
292.295	82
292.526	100
292.757	98
292.987	74
293.218	78
293.449	82
293.68	94
293.91	77
294.141	72
294.372	99
294.603	75
294.833	89
295.064	82
295.295	78
295.525	85
295.756	92
295.987	88
296.217	94
296.448	88
296.679	71
296.909	86
297.14	85
297.37	80
297.601	84
297.831	86
298.062	85
298.292	90
298.523	97
298.753	74
298.984	80
299.214	101
299.445	79
299.675	78
299.905	84
300.136	103
300.366	85
300.597	90
300.827	89
301.057	101
301.288	89
301.518	86
301.748	91
301.979	78
302.209	96
302.439	84
302.669	90
302.9	85
303.13	86
303.36	86
303.59	78
303.82	77
304.051	83
304.281	95
304.511	80
304.741	87
304.971	90
305.201	88
305.431	88
305.661	95
305.891	83
306.121	63
306.352	89
306.582	75
306.812	83
307.042	101
307.272	80
307.502	93
307.731	84
307.961	81
308.191	91
308.421	93
308.651	85
308.881	83
309.111	83
309.341	72
309.571	78
309.8	98
310.03	83
310.26	89
310.49	97
310.72	86
310.949	92
311.179	84
311.409	93
311.639	93
311.868	95
312.098	92
312.328	92
312.557	87
312.787	88
313.017	93
313.246	88
313.476	83
313.706	88
313.935	93
314.165	91
314.394	76
314.624	90
314.853	92
315.083	97
315.312	87
315.542	87
315.771	90
316.001	92
316.23	79
316.46	80
316.689	96
316.919	87
317.148	84
317.377	85
317.607	88
317.836	78
318.065	100
318.295	86
318.524	78
318.753	102
318.983	92
319.212	80
319.441	79
319.67	101
319.9	81
320.129	92
320.358	95
320.587	80
320.816	79
321.046	87
321.275	93
321.504	92
321.733	91
321.962	92
322.191	98
322.42	79
322.649	83
322.878	92
323.108	87
323.337	88
323.566	77
323.795	75
324.024	93
324.253	85
324.482	93
324.71	83
324.939	80
325.168	101
325.397	94
325.626	77
325.855	93
326.084	97
326.313	76
326.542	89
326.77	71
326.999	83
327.228	103
327.457	93
327.686	83
327.914	106
328.143	86
328.372	102
328.6	101
328.829	76
329.058	78
329.287	91
329.515	86
329.744	86
329.972	96
330.201	95
330.43	83
330.658	76
330.887	100
331.115	87
331.344	81
331.572	80
331.801	75
332.03	87
332.258	89
332.486	84
332.715	94
332.943	85
333.172	94
333.4	92
333.629	85
333.857	92
334.085	98
334.314	89
334.542	108
334.771	75
334.999	87
335.227	94
335.455	89
335.684	98
335.912	93
336.14	88
336.369	92
336.597	88
336.825	82
337.053	79
337.281	78
337.51	87
337.738	87
337.966	96
338.194	71
338.422	94
338.65	82
338.878	77
339.106	97
339.334	92
339.562	89
339.79	94
340.018	91
340.246	88
340.474	90
340.702	93
340.93	94
341.158	92
341.386	81
341.614	84
341.842	74
342.07	90
342.298	80
342.526	84
342.754	93
342.981	91
343.209	82
343.437	83
343.665	99
343.893	90
344.12	94
344.348	93
344.576	88
344.804	86
345.031	96
345.259	87
345.487	84
345.714	98
345.942	94
346.17	92
346.397	90
346.625	84
346.853	87
347.08	73
347.308	94
347.535	85
347.763	88
347.99	87
348.218	85
348.445	94
348.673	99
348.9	92
349.128	91
349.355	87
349.583	80
349.81	78
350.037	88
350.265	88
350.492	86
350.72	91
350.947	92
351.174	85
351.402	89
351.629	87
351.856	93
352.083	87
352.311	91
352.538	80
352.765	84
352.992	95
353.22	86
353.447	88
353.674	99
353.901	97
354.128	71
354.355	83
354.583	84
354.81	94
355.037	88
355.264	95
355.491	88
355.718	90
355.945	93
356.172	103
356.399	70
356.626	88
356.853	87
357.08	85
357.307	78
357.534	79
357.761	84
357.988	81
358.215	92
358.441	84
358.668	92
358.895	84
359.122	86
359.349	94
359.576	101
359.802	99
360.029	100
360.256	96
360.483	71
360.709	87
360.936	88
361.163	85
361.39	74
361.616	83
361.843	86
362.07	84
362.296	80
362.523	86
362.749	86
362.976	69
363.203	99
363.429	79
363.656	87
363.882	99
364.109	95
364.335	100
364.562	92
364.788	97
365.015	87
365.241	90
365.468	77
365.694	80
365.92	100
366.147	84
366.373	91
366.599	89
366.826	79
367.052	88
367.278	90
367.505	96
367.731	98
367.957	99
368.184	86
368.41	76
368.636	94
368.862	103
369.089	90
369.315	92
369.541	88
369.767	95
369.993	93
370.219	100
370.445	89
370.672	87
370.898	90
371.124	98
371.35	99
371.576	102
371.802	92
372.028	96
372.254	108
372.48	96
372.706	80
372.932	90
373.158	93
373.384	104
373.61	108
373.835	97
374.061	100
374.287	106
374.513	89
374.739	89
374.965	100
375.191	107
375.416	105
375.642	92
375.868	104
376.094	111
376.319	114
376.545	88
376.771	96
376.997	104
377.222	81
377.448	103
377.674	98
377.899	93
378.125	95
378.35	112
378.576	100
378.802	112
379.027	100
379.253	111
379.478	103
379.704	90
379.929	91
380.155	89
380.38	105
380.606	103
380.831	106
381.057	104
381.282	93
381.507	99
381.733	95
381.958	101
382.184	98
382.409	102
382.634	104
382.86	122
383.085	99
383.31	98
383.535	93
383.761	105
383.986	98
384.211	115
384.436	114
384.662	113
384.887	99
385.112	100
385.337	101
385.562	98
385.787	94
386.013	110
386.238	99
386.463	98
386.688	117
386.913	106
387.138	106
387.363	114
387.588	94
387.813	119
388.038	109
388.263	109
388.488	111
388.713	106
388.938	115
389.163	109
389.387	107
389.612	106
389.837	110
390.062	121
390.287	102
390.512	105
390.736	116
390.961	104
391.186	112
391.411	108
391.636	103
391.86	95
392.085	103
392.31	102
392.534	114
392.759	98
392.984	106
393.208	122
393.433	114
393.658	119
393.882	107
394.107	95
394.331	107
394.556	119
394.78	116
395.005	117
395.229	136
395.454	112
395.678	112
395.903	118
396.127	117
396.352	111
396.576	98
396.801	83
397.025	106
397.249	125
397.474	108
397.698	117
397.922	120
398.147	101
398.371	101
398.595	126
398.82	105
399.044	128
399.268	131
399.492	118
399.717	126
399.941	124
400.165	110
400.389	132
400.613	126
400.837	120
401.062	103
401.286	107
401.51	123
401.734	116
401.958	119
402.182	124
402.406	128
402.63	105
402.854	107
403.078	103
403.302	131
403.526	111
403.75	130
403.974	126
404.198	128
404.422	127
404.645	111
404.869	130
405.093	124
405.317	130
405.541	139
405.765	116
405.988	131
406.212	134
406.436	111
406.66	126
406.883	120
407.107	125
407.331	112
407.555	129
407.778	118
408.002	127
408.226	131
408.449	111
408.673	112
408.896	126
409.12	114
409.344	138
409.567	121
409.791	126
410.014	128
410.238	128
410.461	137
410.685	120
410.908	127
411.132	131
411.355	127
411.578	129
411.802	121
412.025	121
412.249	127
412.472	125
412.695	129
412.919	134
413.142	120
413.365	119
413.589	122
413.812	128
414.035	126
414.258	128
414.482	118
414.705	123
414.928	131
415.151	119
415.374	137
415.597	123
415.821	128
416.044	124
416.267	139
416.49	136
416.713	136
416.936	128
417.159	132
417.382	124
417.605	138
417.828	138
418.051	150
418.274	130
418.497	139
418.72	131
418.943	133
419.166	146
419.389	150
419.611	134
419.834	145
420.057	139
420.28	142
420.503	132
420.726	139
420.948	138
421.171	160
421.394	158
421.617	162
421.839	143
422.062	146
422.285	131
422.507	132
422.73	140
422.953	121
423.175	151
423.398	142
423.621	156
423.843	130
424.066	146
424.288	164
424.511	149
424.733	150
424.956	155
425.178	163
425.401	151
425.623	152
425.846	137
426.068	135
426.291	129
426.513	160
426.735	146
426.958	128
427.18	139
427.402	142
427.625	133
427.847	126
428.069	140
428.292	138
428.514	149
428.736	148
428.958	126
429.181	143
429.403	136
429.625	147
429.847	130
430.069	137
430.292	148
430.514	135
430.736	141
430.958	147
431.18	132
431.402	123
431.624	129
431.846	117
432.068	119
432.29	101
432.512	117
432.734	121
432.956	134
433.178	145
433.4	146
433.622	149
433.844	142
434.066	133
434.287	119
434.509	109
434.731	119
434.953	138
435.175	145
435.397	135
435.618	120
435.84	118
436.062	122
436.284	116
436.505	125
436.727	150
436.949	133
437.17	117
437.392	135
437.614	121
437.835	127
438.057	104
438.278	121
438.5	125
438.721	138
438.943	132
439.165	156
439.386	143
439.608	141
439.829	156
440.05	141
440.272	146
440.493	140
440.715	162
440.936	148
441.158	162
441.379	149
441.6	155
441.822	158
442.043	156
442.264	158
442.486	161
442.707	152
442.928	154
443.149	138
443.371	153
443.592	154
443.813	164
444.034	143
444.255	148
444.476	158
444.698	149
444.919	164
445.14	270
445.361	198
445.582	175
445.803	148
446.024	140
446.245	156
446.466	164
446.687	168
446.908	167
447.129	169
447.35	151
447.571	150
447.792	153
448.013	147
448.234	156
448.455	154
448.675	143
448.896	154
449.117	146
449.338	141
449.559	150
449.779	138
450	138
450.221	132
450.442	136
450.662	136
450.883	136
451.104	141
451.324	138
451.545	143
451.766	144
451.986	141
452.207	134
452.428	131
452.648	126
452.869	138
453.089	122
453.31	127
453.53	124
453.751	110
453.971	102
454.192	102
454.412	114
454.633	134
454.853	127
455.073	132
455.294	129
455.514	142
455.734	117
455.955	129
456.175	115
456.395	115
456.616	116
456.836	110
457.056	103
457.276	114
457.497	113
457.717	127
457.937	102
458.157	109
458.377	115
458.598	96
458.818	100
459.038	88
459.258	90
459.478	86
459.698	105
459.918	98
460.138	120
460.358	125
460.578	121
460.798	120
461.018	110
461.238	127
461.458	124
461.678	108
461.898	110
462.118	108
462.338	128
462.558	119
462.777	118
462.997	124
463.217	111
463.437	114
463.657	100
463.876	96
464.096	121
464.316	110
464.536	124
464.755	114
464.975	122
465.195	125
465.414	111
465.634	121
465.854	120
466.073	111
466.293	152
466.512	128
466.732	138
466.951	141
467.171	126
467.391	142
467.61	141
467.829	139
468.049	134
468.268	142
468.488	139
468.707	136
468.927	156
469.146	151
469.365	157
469.585	149
469.804	154
470.023	140
470.243	139
470.462	160
470.681	147
470.901	148
471.12	156
471.339	158
471.558	142
471.777	155
471.997	156
472.216	135
472.435	125
472.654	122
472.873	111
473.092	112
473.311	129
473.53	138
473.749	156
473.968	136
474.187	138
474.406	118
474.625	137
474.844	135
475.063	137
475.282	122
475.501	120
475.72	127
475.939	128
476.158	136
476.377	150
476.596	139
476.814	116
477.033	115
477.252	118
477.471	128
477.69	136
477.908	142
478.127	142
478.346	157
478.564	136
478.783	164
479.002	157
479.22	144
479.439	144
479.658	129
479.876	120
480.095	114
480.313	128
480.532	128
480.751	111
480.969	84
481.188	98
481.406	80
481.624	88
481.843	82
482.061	101
482.28	124
482.498	128
482.717	127
482.935	132
483.153	157
483.372	156
483.59	155
483.808	143
484.027	147
484.245	150
484.463	164
484.681	186
484.9	169
485.118	167
485.336	142
485.554	128
485.772	102
485.99	107
486.209	106
486.427	117
486.645	122
486.863	154
487.081	151
487.299	136
487.517	142
487.735	182
487.953	203
488.171	181
488.389	182
488.607	176
488.825	165
489.043	138
489.261	142
489.479	157
489.696	152
489.914	153
490.132	144
490.35	160
490.568	156
490.786	176
491.003	187
491.221	192
491.439	206
491.657	215
491.874	221
492.092	246
492.31	252
492.527	264
492.745	222
492.963	202
493.18	196
493.398	190
493.615	186
493.833	189
494.05	173
494.268	179
494.485	178
494.703	182
494.92	175
495.138	177
495.355	182
495.573	188
495.79	184
496.008	180
496.225	167
496.442	168
496.66	190
496.877	182
497.094	175
497.312	178
497.529	166
497.746	168
497.963	148
498.181	140
498.398	126
498.615	135
498.832	120
499.049	127
499.267	122
499.484	120
499.701	148
499.918	136
500.135	131
500.352	156
500.569	145
500.786	151
501.003	157
501.22	145
501.437	143
501.654	162
501.871	132
502.088	146
502.305	140
502.522	148
502.739	140
502.956	144
503.172	126
503.389	120
503.606	139
503.823	126
504.04	121
504.256	138
504.473	132
504.69	140
504.907	121
505.123	137
505.34	134
505.557	136
505.773	123
505.99	148
506.207	132
506.423	110
506.64	119
506.856	119
507.073	131
507.289	142
507.506	130
507.722	126
507.939	130
508.155	124
508.372	137
508.588	111
508.805	119
509.021	114
509.238	108
509.454	107
509.67	105
509.887	98
510.103	96
510.319	107
510.536	100
510.752	99
510.968	97
511.184	88
511.401	90
511.617	98
511.833	95
512.049	111
512.265	100
512.481	110
512.698	115
512.914	95
513.13	96
513.346	96
513.562	106
513.778	90
513.994	98
514.21	92
514.426	96
514.642	94
514.858	92
515.074	111
515.29	110
515.506	91
515.721	98
515.937	101
516.153	69
516.369	94
516.585	98
516.801	85
517.016	97
517.232	97
517.448	110
517.664	95
517.879	102
518.095	85
518.311	94
518.527	102
518.742	106
518.958	105
519.173	114
519.389	101
519.605	121
519.82	114
520.036	107
520.251	106
520.467	107
520.682	97
520.898	105
521.113	93
521.329	101
521.544	108
521.76	108
521.975	114
522.19	110
522.406	116
522.621	94
522.836	95
523.052	120
523.267	109
523.482	121
523.698	118
523.913	108
524.128	107
524.343	114
524.559	124
524.774	125
524.989	128
525.204	130
525.419	124
525.634	115
525.849	123
526.064	127
526.28	110
526.495	94
526.71	67
526.925	90
527.14	88
527.355	68
527.57	93
527.785	101
527.999	106
528.214	105
528.429	122
528.644	134
528.859	145
529.074	152
529.289	179
529.503	168
529.718	144
529.933	124
530.148	101
530.363	94
530.577	98
530.792	96
531.007	74
531.221	88
531.436	101
531.651	105
531.865	98
532.08	81
532.295	100
532.509	84
532.724	99
532.938	94
533.153	115
533.367	110
533.582	128
533.796	130
534.011	105
534.225	87
534.44	104
534.654	104
534.868	105
535.083	114
535.297	105
535.511	119
535.726	120
535.94	111
536.154	94
536.369	95
536.583	86
536.797	101
537.011	73
537.225	88
537.44	83
537.654	89
537.868	97
538.082	98
538.296	102
538.51	120
538.724	128
538.938	120
539.153	125
539.367	134
539.581	119
539.795	121
540.009	110
540.222	114
540.436	120
540.65	128
540.864	132
541.078	133
541.292	162
541.506	155
541.72	181
541.934	196
542.147	211
542.361	207
542.575	166
542.789	140
543.002	146
543.216	148
543.43	127
543.644	150
543.857	152
544.071	155
544.285	186
544.498	175
544.712	160
544.925	154
545.139	166
545.352	166
545.566	162
545.779	165
545.993	186
546.206	168
546.42	183
546.633	172
546.847	184
547.06	165
547.274	170
547.487	191
547.7	182
547.914	170
548.127	171
548.34	164
548.554	162
548.767	163
548.98	160
549.193	160
549.407	172
549.62	152
549.833	142
550.046	158
550.259	175
550.473	163
550.686	162
550.899	148
551.112	158
551.325	155
551.538	155
551.751	137
551.964	126
552.177	139
552.39	134
552.603	141
552.816	162
553.029	159
553.242	164
553.455	174
553.667	183
553.88	154
554.093	164
554.306	157
554.519	151
554.732	155
554.944	152
555.157	153
555.37	166
555.583	154
555.795	157
556.008	147
556.221	138
556.433	130
556.646	137
556.859	131
557.071	142
557.284	155
557.496	142
557.709	150
557.921	152
558.134	149
558.346	144
558.559	156
558.771	158
558.984	138
559.196	126
559.409	135
559.621	146
559.833	128
560.046	139
560.258	145
560.47	154
560.683	142
560.895	125
561.107	142
561.32	152
561.532	143
561.744	134
561.956	131
562.168	148
562.381	130
562.593	128
562.805	148
563.017	131
563.229	135
563.441	135
563.653	127
563.865	124
564.077	126
564.289	128
564.501	129
564.713	126
564.925	136
565.137	130
565.349	116
565.561	133
565.773	122
565.985	126
566.197	118
566.408	123
566.62	127
566.832	131
567.044	128
567.255	108
567.467	105
567.679	132
567.891	116
568.102	126
568.314	83
568.526	93
568.737	95
568.949	95
569.161	91
569.372	104
569.584	81
569.795	94
570.007	93
570.218	64
570.43	108
570.641	102
570.853	107
571.064	106
571.276	123
571.487	111
571.698	102
571.91	119
572.121	98
572.333	116
572.544	103
572.755	90
572.966	93
573.178	98
573.389	103
573.6	84
573.811	82
574.023	81
574.234	86
574.445	86
574.656	88
574.867	117
575.078	103
575.289	83
575.501	112
575.712	108
575.923	101
576.134	109
576.345	102
576.556	103
576.767	93
576.978	100
577.188	101
577.399	91
577.61	92
577.821	87
578.032	105
578.243	97
578.454	101
578.665	107
578.875	79
579.086	91
579.297	83
579.508	87
579.718	93
579.929	94
580.14	84
580.35	87
580.561	92
580.772	92
580.982	83
581.193	89
581.403	101
581.614	93
581.825	94
582.035	107
582.246	94
582.456	97
582.667	108
582.877	96
583.087	99
583.298	95
583.508	94
583.719	94
583.929	91
584.139	87
584.35	80
584.56	85
584.77	84
584.981	94
585.191	92
585.401	88
585.611	84
585.821	87
586.032	78
586.242	81
586.452	83
586.662	84
586.872	95
587.082	76
587.292	100
587.502	99
587.713	81
587.923	98
588.133	85
588.343	94
588.553	94
588.762	83
588.972	98
589.182	88
589.392	95
589.602	79
589.812	88
590.022	84
590.232	84
590.441	99
590.651	93
590.861	80
591.071	94
591.281	86
591.49	83
591.7	85
591.91	84
592.119	90
592.329	88
592.539	88
592.748	102
592.958	104
593.167	92
593.377	89
593.587	88
593.796	60
594.006	90
594.215	87
594.424	98
594.634	93
594.843	81
595.053	98
595.262	95
595.472	89
595.681	101
595.89	81
596.1	92
596.309	94
596.518	95
596.727	103
596.937	103
597.146	93
597.355	95
597.564	81
597.774	101
597.983	85
598.192	95
598.401	102
598.61	96
598.819	94
599.028	95
599.237	109
599.446	105
599.655	96
599.864	91
600.073	108
600.282	107
600.491	90
600.7	99
600.909	108
601.118	100
601.327	119
601.536	106
601.745	114
601.953	117
602.162	110
602.371	112
602.58	114
602.789	116
602.997	106
603.206	125
603.415	119
603.623	116
603.832	114
604.041	106
604.249	115
604.458	107
604.666	99
604.875	121
605.084	121
605.292	123
605.501	119
605.709	117
605.918	125
606.126	123
606.334	104
606.543	123
606.751	119
606.96	109
607.168	120
607.376	116
607.585	122
607.793	116
608.001	117
608.21	116
608.418	135
608.626	129
608.834	123
609.043	110
609.251	111
609.459	110
609.667	121
609.875	115
610.083	108
610.291	125
610.499	122
610.707	126
610.916	119
611.124	126
611.332	111
611.54	114
611.748	122
611.955	129
612.163	118
612.371	119
612.579	131
612.787	120
612.995	122
613.203	119
613.411	116
613.618	119
613.826	123
614.034	128
614.242	127
614.449	119
614.657	98
614.865	103
615.072	101
615.28	109
615.488	108
615.695	114
615.903	116
616.111	115
616.318	124
616.526	111
616.733	114
616.941	116
617.148	108
617.356	127
617.563	124
617.771	111
617.978	121
618.185	110
618.393	105
618.6	118
618.807	117
619.015	113
619.222	131
619.429	116
619.637	116
619.844	116
620.051	109
620.258	109
620.466	118
620.673	111
620.88	105
621.087	114
621.294	114
621.501	87
621.708	108
621.915	93
622.122	121
622.329	114
622.536	108
622.743	108
622.95	103
623.157	107
623.364	112
623.571	123
623.778	111
623.985	107
624.192	117
624.399	103
624.606	108
624.812	102
625.019	132
625.226	118
625.433	112
625.639	107
625.846	98
626.053	100
626.259	117
626.466	91
626.673	98
626.879	104
627.086	99
627.293	108
627.499	124
627.706	124
627.912	114
628.119	113
628.325	118
628.532	115
628.738	116
628.945	109
629.151	118
629.357	116
629.564	107
629.77	106
629.976	107
630.183	108
630.389	115
630.595	116
630.802	106
631.008	97
631.214	111
631.42	118
631.627	114
631.833	93
632.039	103
632.245	118
632.451	103
632.657	112
632.863	110
633.069	96
633.275	107
633.481	96
633.688	116
633.893	99
634.099	96
634.305	109
634.511	109
634.717	115
634.923	101
635.129	88
635.335	96
635.541	108
635.747	110
635.952	105
636.158	101
636.364	111
636.57	110
636.775	99
636.981	114
637.187	110
637.392	107
637.598	114
637.804	109
638.009	110
638.215	114
638.421	105
638.626	114
638.832	106
639.037	102
639.243	107
639.448	107
639.654	104
639.859	107
640.065	102
640.27	109
640.475	101
640.681	105
640.886	113
641.091	111
641.297	114
641.502	106
641.707	121
641.913	118
642.118	107
642.323	106
642.528	95
642.733	94
642.939	114
643.144	103
643.349	99
643.554	110
643.759	98
643.964	105
644.169	95
644.374	97
644.579	109
644.784	103
644.989	91
645.194	103
645.399	114
645.604	99
645.809	103
646.014	115
646.219	95
646.423	112
646.628	103
646.833	109
647.038	125
647.243	96
647.447	112
647.652	95
647.857	93
648.062	100
648.266	107
648.471	100
648.676	97
648.88	100
649.085	104
649.289	95
649.494	98
649.698	96
649.903	99
650.107	100
650.312	103
650.516	97
650.721	97
650.925	85
651.13	101
651.334	99
651.539	104
651.743	114
651.947	102
652.152	104
652.356	108
652.56	107
652.764	101
652.969	99
653.173	84
653.377	98
653.581	112
653.785	107
653.99	93
654.194	108
654.398	91
654.602	86
654.806	97
655.01	96
655.214	99
655.418	93
655.622	88
655.826	100
656.03	93
656.234	94
656.438	93
656.642	88
656.846	83
657.049	104
657.253	92
657.457	91
657.661	91
657.865	109
658.068	83
658.272	89
658.476	89
658.68	79
658.883	83
659.087	81
659.291	91
659.494	74
659.698	77
659.901	100
660.105	100
660.309	101
660.512	104
660.716	100
660.919	92
661.123	91
661.326	86
661.53	88
661.733	80
661.936	82
662.14	76
662.343	96
662.546	82
662.75	71
662.953	98
663.156	78
663.36	98
663.563	95
663.766	80
663.969	76
664.173	90
664.376	80
664.579	80
664.782	76
664.985	79
665.188	84
665.391	81
665.594	70
665.797	92
666	88
666.203	87
666.406	72
666.609	100
666.812	96
667.015	104
667.218	87
667.421	83
667.624	72
667.827	102
668.03	84
668.232	87
668.435	80
668.638	84
668.841	92
669.043	84
669.246	87
669.449	80
669.651	70
669.854	90
670.057	86
670.259	79
670.462	80
670.665	87
670.867	79
671.07	85
671.272	86
671.475	84
671.677	83
671.88	85
672.082	79
672.284	88
672.487	81
672.689	79
672.892	82
