Data from Location6.07152019.Energy5.Lamp.07192019.3%Agarose_HRD10591_16-13-56-395.txt Node
Date: Fri Jul 19 16:13:56 EDT 2019
User: cochatt
Spectrometer: HR+D1059
Trigger mode: 1
Integration Time (sec): 1.000000E-1
Scans to average: 1
Electric dark correction enabled: true
Nonlinearity correction enabled: false
Boxcar width: 0
XAxis mode: Wavelengths
Number of Pixels in Spectrum: 2048
>>>>>Begin Spectral Data<<<<<
223.165	-5
223.4	-5
223.635	-5
223.869	-20
224.104	-13
224.338	-13
224.573	-18
224.808	-14
225.042	-20
225.277	-13
225.511	-2
225.746	11
225.98	14
226.215	13
226.449	13
226.683	23
226.918	23
227.152	21
227.387	29
227.621	28
227.856	45
228.09	29
228.324	43
228.559	47
228.793	60
229.027	52
229.262	51
229.496	62
229.73	65
229.964	61
230.199	61
230.433	59
230.667	77
230.901	87
231.136	87
231.37	88
231.604	80
231.838	99
232.072	83
232.306	66
232.541	72
232.775	82
233.009	69
233.243	77
233.477	86
233.711	83
233.945	85
234.179	73
234.413	91
234.647	99
234.881	94
235.115	69
235.349	84
235.583	89
235.817	88
236.051	88
236.285	75
236.519	74
236.753	78
236.987	65
237.221	74
237.455	73
237.689	69
237.922	69
238.156	79
238.39	61
238.624	81
238.858	85
239.091	80
239.325	82
239.559	77
239.793	73
240.027	83
240.26	60
240.494	67
240.728	81
240.961	81
241.195	70
241.429	69
241.662	83
241.896	76
242.13	85
242.363	81
242.597	73
242.83	87
243.064	97
243.298	70
243.531	71
243.765	84
243.998	89
244.232	78
244.465	83
244.699	86
244.932	83
245.166	72
245.399	75
245.633	67
245.866	58
246.099	93
246.333	79
246.566	75
246.8	76
247.033	81
247.266	77
247.5	69
247.733	76
247.966	71
248.2	76
248.433	77
248.666	69
248.899	83
249.133	65
249.366	71
249.599	72
249.832	85
250.066	74
250.299	70
250.532	85
250.765	94
250.998	85
251.231	83
251.465	89
251.698	79
251.931	88
252.164	78
252.397	82
252.63	77
252.863	87
253.096	74
253.329	81
253.562	75
253.795	91
254.028	82
254.261	87
254.494	74
254.727	85
254.96	83
255.193	82
255.426	70
255.659	92
255.892	87
256.124	79
256.357	83
256.59	92
256.823	67
257.056	74
257.289	79
257.521	78
257.754	87
257.987	85
258.22	85
258.452	80
258.685	64
258.918	77
259.151	84
259.383	75
259.616	87
259.849	80
260.081	86
260.314	81
260.547	83
260.779	81
261.012	91
261.244	80
261.477	80
261.71	82
261.942	84
262.175	73
262.407	84
262.64	94
262.872	84
263.105	87
263.337	93
263.57	88
263.802	92
264.035	74
264.267	93
264.499	98
264.732	85
264.964	81
265.197	78
265.429	80
265.661	85
265.894	72
266.126	86
266.358	95
266.591	75
266.823	76
267.055	73
267.287	84
267.52	74
267.752	81
267.984	88
268.216	70
268.448	94
268.681	87
268.913	83
269.145	72
269.377	89
269.609	86
269.841	87
270.073	76
270.306	94
270.538	88
270.77	81
271.002	92
271.234	84
271.466	85
271.698	89
271.93	74
272.162	81
272.394	89
272.626	87
272.858	89
273.09	83
273.322	94
273.553	85
273.785	90
274.017	68
274.249	73
274.481	87
274.713	81
274.945	86
275.176	90
275.408	75
275.64	78
275.872	73
276.104	89
276.335	84
276.567	75
276.799	74
277.031	85
277.262	81
277.494	75
277.726	75
277.957	85
278.189	75
278.421	80
278.652	84
278.884	78
279.115	87
279.347	69
279.579	79
279.81	94
280.042	90
280.273	76
280.505	90
280.736	90
280.968	94
281.199	74
281.431	79
281.662	90
281.894	94
282.125	75
282.356	72
282.588	90
282.819	88
283.051	97
283.282	87
283.513	69
283.745	81
283.976	74
284.207	75
284.439	84
284.67	76
284.901	77
285.132	84
285.364	74
285.595	82
285.826	86
286.057	91
286.288	91
286.52	97
286.751	91
286.982	92
287.213	91
287.444	95
287.675	87
287.906	97
288.138	95
288.369	94
288.6	90
288.831	90
289.062	76
289.293	74
289.524	76
289.755	92
289.986	100
290.217	81
290.448	88
290.679	83
290.91	86
291.141	85
291.371	65
291.602	81
291.833	89
292.064	77
292.295	97
292.526	77
292.757	73
292.987	92
293.218	90
293.449	77
293.68	79
293.91	77
294.141	97
294.372	93
294.603	95
294.833	84
295.064	85
295.295	82
295.525	82
295.756	85
295.987	91
296.217	96
296.448	89
296.679	98
296.909	81
297.14	78
297.37	90
297.601	76
297.831	77
298.062	80
298.292	85
298.523	82
298.753	94
298.984	87
299.214	89
299.445	86
299.675	88
299.905	76
300.136	90
300.366	75
300.597	74
300.827	86
301.057	73
301.288	76
301.518	85
301.748	73
301.979	84
302.209	85
302.439	72
302.669	90
302.9	95
303.13	85
303.36	90
303.59	85
303.82	81
304.051	84
304.281	98
304.511	102
304.741	85
304.971	93
305.201	83
305.431	93
305.661	88
305.891	84
306.121	90
306.352	78
306.582	78
306.812	84
307.042	99
307.272	74
307.502	96
307.731	90
307.961	97
308.191	80
308.421	71
308.651	85
308.881	77
309.111	85
309.341	79
309.571	73
309.8	86
310.03	101
310.26	90
310.49	73
310.72	96
310.949	79
311.179	90
311.409	77
311.639	93
311.868	77
312.098	96
312.328	93
312.557	86
312.787	98
313.017	72
313.246	83
313.476	94
313.706	87
313.935	85
314.165	87
314.394	89
314.624	91
314.853	84
315.083	96
315.312	89
315.542	99
315.771	100
316.001	80
316.23	90
316.46	80
316.689	79
316.919	85
317.148	81
317.377	102
317.607	85
317.836	78
318.065	100
318.295	72
318.524	90
318.753	73
318.983	81
319.212	83
319.441	81
319.67	104
319.9	84
320.129	94
320.358	74
320.587	77
320.816	87
321.046	79
321.275	78
321.504	84
321.733	92
321.962	101
322.191	87
322.42	98
322.649	100
322.878	87
323.108	79
323.337	82
323.566	77
323.795	79
324.024	77
324.253	83
324.482	75
324.71	81
324.939	85
325.168	85
325.397	74
325.626	81
325.855	77
326.084	91
326.313	90
326.542	86
326.77	95
326.999	85
327.228	90
327.457	87
327.686	81
327.914	74
328.143	104
328.372	91
328.6	109
328.829	85
329.058	84
329.287	82
329.515	71
329.744	80
329.972	78
330.201	70
330.43	85
330.658	89
330.887	80
331.115	79
331.344	85
331.572	77
331.801	88
332.03	81
332.258	70
332.486	73
332.715	87
332.943	86
333.172	74
333.4	84
333.629	76
333.857	85
334.085	82
334.314	77
334.542	82
334.771	81
334.999	92
335.227	87
335.455	93
335.684	87
335.912	76
336.14	80
336.369	88
336.597	86
336.825	78
337.053	69
337.281	85
337.51	91
337.738	97
337.966	81
338.194	79
338.422	88
338.65	96
338.878	78
339.106	81
339.334	85
339.562	96
339.79	88
340.018	77
340.246	77
340.474	77
340.702	86
340.93	79
341.158	96
341.386	79
341.614	78
341.842	91
342.07	86
342.298	87
342.526	73
342.754	94
342.981	82
343.209	95
343.437	88
343.665	74
343.893	80
344.12	90
344.348	97
344.576	91
344.804	102
345.031	88
345.259	79
345.487	80
345.714	83
345.942	87
346.17	101
346.397	78
346.625	84
346.853	89
347.08	93
347.308	78
347.535	84
347.763	85
347.99	77
348.218	95
348.445	72
348.673	88
348.9	82
349.128	88
349.355	95
349.583	89
349.81	90
350.037	79
350.265	85
350.492	71
350.72	86
350.947	76
351.174	92
351.402	85
351.629	88
351.856	88
352.083	89
352.311	94
352.538	80
352.765	84
352.992	94
353.22	83
353.447	85
353.674	81
353.901	86
354.128	99
354.355	93
354.583	80
354.81	92
355.037	76
355.264	84
355.491	78
355.718	111
355.945	94
356.172	98
356.399	81
356.626	74
356.853	87
357.08	89
357.307	86
357.534	93
357.761	93
357.988	98
358.215	94
358.441	84
358.668	85
358.895	84
359.122	75
359.349	86
359.576	99
359.802	93
360.029	88
360.256	82
360.483	77
360.709	66
360.936	90
361.163	79
361.39	88
361.616	73
361.843	83
362.07	86
362.296	102
362.523	90
362.749	90
362.976	93
363.203	93
363.429	84
363.656	84
363.882	92
364.109	80
364.335	86
364.562	76
364.788	77
365.015	89
365.241	90
365.468	77
365.694	76
365.92	91
366.147	81
366.373	79
366.599	84
366.826	97
367.052	79
367.278	81
367.505	74
367.731	95
367.957	92
368.184	84
368.41	99
368.636	80
368.862	86
369.089	91
369.315	103
369.541	98
369.767	85
369.993	81
370.219	91
370.445	89
370.672	86
370.898	84
371.124	84
371.35	98
371.576	70
371.802	97
372.028	93
372.254	79
372.48	98
372.706	88
372.932	98
373.158	88
373.384	98
373.61	84
373.835	91
374.061	93
374.287	95
374.513	95
374.739	95
374.965	107
375.191	101
375.416	97
375.642	97
375.868	105
376.094	82
376.319	85
376.545	92
376.771	103
376.997	89
377.222	83
377.448	91
377.674	93
377.899	95
378.125	101
378.35	95
378.576	91
378.802	90
379.027	107
379.253	87
379.478	86
379.704	99
379.929	80
380.155	94
380.38	106
380.606	97
380.831	97
381.057	113
381.282	94
381.507	106
381.733	96
381.958	99
382.184	102
382.409	93
382.634	106
382.86	95
383.085	93
383.31	101
383.535	98
383.761	98
383.986	98
384.211	96
384.436	102
384.662	94
384.887	93
385.112	105
385.337	110
385.562	100
385.787	90
386.013	110
386.238	99
386.463	93
386.688	115
386.913	119
387.138	100
387.363	96
387.588	119
387.813	103
388.038	96
388.263	92
388.488	115
388.713	108
388.938	111
389.163	108
389.387	104
389.612	103
389.837	101
390.062	98
390.287	113
390.512	103
390.736	103
390.961	97
391.186	109
391.411	99
391.636	85
391.86	107
392.085	125
392.31	108
392.534	101
392.759	106
392.984	99
393.208	110
393.433	106
393.658	108
393.882	91
394.107	108
394.331	108
394.556	106
394.78	112
395.005	97
395.229	89
395.454	113
395.678	113
395.903	114
396.127	119
396.352	101
396.576	112
396.801	109
397.025	109
397.249	91
397.474	102
397.698	92
397.922	110
398.147	127
398.371	111
398.595	105
398.82	101
399.044	108
399.268	107
399.492	107
399.717	120
399.941	126
400.165	109
400.389	114
400.613	106
400.837	119
401.062	106
401.286	101
401.51	123
401.734	105
401.958	113
402.182	112
402.406	120
402.63	117
402.854	105
403.078	115
403.302	118
403.526	122
403.75	126
403.974	124
404.198	123
404.422	119
404.645	123
404.869	124
405.093	119
405.317	113
405.541	127
405.765	126
405.988	121
406.212	119
406.436	126
406.66	110
406.883	128
407.107	127
407.331	126
407.555	120
407.778	112
408.002	132
408.226	133
408.449	109
408.673	129
408.896	118
409.12	134
409.344	133
409.567	115
409.791	118
410.014	138
410.238	102
410.461	117
410.685	121
410.908	106
411.132	131
411.355	113
411.578	117
411.802	138
412.025	120
412.249	125
412.472	123
412.695	117
412.919	123
413.142	124
413.365	118
413.589	121
413.812	125
414.035	122
414.258	121
414.482	129
414.705	123
414.928	123
415.151	144
415.374	124
415.597	135
415.821	129
416.044	131
416.267	141
416.49	135
416.713	125
416.936	133
417.159	129
417.382	129
417.605	125
417.828	124
418.051	130
418.274	143
418.497	150
418.72	127
418.943	142
419.166	135
419.389	125
419.611	155
419.834	131
420.057	127
420.28	122
420.503	128
420.726	127
420.948	119
421.171	130
421.394	153
421.617	153
421.839	152
422.062	161
422.285	129
422.507	141
422.73	126
422.953	119
423.175	130
423.398	134
423.621	129
423.843	135
424.066	141
424.288	151
424.511	153
424.733	145
424.956	152
425.178	150
425.401	150
425.623	139
425.846	135
426.068	140
426.291	127
426.513	129
426.735	133
426.958	124
427.18	125
427.402	124
427.625	132
427.847	132
428.069	130
428.292	140
428.514	134
428.736	129
428.958	134
429.181	129
429.403	124
429.625	135
429.847	135
430.069	122
430.292	149
430.514	131
430.736	136
430.958	133
431.18	144
431.402	129
431.624	121
431.846	118
432.068	110
432.29	107
432.512	114
432.734	133
432.956	139
433.178	148
433.4	143
433.622	139
433.844	142
434.066	121
434.287	120
434.509	94
434.731	97
434.953	113
435.175	109
435.397	139
435.618	116
435.84	121
436.062	113
436.284	130
436.505	127
436.727	154
436.949	143
437.17	138
437.392	134
437.614	126
437.835	107
438.057	113
438.278	105
438.5	121
438.721	128
438.943	131
439.165	160
439.386	150
439.608	146
439.829	147
440.05	166
440.272	147
440.493	155
440.715	151
440.936	151
441.158	151
441.379	151
441.6	178
441.822	162
442.043	138
442.264	138
442.486	137
442.707	118
442.928	138
443.149	138
443.371	120
443.592	143
443.813	135
444.034	137
444.255	147
444.476	153
444.698	144
444.919	169
445.14	273
445.361	204
445.582	159
445.803	157
446.024	154
446.245	161
446.466	179
446.687	170
446.908	159
447.129	155
447.35	148
447.571	145
447.792	144
448.013	147
448.234	142
448.455	137
448.675	141
448.896	139
449.117	148
449.338	142
449.559	130
449.779	125
450	140
450.221	144
450.442	150
450.662	136
450.883	141
451.104	135
451.324	124
451.545	130
451.766	141
451.986	133
452.207	130
452.428	129
452.648	123
452.869	142
453.089	125
453.31	119
453.53	109
453.751	116
453.971	123
454.192	116
454.412	109
454.633	111
454.853	117
455.073	125
455.294	114
455.514	133
455.734	139
455.955	130
456.175	134
456.395	116
456.616	111
456.836	111
457.056	126
457.276	108
457.497	108
457.717	102
457.937	121
458.157	104
458.377	117
458.598	89
458.818	107
459.038	94
459.258	100
459.478	78
459.698	86
459.918	88
460.138	105
460.358	125
460.578	109
460.798	121
461.018	125
461.238	125
461.458	123
461.678	114
461.898	110
462.118	118
462.338	125
462.558	105
462.777	90
462.997	105
463.217	115
463.437	110
463.657	106
463.876	110
464.096	119
464.316	123
464.536	118
464.755	113
464.975	117
465.195	126
465.414	122
465.634	113
465.854	141
466.073	128
466.293	130
466.512	137
466.732	132
466.951	153
467.171	139
467.391	147
467.61	138
467.829	140
468.049	164
468.268	140
468.488	147
468.707	139
468.927	130
469.146	141
469.365	154
469.585	137
469.804	138
470.023	140
470.243	148
470.462	149
470.681	151
470.901	147
471.12	132
471.339	139
471.558	139
471.777	156
471.997	149
472.216	134
472.435	131
472.654	114
472.873	105
473.092	123
473.311	139
473.53	142
473.749	124
473.968	146
474.187	108
474.406	123
474.625	139
474.844	145
475.063	125
475.282	122
475.501	120
475.72	117
475.939	134
476.158	143
476.377	133
476.596	127
476.814	124
477.033	111
477.252	115
477.471	115
477.69	134
477.908	148
478.127	140
478.346	131
478.564	139
478.783	132
479.002	151
479.22	149
479.439	132
479.658	123
479.876	113
480.095	104
480.313	115
480.532	113
480.751	119
480.969	99
481.188	91
481.406	88
481.624	97
481.843	85
482.061	97
482.28	110
482.498	113
482.717	115
482.935	127
483.153	154
483.372	161
483.59	149
483.808	129
484.027	151
484.245	134
484.463	142
484.681	154
484.9	159
485.118	157
485.336	130
485.554	118
485.772	105
485.99	95
486.209	109
486.427	111
486.645	138
486.863	144
487.081	155
487.299	130
487.517	153
487.735	179
487.953	182
488.171	193
488.389	177
488.607	171
488.825	130
489.043	125
489.261	137
489.479	141
489.696	146
489.914	151
490.132	165
490.35	159
490.568	165
490.786	172
491.003	182
491.221	193
491.439	186
491.657	191
491.874	210
492.092	229
492.31	245
492.527	259
492.745	227
492.963	192
493.18	183
493.398	203
493.615	206
493.833	172
494.05	191
494.268	194
494.485	199
494.703	183
494.92	167
495.138	177
495.355	183
495.573	180
495.79	180
496.008	181
496.225	181
496.442	165
496.66	164
496.877	157
497.094	178
497.312	188
497.529	157
497.746	151
497.963	141
498.181	141
498.398	138
498.615	134
498.832	110
499.049	121
499.267	119
499.484	129
499.701	135
499.918	145
500.135	121
500.352	148
500.569	155
500.786	159
501.003	152
501.22	133
501.437	130
501.654	144
501.871	149
502.088	127
502.305	133
502.522	133
502.739	131
502.956	124
503.172	125
503.389	136
503.606	117
503.823	117
504.04	131
504.256	129
504.473	132
504.69	127
504.907	125
505.123	105
505.34	137
505.557	117
505.773	125
505.99	113
506.207	120
506.423	131
506.64	119
506.856	128
507.073	141
507.289	125
507.506	110
507.722	125
507.939	119
508.155	109
508.372	106
508.588	133
508.805	116
509.021	122
509.238	116
509.454	116
509.67	86
509.887	90
510.103	90
510.319	93
510.536	105
510.752	91
510.968	99
511.184	92
511.401	78
511.617	94
511.833	82
512.049	83
512.265	103
512.481	107
512.698	103
512.914	90
513.13	101
513.346	98
513.562	98
513.778	84
513.994	100
514.21	93
514.426	100
514.642	97
514.858	94
515.074	103
515.29	89
515.506	92
515.721	89
515.937	102
516.153	91
516.369	79
516.585	86
516.801	92
517.016	93
517.232	101
517.448	98
517.664	96
517.879	103
518.095	89
518.311	90
518.527	90
518.742	106
518.958	104
519.173	124
519.389	106
519.605	118
519.82	120
520.036	118
520.251	115
520.467	109
520.682	97
520.898	96
521.113	104
521.329	102
521.544	97
521.76	107
521.975	94
522.19	92
522.406	104
522.621	101
522.836	106
523.052	113
523.267	105
523.482	116
523.698	125
523.913	117
524.128	121
524.343	116
524.559	114
524.774	120
524.989	122
525.204	127
525.419	111
525.634	110
525.849	104
526.064	105
526.28	98
526.495	97
526.71	87
526.925	95
527.14	90
527.355	76
527.57	83
527.785	91
527.999	90
528.214	106
528.429	130
528.644	133
528.859	137
529.074	157
529.289	177
529.503	170
529.718	147
529.933	129
530.148	103
530.363	105
530.577	84
530.792	97
531.007	71
531.221	76
531.436	78
531.651	78
531.865	85
532.08	78
532.295	86
532.509	76
532.724	103
532.938	100
533.153	105
533.367	121
533.582	118
533.796	123
534.011	111
534.225	93
534.44	98
534.654	96
534.868	94
535.083	106
535.297	94
535.511	107
535.726	126
535.94	103
536.154	98
536.369	88
536.583	99
536.797	89
537.011	93
537.225	90
537.44	92
537.654	100
537.868	93
538.082	91
538.296	92
538.51	99
538.724	135
538.938	136
539.153	123
539.367	138
539.581	126
539.795	108
540.009	105
540.222	101
540.436	105
540.65	102
540.864	140
541.078	145
541.292	154
541.506	178
541.72	191
541.934	194
542.147	181
542.361	197
542.575	188
542.789	151
543.002	135
543.216	142
543.43	127
543.644	134
543.857	152
544.071	163
544.285	167
544.498	163
544.712	177
544.925	171
545.139	168
545.352	179
545.566	149
545.779	174
545.993	170
546.206	168
546.42	176
546.633	178
546.847	172
547.06	161
547.274	161
547.487	171
547.7	170
547.914	181
548.127	177
548.34	173
548.554	171
548.767	157
548.98	165
549.193	153
549.407	163
549.62	166
549.833	169
550.046	171
550.259	164
550.473	157
550.686	162
550.899	151
551.112	149
551.325	135
551.538	151
551.751	121
551.964	116
552.177	129
552.39	125
552.603	142
552.816	159
553.029	149
553.242	157
553.455	174
553.667	165
553.88	147
554.093	167
554.306	148
554.519	153
554.732	161
554.944	152
555.157	151
555.37	159
555.583	144
555.795	156
556.008	147
556.221	141
556.433	147
556.646	141
556.859	145
557.071	138
557.284	139
557.496	153
557.709	157
557.921	152
558.134	144
558.346	157
558.559	136
558.771	153
558.984	137
559.196	134
559.409	141
559.621	147
559.833	123
560.046	137
560.258	151
560.47	148
560.683	128
560.895	129
561.107	118
561.32	132
561.532	126
561.744	126
561.956	125
562.168	135
562.381	125
562.593	123
562.805	128
563.017	137
563.229	132
563.441	139
563.653	130
563.865	127
564.077	117
564.289	125
564.501	126
564.713	120
564.925	118
565.137	116
565.349	134
565.561	123
565.773	125
565.985	126
566.197	126
566.408	116
566.62	126
566.832	127
567.044	123
567.255	111
567.467	126
567.679	121
567.891	112
568.102	118
568.314	104
568.526	91
568.737	104
568.949	88
569.161	88
569.372	80
569.584	77
569.795	84
570.007	81
570.218	89
570.43	85
570.641	98
570.853	96
571.064	108
571.276	109
571.487	101
571.698	111
571.91	108
572.121	90
572.333	100
572.544	98
572.755	96
572.966	101
573.178	86
573.389	90
573.6	97
573.811	83
574.023	81
574.234	79
574.445	91
574.656	101
574.867	92
575.078	102
575.289	107
575.501	91
575.712	106
575.923	94
576.134	95
576.345	93
576.556	109
576.767	120
576.978	101
577.188	105
577.399	108
577.61	108
577.821	92
578.032	107
578.243	97
578.454	106
578.665	100
578.875	74
579.086	99
579.297	73
579.508	84
579.718	96
579.929	87
580.14	91
580.35	79
580.561	94
580.772	102
580.982	94
581.193	103
581.403	81
581.614	93
581.825	79
582.035	105
582.246	90
582.456	95
582.667	106
582.877	86
583.087	93
583.298	76
583.508	90
583.719	82
583.929	93
584.139	91
584.35	79
584.56	90
584.77	77
584.981	74
585.191	89
585.401	95
585.611	88
585.821	96
586.032	60
586.242	79
586.452	88
586.662	83
586.872	84
587.082	99
587.292	86
587.502	85
587.713	99
587.923	86
588.133	93
588.343	95
588.553	87
588.762	88
588.972	78
589.182	79
589.392	104
589.602	83
589.812	96
590.022	91
590.232	89
590.441	87
590.651	93
590.861	80
591.071	94
591.281	86
591.49	82
591.7	93
591.91	77
592.119	71
592.329	87
592.539	79
592.748	87
592.958	93
593.167	90
593.377	84
593.587	89
593.796	85
594.006	90
594.215	103
594.424	90
594.634	90
594.843	99
595.053	94
595.262	94
595.472	97
595.681	93
595.89	93
596.1	95
596.309	95
596.518	97
596.727	91
596.937	83
597.146	112
597.355	91
597.564	97
597.774	92
597.983	78
598.192	102
598.401	88
598.61	91
598.819	88
599.028	100
599.237	82
599.446	91
599.655	89
599.864	78
600.073	95
600.282	94
600.491	98
600.7	105
600.909	94
601.118	104
601.327	108
601.536	104
601.745	113
601.953	110
602.162	113
602.371	120
602.58	105
602.789	113
602.997	103
603.206	103
603.415	121
603.623	111
603.832	124
604.041	125
604.249	110
604.458	115
604.666	99
604.875	106
605.084	106
605.292	109
605.501	110
605.709	108
605.918	127
606.126	118
606.334	111
606.543	113
606.751	108
606.96	108
607.168	103
607.376	119
607.585	128
607.793	119
608.001	118
608.21	121
608.418	117
608.626	124
608.834	109
609.043	125
609.251	118
609.459	117
609.667	108
609.875	124
610.083	109
610.291	125
610.499	110
610.707	114
610.916	125
611.124	117
611.332	123
611.54	101
611.748	111
611.955	119
612.163	111
612.371	102
612.579	110
612.787	119
612.995	114
613.203	123
613.411	119
613.618	111
613.826	121
614.034	98
614.242	112
614.449	101
614.657	102
614.865	116
615.072	125
615.28	117
615.488	107
615.695	111
615.903	116
616.111	124
616.318	121
616.526	120
616.733	102
616.941	113
617.148	122
617.356	111
617.563	116
617.771	114
617.978	102
618.185	96
618.393	113
618.6	119
618.807	113
619.015	98
619.222	129
619.429	115
619.637	103
619.844	111
620.051	109
620.258	125
620.466	115
620.673	122
620.88	95
621.087	106
621.294	123
621.501	98
621.708	102
621.915	107
622.122	95
622.329	119
622.536	117
622.743	98
622.95	107
623.157	108
623.364	106
623.571	100
623.778	106
623.985	106
624.192	117
624.399	101
624.606	95
624.812	109
625.019	103
625.226	106
625.433	114
625.639	115
625.846	92
626.053	107
626.259	90
626.466	83
626.673	94
626.879	89
627.086	109
627.293	106
627.499	117
627.706	113
627.912	98
628.119	123
628.325	120
628.532	99
628.738	107
628.945	106
629.151	96
629.357	107
629.564	109
629.77	110
629.976	115
630.183	110
630.389	108
630.595	110
630.802	118
631.008	97
631.214	111
631.42	94
631.627	103
631.833	111
632.039	95
632.245	116
632.451	105
632.657	90
632.863	89
633.069	114
633.275	87
633.481	110
633.688	100
633.893	106
634.099	95
634.305	95
634.511	100
634.717	100
634.923	99
635.129	90
635.335	99
635.541	99
635.747	95
635.952	110
636.158	108
636.364	114
636.57	100
636.775	109
636.981	120
637.187	98
637.392	97
637.598	100
637.804	82
638.009	92
638.215	103
638.421	100
638.626	99
638.832	93
639.037	110
639.243	97
639.448	94
639.654	90
639.859	104
640.065	90
640.27	120
640.475	96
640.681	90
640.886	103
641.091	101
641.297	98
641.502	111
641.707	107
641.913	99
642.118	114
642.323	104
642.528	107
642.733	116
642.939	115
643.144	87
643.349	88
643.554	102
643.759	91
643.964	102
644.169	107
644.374	95
644.579	102
644.784	106
644.989	112
645.194	107
645.399	102
645.604	96
645.809	99
646.014	102
646.219	92
646.423	92
646.628	86
646.833	105
647.038	116
647.243	104
647.447	112
647.652	93
647.857	95
648.062	106
648.266	97
648.471	111
648.676	111
648.88	105
649.085	98
649.289	97
649.494	106
649.698	98
649.903	106
650.107	107
650.312	108
650.516	83
650.721	109
650.925	85
651.13	95
651.334	86
651.539	93
651.743	95
651.947	101
652.152	101
652.356	92
652.56	98
652.764	102
652.969	87
653.173	102
653.377	102
653.581	97
653.785	85
653.99	85
654.194	82
654.398	91
654.602	100
654.806	99
655.01	80
655.214	95
655.418	125
655.622	98
655.826	102
656.03	103
656.234	103
656.438	105
656.642	98
656.846	92
657.049	114
657.253	94
657.457	100
657.661	88
657.865	81
658.068	94
658.272	90
658.476	94
658.68	101
658.883	89
659.087	97
659.291	97
659.494	91
659.698	78
659.901	93
660.105	84
660.309	92
660.512	72
660.716	90
660.919	95
661.123	92
661.326	96
661.53	84
661.733	92
661.936	83
662.14	84
662.343	90
662.546	83
662.75	91
662.953	76
663.156	98
663.36	103
663.563	92
663.766	77
663.969	91
664.173	90
664.376	79
664.579	98
664.782	90
664.985	83
665.188	100
665.391	80
665.594	94
665.797	84
666	75
666.203	81
666.406	86
666.609	79
666.812	73
667.015	84
667.218	90
667.421	86
667.624	93
667.827	85
668.03	75
668.232	68
668.435	93
668.638	73
668.841	81
669.043	73
669.246	82
669.449	69
669.651	87
669.854	80
670.057	81
670.259	83
670.462	81
670.665	90
670.867	77
671.07	90
671.272	66
671.475	82
671.677	79
671.88	74
672.082	75
672.284	98
672.487	75
672.689	74
672.892	67
