Data from Location6.07152019.Energy5.Lamp.07192019.3%Agarose_HRD10591_16-11-49-395.txt Node
Date: Fri Jul 19 16:11:49 EDT 2019
User: cochatt
Spectrometer: HR+D1059
Trigger mode: 1
Integration Time (sec): 1.000000E-1
Scans to average: 1
Electric dark correction enabled: true
Nonlinearity correction enabled: false
Boxcar width: 0
XAxis mode: Wavelengths
Number of Pixels in Spectrum: 2048
>>>>>Begin Spectral Data<<<<<
223.165	-8
223.4	-8
223.635	-8
223.869	-12
224.104	-26
224.338	-12
224.573	-29
224.808	-28
225.042	-4
225.277	4
225.511	-4
225.746	11
225.98	1
226.215	-3
226.449	28
226.683	24
226.918	16
227.152	42
227.387	16
227.621	35
227.856	34
228.09	40
228.324	42
228.559	45
228.793	58
229.027	67
229.262	55
229.496	68
229.73	71
229.964	62
230.199	53
230.433	61
230.667	68
230.901	81
231.136	86
231.37	86
231.604	67
231.838	74
232.072	78
232.306	78
232.541	69
232.775	96
233.009	71
233.243	76
233.477	74
233.711	76
233.945	84
234.179	80
234.413	76
234.647	80
234.881	82
235.115	77
235.349	71
235.583	78
235.817	85
236.051	70
236.285	73
236.519	81
236.753	77
236.987	73
237.221	77
237.455	78
237.689	88
237.922	66
238.156	75
238.39	78
238.624	77
238.858	82
239.091	72
239.325	75
239.559	70
239.793	77
240.027	78
240.26	70
240.494	67
240.728	84
240.961	72
241.195	72
241.429	63
241.662	76
241.896	68
242.13	76
242.363	67
242.597	73
242.83	73
243.064	74
243.298	79
243.531	74
243.765	74
243.998	76
244.232	87
244.465	73
244.699	70
244.932	79
245.166	65
245.399	80
245.633	87
245.866	74
246.099	68
246.333	64
246.566	78
246.8	87
247.033	70
247.266	79
247.5	66
247.733	73
247.966	61
248.2	72
248.433	68
248.666	91
248.899	72
249.133	71
249.366	60
249.599	71
249.832	86
250.066	74
250.299	72
250.532	67
250.765	65
250.998	61
251.231	69
251.465	83
251.698	66
251.931	81
252.164	87
252.397	76
252.63	67
252.863	80
253.096	61
253.329	76
253.562	77
253.795	76
254.028	80
254.261	73
254.494	67
254.727	76
254.96	63
255.193	71
255.426	86
255.659	67
255.892	72
256.124	69
256.357	83
256.59	72
256.823	78
257.056	81
257.289	84
257.521	77
257.754	80
257.987	75
258.22	69
258.452	82
258.685	74
258.918	95
259.151	69
259.383	72
259.616	85
259.849	82
260.081	74
260.314	80
260.547	80
260.779	72
261.012	66
261.244	81
261.477	81
261.71	73
261.942	90
262.175	86
262.407	80
262.64	66
262.872	68
263.105	67
263.337	78
263.57	81
263.802	68
264.035	74
264.267	82
264.499	74
264.732	75
264.964	69
265.197	75
265.429	80
265.661	88
265.894	84
266.126	79
266.358	74
266.591	74
266.823	78
267.055	78
267.287	94
267.52	90
267.752	81
267.984	81
268.216	78
268.448	89
268.681	89
268.913	73
269.145	78
269.377	65
269.609	83
269.841	81
270.073	64
270.306	95
270.538	72
270.77	89
271.002	88
271.234	81
271.466	72
271.698	66
271.93	74
272.162	81
272.394	87
272.626	79
272.858	66
273.09	81
273.322	78
273.553	77
273.785	83
274.017	100
274.249	78
274.481	84
274.713	77
274.945	59
275.176	71
275.408	84
275.64	56
275.872	72
276.104	73
276.335	82
276.567	84
276.799	74
277.031	70
277.262	85
277.494	87
277.726	72
277.957	74
278.189	78
278.421	82
278.652	78
278.884	80
279.115	78
279.347	64
279.579	78
279.81	94
280.042	69
280.273	85
280.505	83
280.736	105
280.968	83
281.199	79
281.431	87
281.662	89
281.894	80
282.125	102
282.356	77
282.588	86
282.819	89
283.051	79
283.282	86
283.513	87
283.745	74
283.976	80
284.207	91
284.439	70
284.67	74
284.901	78
285.132	77
285.364	68
285.595	87
285.826	85
286.057	73
286.288	84
286.52	78
286.751	87
286.982	76
287.213	79
287.444	81
287.675	68
287.906	86
288.138	86
288.369	84
288.6	81
288.831	97
289.062	72
289.293	86
289.524	86
289.755	78
289.986	88
290.217	81
290.448	90
290.679	75
290.91	87
291.141	82
291.371	78
291.602	76
291.833	89
292.064	76
292.295	77
292.526	76
292.757	90
292.987	80
293.218	70
293.449	87
293.68	84
293.91	89
294.141	86
294.372	85
294.603	85
294.833	82
295.064	97
295.295	85
295.525	80
295.756	86
295.987	85
296.217	90
296.448	85
296.679	78
296.909	79
297.14	86
297.37	85
297.601	68
297.831	79
298.062	76
298.292	78
298.523	88
298.753	86
298.984	96
299.214	89
299.445	82
299.675	82
299.905	84
300.136	82
300.366	82
300.597	87
300.827	68
301.057	73
301.288	79
301.518	89
301.748	99
301.979	87
302.209	76
302.439	74
302.669	80
302.9	82
303.13	82
303.36	78
303.59	74
303.82	95
304.051	73
304.281	70
304.511	83
304.741	80
304.971	74
305.201	85
305.431	81
305.661	61
305.891	70
306.121	86
306.352	67
306.582	83
306.812	89
307.042	83
307.272	89
307.502	82
307.731	69
307.961	85
308.191	63
308.421	79
308.651	79
308.881	77
309.111	64
309.341	88
309.571	85
309.8	85
310.03	77
310.26	69
310.49	74
310.72	75
310.949	86
311.179	80
311.409	87
311.639	85
311.868	84
312.098	71
312.328	87
312.557	88
312.787	68
313.017	72
313.246	92
313.476	94
313.706	73
313.935	86
314.165	84
314.394	87
314.624	100
314.853	82
315.083	85
315.312	86
315.542	76
315.771	88
316.001	83
316.23	82
316.46	82
316.689	89
316.919	86
317.148	80
317.377	79
317.607	77
317.836	87
318.065	84
318.295	85
318.524	82
318.753	69
318.983	91
319.212	85
319.441	84
319.67	80
319.9	73
320.129	98
320.358	84
320.587	83
320.816	73
321.046	81
321.275	92
321.504	87
321.733	94
321.962	81
322.191	75
322.42	81
322.649	72
322.878	93
323.108	70
323.337	83
323.566	91
323.795	84
324.024	73
324.253	89
324.482	92
324.71	77
324.939	87
325.168	78
325.397	73
325.626	82
325.855	93
326.084	80
326.313	78
326.542	82
326.77	78
326.999	96
327.228	87
327.457	76
327.686	72
327.914	77
328.143	89
328.372	82
328.6	71
328.829	77
329.058	84
329.287	85
329.515	95
329.744	80
329.972	76
330.201	81
330.43	76
330.658	76
330.887	76
331.115	93
331.344	100
331.572	87
331.801	80
332.03	86
332.258	82
332.486	77
332.715	81
332.943	83
333.172	81
333.4	79
333.629	74
333.857	71
334.085	79
334.314	80
334.542	72
334.771	85
334.999	86
335.227	83
335.455	87
335.684	80
335.912	85
336.14	94
336.369	92
336.597	81
336.825	75
337.053	82
337.281	78
337.51	79
337.738	70
337.966	80
338.194	88
338.422	88
338.65	81
338.878	82
339.106	73
339.334	74
339.562	79
339.79	85
340.018	72
340.246	72
340.474	83
340.702	87
340.93	82
341.158	83
341.386	94
341.614	84
341.842	82
342.07	80
342.298	78
342.526	74
342.754	80
342.981	94
343.209	83
343.437	103
343.665	82
343.893	81
344.12	74
344.348	69
344.576	83
344.804	89
345.031	86
345.259	90
345.487	65
345.714	78
345.942	83
346.17	93
346.397	94
346.625	106
346.853	85
347.08	73
347.308	68
347.535	65
347.763	87
347.99	74
348.218	76
348.445	70
348.673	69
348.9	85
349.128	87
349.355	80
349.583	65
349.81	80
350.037	88
350.265	83
350.492	78
350.72	80
350.947	82
351.174	90
351.402	77
351.629	87
351.856	80
352.083	78
352.311	66
352.538	81
352.765	78
352.992	85
353.22	80
353.447	74
353.674	72
353.901	78
354.128	79
354.355	80
354.583	95
354.81	83
355.037	80
355.264	77
355.491	85
355.718	81
355.945	97
356.172	81
356.399	86
356.626	80
356.853	88
357.08	80
357.307	83
357.534	70
357.761	84
357.988	71
358.215	92
358.441	88
358.668	74
358.895	90
359.122	87
359.349	80
359.576	80
359.802	81
360.029	52
360.256	73
360.483	78
360.709	89
360.936	85
361.163	87
361.39	77
361.616	74
361.843	84
362.07	80
362.296	91
362.523	93
362.749	78
362.976	72
363.203	80
363.429	84
363.656	86
363.882	69
364.109	77
364.335	77
364.562	79
364.788	82
365.015	78
365.241	79
365.468	69
365.694	77
365.92	78
366.147	88
366.373	74
366.599	93
366.826	72
367.052	87
367.278	91
367.505	92
367.731	85
367.957	80
368.184	98
368.41	84
368.636	79
368.862	85
369.089	75
369.315	89
369.541	95
369.767	84
369.993	100
370.219	85
370.445	83
370.672	81
370.898	81
371.124	83
371.35	86
371.576	91
371.802	76
372.028	77
372.254	101
372.48	88
372.706	97
372.932	67
373.158	80
373.384	94
373.61	90
373.835	97
374.061	94
374.287	79
374.513	81
374.739	84
374.965	92
375.191	89
375.416	84
375.642	87
375.868	93
376.094	103
376.319	97
376.545	99
376.771	95
376.997	77
377.222	98
377.448	93
377.674	78
377.899	87
378.125	82
378.35	99
378.576	75
378.802	103
379.027	98
379.253	100
379.478	101
379.704	103
379.929	103
380.155	109
380.38	93
380.606	106
380.831	95
381.057	109
381.282	98
381.507	112
381.733	98
381.958	85
382.184	95
382.409	99
382.634	102
382.86	106
383.085	95
383.31	92
383.535	92
383.761	96
383.986	97
384.211	89
384.436	89
384.662	98
384.887	100
385.112	86
385.337	91
385.562	105
385.787	100
386.013	103
386.238	95
386.463	86
386.688	98
386.913	94
387.138	104
387.363	105
387.588	98
387.813	98
388.038	100
388.263	95
388.488	103
388.713	97
388.938	109
389.163	98
389.387	92
389.612	104
389.837	104
390.062	100
390.287	96
390.512	95
390.736	102
390.961	110
391.186	104
391.411	93
391.636	105
391.86	111
392.085	104
392.31	98
392.534	98
392.759	99
392.984	106
393.208	97
393.433	108
393.658	103
393.882	117
394.107	121
394.331	120
394.556	92
394.78	99
395.005	96
395.229	99
395.454	116
395.678	97
395.903	93
396.127	111
396.352	101
396.576	100
396.801	111
397.025	91
397.249	120
397.474	114
397.698	110
397.922	111
398.147	109
398.371	112
398.595	112
398.82	104
399.044	116
399.268	124
399.492	100
399.717	121
399.941	95
400.165	113
400.389	110
400.613	99
400.837	119
401.062	111
401.286	111
401.51	121
401.734	111
401.958	102
402.182	124
402.406	109
402.63	113
402.854	106
403.078	116
403.302	120
403.526	121
403.75	120
403.974	110
404.198	116
404.422	120
404.645	98
404.869	125
405.093	128
405.317	106
405.541	115
405.765	121
405.988	122
406.212	122
406.436	114
406.66	125
406.883	105
407.107	122
407.331	126
407.555	114
407.778	117
408.002	111
408.226	130
408.449	117
408.673	132
408.896	124
409.12	108
409.344	121
409.567	127
409.791	110
410.014	124
410.238	112
410.461	114
410.685	108
410.908	122
411.132	108
411.355	112
411.578	131
411.802	129
412.025	129
412.249	141
412.472	115
412.695	104
412.919	120
413.142	113
413.365	130
413.589	120
413.812	104
414.035	117
414.258	126
414.482	118
414.705	108
414.928	116
415.151	126
415.374	121
415.597	94
415.821	121
416.044	114
416.267	117
416.49	129
416.713	121
416.936	119
417.159	128
417.382	120
417.605	130
417.828	117
418.051	126
418.274	127
418.497	132
418.72	135
418.943	137
419.166	141
419.389	144
419.611	128
419.834	119
420.057	126
420.28	129
420.503	141
420.726	130
420.948	137
421.171	140
421.394	144
421.617	157
421.839	141
422.062	124
422.285	135
422.507	152
422.73	131
422.953	122
423.175	126
423.398	134
423.621	135
423.843	136
424.066	130
424.288	144
424.511	136
424.733	138
424.956	142
425.178	134
425.401	142
425.623	151
425.846	127
426.068	129
426.291	142
426.513	129
426.735	156
426.958	134
427.18	137
427.402	132
427.625	132
427.847	132
428.069	129
428.292	138
428.514	129
428.736	119
428.958	133
429.181	126
429.403	140
429.625	134
429.847	132
430.069	122
430.292	133
430.514	125
430.736	128
430.958	134
431.18	128
431.402	117
431.624	121
431.846	97
432.068	100
432.29	88
432.512	123
432.734	130
432.956	139
433.178	125
433.4	139
433.622	151
433.844	130
434.066	118
434.287	108
434.509	99
434.731	89
434.953	110
435.175	136
435.397	130
435.618	121
435.84	112
436.062	113
436.284	131
436.505	136
436.727	144
436.949	126
437.17	129
437.392	130
437.614	116
437.835	109
438.057	105
438.278	109
438.5	133
438.721	121
438.943	122
439.165	139
439.386	149
439.608	149
439.829	149
440.05	156
440.272	158
440.493	137
440.715	145
440.936	152
441.158	150
441.379	147
441.6	133
441.822	162
442.043	147
442.264	150
442.486	144
442.707	144
442.928	136
443.149	145
443.371	140
443.592	143
443.813	127
444.034	131
444.255	145
444.476	144
444.698	154
444.919	151
445.14	277
445.361	224
445.582	147
445.803	155
446.024	156
446.245	150
446.466	157
446.687	155
446.908	161
447.129	167
447.35	163
447.571	147
447.792	159
448.013	153
448.234	148
448.455	140
448.675	137
448.896	138
449.117	129
449.338	141
449.559	144
449.779	142
450	123
450.221	125
450.442	130
450.662	139
450.883	144
451.104	147
451.324	134
451.545	126
451.766	138
451.986	124
452.207	134
452.428	133
452.648	127
452.869	120
453.089	116
453.31	114
453.53	113
453.751	102
453.971	97
454.192	110
454.412	106
454.633	100
454.853	132
455.073	100
455.294	108
455.514	122
455.734	116
455.955	116
456.175	119
456.395	97
456.616	124
456.836	113
457.056	101
457.276	87
457.497	98
457.717	110
457.937	104
458.157	105
458.377	101
458.598	97
458.818	96
459.038	85
459.258	76
459.478	92
459.698	88
459.918	85
460.138	109
460.358	121
460.578	122
460.798	120
461.018	113
461.238	120
461.458	113
461.678	113
461.898	104
462.118	116
462.338	111
462.558	114
462.777	119
462.997	120
463.217	102
463.437	118
463.657	113
463.876	96
464.096	113
464.316	99
464.536	110
464.755	115
464.975	117
465.195	111
465.414	108
465.634	117
465.854	111
466.073	112
466.293	135
466.512	132
466.732	128
466.951	130
467.171	139
467.391	150
467.61	132
467.829	121
468.049	134
468.268	120
468.488	137
468.707	139
468.927	129
469.146	124
469.365	147
469.585	150
469.804	153
470.023	155
470.243	143
470.462	145
470.681	154
470.901	141
471.12	151
471.339	148
471.558	145
471.777	139
471.997	142
472.216	127
472.435	120
472.654	126
472.873	117
473.092	121
473.311	119
473.53	125
473.749	124
473.968	130
474.187	128
474.406	116
474.625	125
474.844	134
475.063	130
475.282	106
475.501	122
475.72	118
475.939	137
476.158	122
476.377	126
476.596	118
476.814	123
477.033	106
477.252	124
477.471	132
477.69	130
477.908	147
478.127	138
478.346	137
478.564	119
478.783	130
479.002	125
479.22	137
479.439	143
479.658	122
479.876	126
480.095	120
480.313	113
480.532	106
480.751	116
480.969	84
481.188	88
481.406	65
481.624	88
481.843	76
482.061	116
482.28	107
482.498	112
482.717	115
482.935	111
483.153	141
483.372	158
483.59	170
483.808	142
484.027	138
484.245	145
484.463	155
484.681	190
484.9	145
485.118	140
485.336	130
485.554	123
485.772	111
485.99	115
486.209	120
486.427	117
486.645	117
486.863	140
487.081	144
487.299	136
487.517	129
487.735	166
487.953	197
488.171	181
488.389	165
488.607	181
488.825	160
489.043	146
489.261	142
489.479	138
489.696	132
489.914	151
490.132	139
490.35	138
490.568	167
490.786	180
491.003	210
491.221	190
491.439	190
491.657	194
491.874	222
492.092	233
492.31	252
492.527	252
492.745	207
492.963	192
493.18	192
493.398	195
493.615	194
493.833	193
494.05	182
494.268	163
494.485	160
494.703	168
494.92	174
495.138	175
495.355	168
495.573	176
495.79	172
496.008	176
496.225	148
496.442	187
496.66	163
496.877	164
497.094	176
497.312	167
497.529	157
497.746	162
497.963	140
498.181	133
498.398	126
498.615	125
498.832	124
499.049	120
499.267	139
499.484	129
499.701	144
499.918	138
500.135	145
500.352	150
500.569	133
500.786	127
501.003	152
501.22	145
501.437	142
501.654	144
501.871	133
502.088	146
502.305	130
502.522	156
502.739	124
502.956	123
503.172	129
503.389	120
503.606	118
503.823	121
504.04	136
504.256	126
504.473	122
504.69	121
504.907	133
505.123	141
505.34	109
505.557	127
505.773	130
505.99	130
506.207	122
506.423	125
506.64	114
506.856	120
507.073	134
507.289	124
507.506	106
507.722	129
507.939	116
508.155	130
508.372	112
508.588	131
508.805	108
509.021	98
509.238	118
509.454	90
509.67	100
509.887	101
510.103	99
510.319	92
510.536	90
510.752	86
510.968	86
511.184	97
511.401	85
511.617	78
511.833	86
512.049	93
512.265	105
512.481	96
512.698	92
512.914	90
513.13	95
513.346	90
513.562	103
513.778	71
513.994	94
514.21	95
514.426	103
514.642	92
514.858	97
515.074	98
515.29	81
515.506	88
515.721	86
515.937	83
516.153	97
516.369	79
516.585	86
516.801	95
517.016	90
517.232	86
517.448	96
517.664	101
517.879	95
518.095	94
518.311	95
518.527	102
518.742	92
518.958	93
519.173	109
519.389	103
519.605	100
519.82	111
520.036	105
520.251	96
520.467	95
520.682	104
520.898	103
521.113	93
521.329	80
521.544	91
521.76	104
521.975	95
522.19	103
522.406	96
522.621	109
522.836	113
523.052	114
523.267	113
523.482	130
523.698	113
523.913	109
524.128	105
524.343	128
524.559	122
524.774	116
524.989	127
525.204	111
525.419	114
525.634	114
525.849	108
526.064	106
526.28	110
526.495	77
526.71	91
526.925	86
527.14	94
527.355	78
527.57	72
527.785	87
527.999	93
528.214	108
528.429	110
528.644	123
528.859	131
529.074	150
529.289	154
529.503	178
529.718	155
529.933	119
530.148	110
530.363	100
530.577	88
530.792	87
531.007	77
531.221	80
531.436	68
531.651	83
531.865	83
532.08	92
532.295	80
532.509	85
532.724	90
532.938	74
533.153	101
533.367	110
533.582	116
533.796	114
534.011	119
534.225	121
534.44	87
534.654	93
534.868	92
535.083	96
535.297	100
535.511	104
535.726	103
535.94	105
536.154	101
536.369	90
536.583	83
536.797	84
537.011	83
537.225	85
537.44	93
537.654	94
537.868	86
538.082	82
538.296	90
538.51	110
538.724	104
538.938	117
539.153	134
539.367	125
539.581	124
539.795	103
540.009	99
540.222	83
540.436	104
540.65	102
540.864	130
541.078	133
541.292	144
541.506	159
541.72	169
541.934	199
542.147	206
542.361	200
542.575	165
542.789	154
543.002	142
543.216	138
543.43	132
543.644	133
543.857	146
544.071	162
544.285	176
544.498	153
544.712	165
544.925	157
545.139	165
545.352	152
545.566	171
545.779	159
545.993	174
546.206	160
546.42	168
546.633	182
546.847	159
547.06	168
547.274	166
547.487	181
547.7	176
547.914	179
548.127	160
548.34	161
548.554	161
548.767	164
548.98	164
549.193	157
549.407	168
549.62	157
549.833	149
550.046	152
550.259	152
550.473	154
550.686	158
550.899	157
551.112	165
551.325	140
551.538	130
551.751	138
551.964	120
552.177	125
552.39	132
552.603	159
552.816	149
553.029	137
553.242	166
553.455	148
553.667	151
553.88	142
554.093	147
554.306	164
554.519	130
554.732	142
554.944	152
555.157	163
555.37	151
555.583	139
555.795	139
556.008	153
556.221	148
556.433	146
556.646	128
556.859	136
557.071	148
557.284	146
557.496	160
557.709	126
557.921	158
558.134	144
558.346	131
558.559	150
558.771	121
558.984	135
559.196	136
559.409	129
559.621	123
559.833	122
560.046	119
560.258	141
560.47	149
560.683	124
560.895	127
561.107	137
561.32	126
561.532	130
561.744	125
561.956	128
562.168	117
562.381	119
562.593	134
562.805	117
563.017	141
563.229	116
563.441	124
563.653	128
563.865	124
564.077	132
564.289	116
564.501	123
564.713	119
564.925	127
565.137	113
565.349	111
565.561	125
565.773	118
565.985	125
566.197	110
566.408	113
566.62	127
566.832	132
567.044	123
567.255	132
567.467	109
567.679	94
567.891	109
568.102	92
568.314	100
568.526	95
568.737	92
568.949	72
569.161	73
569.372	92
569.584	92
569.795	95
570.007	82
570.218	69
570.43	86
570.641	97
570.853	96
571.064	91
571.276	105
571.487	94
571.698	102
571.91	105
572.121	107
572.333	99
572.544	91
572.755	85
572.966	78
573.178	87
573.389	79
573.6	85
573.811	95
574.023	92
574.234	98
574.445	92
574.656	69
574.867	91
575.078	84
575.289	91
575.501	100
575.712	94
575.923	73
576.134	100
576.345	93
576.556	101
576.767	94
576.978	82
577.188	101
577.399	86
577.61	88
577.821	96
578.032	101
578.243	92
578.454	94
578.665	95
578.875	81
579.086	83
579.297	74
579.508	81
579.718	82
579.929	88
580.14	77
580.35	92
580.561	91
580.772	79
580.982	82
581.193	85
581.403	96
581.614	101
581.825	89
582.035	89
582.246	84
582.456	97
582.667	88
582.877	83
583.087	87
583.298	97
583.508	84
583.719	85
583.929	94
584.139	69
584.35	81
584.56	81
584.77	92
584.981	73
585.191	86
585.401	73
585.611	93
585.821	79
586.032	72
586.242	80
586.452	88
586.662	80
586.872	75
587.082	78
587.292	70
587.502	83
587.713	71
587.923	90
588.133	74
588.343	74
588.553	72
588.762	92
588.972	81
589.182	86
589.392	93
589.602	90
589.812	80
590.022	82
590.232	89
590.441	85
590.651	78
590.861	72
591.071	86
591.281	71
591.49	87
591.7	95
591.91	89
592.119	82
592.329	84
592.539	87
592.748	89
592.958	89
593.167	80
593.377	63
593.587	80
593.796	80
594.006	87
594.215	89
594.424	96
594.634	82
594.843	87
595.053	86
595.262	95
595.472	90
595.681	81
595.89	93
596.1	87
596.309	99
596.518	79
596.727	97
596.937	87
597.146	88
597.355	74
597.564	94
597.774	87
597.983	82
598.192	79
598.401	97
598.61	95
598.819	96
599.028	100
599.237	91
599.446	94
599.655	97
599.864	80
600.073	82
600.282	91
600.491	98
600.7	96
600.909	89
601.118	93
601.327	103
601.536	95
601.745	89
601.953	100
602.162	116
602.371	105
602.58	103
602.789	100
602.997	99
603.206	121
603.415	102
603.623	97
603.832	96
604.041	99
604.249	100
604.458	80
604.666	90
604.875	89
605.084	100
605.292	98
605.501	108
605.709	104
605.918	108
606.126	104
606.334	96
606.543	106
606.751	112
606.96	111
607.168	104
607.376	104
607.585	108
607.793	100
608.001	112
608.21	116
608.418	115
608.626	112
608.834	121
609.043	120
609.251	113
609.459	112
609.667	105
609.875	121
610.083	121
610.291	120
610.499	118
610.707	123
610.916	108
611.124	127
611.332	109
611.54	108
611.748	109
611.955	112
612.163	119
612.371	114
612.579	121
612.787	99
612.995	104
613.203	109
613.411	102
613.618	108
613.826	124
614.034	118
614.242	114
614.449	96
614.657	99
614.865	111
615.072	128
615.28	116
615.488	113
615.695	115
615.903	121
616.111	111
616.318	118
616.526	111
616.733	110
616.941	103
617.148	108
617.356	114
617.563	107
617.771	109
617.978	103
618.185	116
618.393	109
618.6	122
618.807	116
619.015	118
619.222	102
619.429	116
619.637	100
619.844	104
620.051	93
620.258	105
620.466	91
620.673	117
620.88	101
621.087	120
621.294	100
621.501	106
621.708	90
621.915	96
622.122	117
622.329	107
622.536	115
622.743	114
622.95	97
623.157	111
623.364	101
623.571	122
623.778	104
623.985	119
624.192	122
624.399	99
624.606	103
624.812	93
625.019	111
625.226	109
625.433	114
625.639	88
625.846	89
626.053	95
626.259	99
626.466	94
626.673	98
626.879	97
627.086	101
627.293	114
627.499	100
627.706	101
627.912	109
628.119	96
628.325	111
628.532	103
628.738	99
628.945	103
629.151	82
629.357	97
629.564	112
629.77	96
629.976	101
630.183	107
630.389	87
630.595	97
630.802	85
631.008	116
631.214	93
631.42	96
631.627	101
631.833	97
632.039	92
632.245	105
632.451	98
632.657	96
632.863	100
633.069	105
633.275	107
633.481	100
633.688	102
633.893	113
634.099	94
634.305	106
634.511	93
634.717	107
634.923	85
635.129	94
635.335	117
635.541	101
635.747	100
635.952	106
636.158	101
636.364	97
636.57	104
636.775	100
636.981	103
637.187	102
637.392	108
637.598	94
637.804	115
638.009	107
638.215	111
638.421	104
638.626	93
638.832	96
639.037	104
639.243	87
639.448	96
639.654	100
639.859	92
640.065	96
640.27	114
640.475	92
640.681	102
640.886	99
641.091	114
641.297	100
641.502	103
641.707	104
641.913	99
642.118	111
642.323	96
642.528	101
642.733	93
642.939	97
643.144	111
643.349	98
643.554	99
643.759	98
643.964	106
644.169	122
644.374	108
644.579	94
644.784	89
644.989	99
645.194	100
645.399	101
645.604	90
645.809	81
646.014	105
646.219	103
646.423	106
646.628	98
646.833	101
647.038	87
647.243	112
647.447	94
647.652	95
647.857	104
648.062	92
648.266	97
648.471	97
648.676	96
648.88	84
649.085	108
649.289	95
649.494	102
649.698	88
649.903	78
650.107	96
650.312	96
650.516	105
650.721	101
650.925	90
651.13	92
651.334	90
651.539	89
651.743	99
651.947	111
652.152	100
652.356	97
652.56	88
652.764	94
652.969	92
653.173	86
653.377	93
653.581	88
653.785	92
653.99	92
654.194	88
654.398	78
654.602	87
654.806	101
655.01	78
655.214	89
655.418	84
655.622	92
655.826	102
656.03	93
656.234	87
656.438	96
656.642	86
656.846	78
657.049	76
657.253	104
657.457	99
657.661	87
657.865	78
658.068	90
658.272	88
658.476	105
658.68	78
658.883	89
659.087	83
659.291	81
659.494	81
659.698	79
659.901	91
660.105	76
660.309	74
660.512	73
660.716	81
660.919	73
661.123	73
661.326	71
661.53	80
661.733	87
661.936	93
662.14	77
662.343	97
662.546	82
662.75	84
662.953	71
663.156	75
663.36	80
663.563	78
663.766	84
663.969	96
664.173	80
664.376	82
664.579	65
664.782	85
664.985	77
665.188	78
665.391	88
665.594	81
665.797	88
666	76
666.203	74
666.406	76
666.609	83
666.812	84
667.015	86
667.218	96
667.421	80
667.624	74
667.827	89
668.03	71
668.232	77
668.435	78
668.638	76
668.841	74
669.043	79
669.246	82
669.449	64
669.651	74
669.854	85
670.057	70
670.259	63
670.462	71
670.665	76
670.867	79
671.07	81
671.272	71
671.475	76
671.677	83
671.88	75
672.082	82
672.284	80
672.487	78
672.689	77
672.892	71
