Data from Location6.07152019.Energy5.Lamp.07192019.3%Agarose_HRD10591_16-12-03-395.txt Node
Date: Fri Jul 19 16:12:03 EDT 2019
User: cochatt
Spectrometer: HR+D1059
Trigger mode: 1
Integration Time (sec): 1.000000E-1
Scans to average: 1
Electric dark correction enabled: true
Nonlinearity correction enabled: false
Boxcar width: 0
XAxis mode: Wavelengths
Number of Pixels in Spectrum: 2048
>>>>>Begin Spectral Data<<<<<
223.165	-31
223.4	-31
223.635	-31
223.869	-16
224.104	0
224.338	-19
224.573	-14
224.808	-26
225.042	8
225.277	-4
225.511	6
225.746	-17
225.98	15
226.215	19
226.449	3
226.683	20
226.918	31
227.152	25
227.387	30
227.621	36
227.856	41
228.09	57
228.324	58
228.559	65
228.793	67
229.027	65
229.262	69
229.496	71
229.73	74
229.964	62
230.199	70
230.433	79
230.667	67
230.901	77
231.136	73
231.37	86
231.604	90
231.838	77
232.072	82
232.306	89
232.541	70
232.775	93
233.009	70
233.243	76
233.477	78
233.711	78
233.945	72
234.179	93
234.413	82
234.647	77
234.881	68
235.115	99
235.349	81
235.583	98
235.817	80
236.051	68
236.285	66
236.519	95
236.753	71
236.987	74
237.221	73
237.455	87
237.689	83
237.922	79
238.156	77
238.39	79
238.624	84
238.858	78
239.091	73
239.325	70
239.559	80
239.793	87
240.027	90
240.26	82
240.494	79
240.728	93
240.961	70
241.195	78
241.429	78
241.662	75
241.896	75
242.13	66
242.363	86
242.597	73
242.83	91
243.064	80
243.298	70
243.531	79
243.765	78
243.998	71
244.232	101
244.465	77
244.699	72
244.932	84
245.166	77
245.399	82
245.633	69
245.866	82
246.099	89
246.333	73
246.566	86
246.8	80
247.033	72
247.266	72
247.5	83
247.733	71
247.966	92
248.2	91
248.433	84
248.666	70
248.899	79
249.133	83
249.366	88
249.599	87
249.832	81
250.066	79
250.299	72
250.532	88
250.765	79
250.998	71
251.231	77
251.465	84
251.698	98
251.931	77
252.164	91
252.397	76
252.63	70
252.863	77
253.096	69
253.329	76
253.562	79
253.795	87
254.028	73
254.261	90
254.494	68
254.727	92
254.96	96
255.193	70
255.426	74
255.659	95
255.892	81
256.124	84
256.357	91
256.59	91
256.823	78
257.056	84
257.289	77
257.521	82
257.754	76
257.987	74
258.22	73
258.452	79
258.685	88
258.918	67
259.151	81
259.383	81
259.616	71
259.849	81
260.081	99
260.314	86
260.547	84
260.779	99
261.012	94
261.244	83
261.477	83
261.71	93
261.942	91
262.175	95
262.407	74
262.64	72
262.872	80
263.105	76
263.337	92
263.57	90
263.802	82
264.035	83
264.267	85
264.499	100
264.732	99
264.964	102
265.197	92
265.429	93
265.661	90
265.894	88
266.126	77
266.358	79
266.591	86
266.823	79
267.055	81
267.287	86
267.52	80
267.752	87
267.984	84
268.216	80
268.448	92
268.681	80
268.913	79
269.145	83
269.377	92
269.609	94
269.841	93
270.073	96
270.306	93
270.538	88
270.77	79
271.002	86
271.234	89
271.466	78
271.698	82
271.93	74
272.162	76
272.394	81
272.626	79
272.858	84
273.09	89
273.322	86
273.553	85
273.785	75
274.017	85
274.249	89
274.481	99
274.713	93
274.945	86
275.176	77
275.408	80
275.64	102
275.872	78
276.104	85
276.335	92
276.567	92
276.799	85
277.031	79
277.262	76
277.494	78
277.726	88
277.957	93
278.189	79
278.421	87
278.652	84
278.884	84
279.115	79
279.347	77
279.579	78
279.81	67
280.042	97
280.273	84
280.505	86
280.736	84
280.968	86
281.199	85
281.431	70
281.662	97
281.894	89
282.125	90
282.356	93
282.588	88
282.819	96
283.051	90
283.282	95
283.513	95
283.745	87
283.976	84
284.207	83
284.439	76
284.67	84
284.901	105
285.132	90
285.364	88
285.595	89
285.826	86
286.057	89
286.288	98
286.52	78
286.751	87
286.982	103
287.213	84
287.444	80
287.675	75
287.906	85
288.138	84
288.369	87
288.6	84
288.831	94
289.062	92
289.293	72
289.524	72
289.755	73
289.986	79
290.217	94
290.448	93
290.679	95
290.91	86
291.141	84
291.371	90
291.602	89
291.833	80
292.064	84
292.295	93
292.526	88
292.757	91
292.987	87
293.218	86
293.449	70
293.68	73
293.91	77
294.141	80
294.372	93
294.603	92
294.833	93
295.064	107
295.295	80
295.525	93
295.756	89
295.987	83
296.217	78
296.448	90
296.679	82
296.909	92
297.14	74
297.37	85
297.601	79
297.831	90
298.062	76
298.292	89
298.523	85
298.753	84
298.984	91
299.214	79
299.445	92
299.675	87
299.905	89
300.136	88
300.366	84
300.597	88
300.827	78
301.057	83
301.288	78
301.518	76
301.748	96
301.979	84
302.209	96
302.439	87
302.669	100
302.9	101
303.13	90
303.36	87
303.59	90
303.82	87
304.051	86
304.281	106
304.511	94
304.741	86
304.971	88
305.201	93
305.431	88
305.661	103
305.891	78
306.121	103
306.352	109
306.582	92
306.812	83
307.042	78
307.272	76
307.502	94
307.731	86
307.961	86
308.191	87
308.421	86
308.651	89
308.881	74
309.111	104
309.341	90
309.571	92
309.8	75
310.03	90
310.26	80
310.49	88
310.72	82
310.949	90
311.179	77
311.409	90
311.639	91
311.868	80
312.098	94
312.328	88
312.557	95
312.787	91
313.017	97
313.246	95
313.476	88
313.706	82
313.935	90
314.165	84
314.394	76
314.624	92
314.853	102
315.083	90
315.312	77
315.542	90
315.771	95
316.001	92
316.23	75
316.46	79
316.689	91
316.919	75
317.148	77
317.377	95
317.607	95
317.836	83
318.065	92
318.295	81
318.524	90
318.753	100
318.983	88
319.212	74
319.441	81
319.67	91
319.9	81
320.129	92
320.358	83
320.587	84
320.816	85
321.046	94
321.275	89
321.504	92
321.733	98
321.962	89
322.191	91
322.42	91
322.649	94
322.878	97
323.108	84
323.337	96
323.566	88
323.795	85
324.024	86
324.253	78
324.482	92
324.71	89
324.939	97
325.168	86
325.397	82
325.626	90
325.855	93
326.084	93
326.313	93
326.542	93
326.77	96
326.999	74
327.228	87
327.457	92
327.686	94
327.914	91
328.143	89
328.372	79
328.6	101
328.829	98
329.058	98
329.287	80
329.515	86
329.744	89
329.972	88
330.201	95
330.43	86
330.658	86
330.887	74
331.115	88
331.344	103
331.572	107
331.801	93
332.03	79
332.258	89
332.486	87
332.715	91
332.943	109
333.172	73
333.4	79
333.629	82
333.857	86
334.085	93
334.314	104
334.542	89
334.771	78
334.999	89
335.227	80
335.455	101
335.684	88
335.912	86
336.14	89
336.369	80
336.597	81
336.825	83
337.053	89
337.281	90
337.51	78
337.738	94
337.966	86
338.194	86
338.422	88
338.65	76
338.878	104
339.106	96
339.334	79
339.562	86
339.79	82
340.018	85
340.246	92
340.474	83
340.702	89
340.93	85
341.158	85
341.386	79
341.614	82
341.842	83
342.07	79
342.298	84
342.526	85
342.754	77
342.981	89
343.209	85
343.437	90
343.665	87
343.893	90
344.12	82
344.348	85
344.576	98
344.804	101
345.031	98
345.259	85
345.487	90
345.714	83
345.942	96
346.17	76
346.397	79
346.625	82
346.853	92
347.08	84
347.308	83
347.535	77
347.763	84
347.99	80
348.218	79
348.445	76
348.673	76
348.9	87
349.128	79
349.355	88
349.583	79
349.81	84
350.037	97
350.265	94
350.492	79
350.72	88
350.947	89
351.174	95
351.402	103
351.629	88
351.856	89
352.083	98
352.311	84
352.538	94
352.765	79
352.992	96
353.22	76
353.447	114
353.674	99
353.901	77
354.128	80
354.355	87
354.583	80
354.81	89
355.037	81
355.264	88
355.491	91
355.718	80
355.945	87
356.172	89
356.399	83
356.626	89
356.853	87
357.08	87
357.307	92
357.534	85
357.761	84
357.988	78
358.215	78
358.441	90
358.668	96
358.895	99
359.122	82
359.349	93
359.576	77
359.802	86
360.029	85
360.256	96
360.483	89
360.709	92
360.936	98
361.163	86
361.39	76
361.616	96
361.843	88
362.07	91
362.296	84
362.523	94
362.749	72
362.976	87
363.203	95
363.429	80
363.656	79
363.882	84
364.109	90
364.335	82
364.562	108
364.788	87
365.015	79
365.241	86
365.468	93
365.694	88
365.92	92
366.147	90
366.373	93
366.599	90
366.826	80
367.052	81
367.278	90
367.505	78
367.731	90
367.957	104
368.184	103
368.41	85
368.636	92
368.862	82
369.089	80
369.315	110
369.541	93
369.767	87
369.993	107
370.219	90
370.445	88
370.672	97
370.898	96
371.124	90
371.35	101
371.576	92
371.802	91
372.028	101
372.254	101
372.48	84
372.706	79
372.932	74
373.158	91
373.384	105
373.61	101
373.835	91
374.061	93
374.287	100
374.513	104
374.739	99
374.965	102
375.191	86
375.416	101
375.642	97
375.868	107
376.094	106
376.319	102
376.545	100
376.771	94
376.997	101
377.222	101
377.448	108
377.674	114
377.899	88
378.125	108
378.35	106
378.576	112
378.802	83
379.027	97
379.253	92
379.478	92
379.704	91
379.929	101
380.155	84
380.38	95
380.606	107
380.831	92
381.057	99
381.282	97
381.507	107
381.733	111
381.958	99
382.184	100
382.409	108
382.634	103
382.86	99
383.085	91
383.31	81
383.535	110
383.761	102
383.986	100
384.211	94
384.436	98
384.662	94
384.887	96
385.112	107
385.337	105
385.562	111
385.787	119
386.013	107
386.238	105
386.463	103
386.688	92
386.913	94
387.138	108
387.363	114
387.588	106
387.813	107
388.038	108
388.263	111
388.488	126
388.713	99
388.938	104
389.163	102
389.387	107
389.612	99
389.837	118
390.062	106
390.287	107
390.512	102
390.736	92
390.961	102
391.186	116
391.411	112
391.636	109
391.86	107
392.085	111
392.31	111
392.534	109
392.759	101
392.984	109
393.208	98
393.433	108
393.658	103
393.882	120
394.107	106
394.331	114
394.556	118
394.78	110
395.005	115
395.229	109
395.454	95
395.678	102
395.903	112
396.127	119
396.352	114
396.576	105
396.801	110
397.025	111
397.249	109
397.474	130
397.698	114
397.922	110
398.147	111
398.371	117
398.595	100
398.82	109
399.044	117
399.268	113
399.492	111
399.717	118
399.941	103
400.165	111
400.389	124
400.613	117
400.837	122
401.062	110
401.286	113
401.51	118
401.734	117
401.958	130
402.182	105
402.406	116
402.63	100
402.854	109
403.078	123
403.302	113
403.526	137
403.75	132
403.974	128
404.198	127
404.422	116
404.645	124
404.869	139
405.093	115
405.317	118
405.541	122
405.765	126
405.988	124
406.212	118
406.436	124
406.66	117
406.883	120
407.107	127
407.331	129
407.555	120
407.778	118
408.002	122
408.226	122
408.449	124
408.673	118
408.896	116
409.12	132
409.344	127
409.567	134
409.791	125
410.014	116
410.238	118
410.461	121
410.685	130
410.908	104
411.132	126
411.355	122
411.578	134
411.802	128
412.025	127
412.249	130
412.472	128
412.695	122
412.919	134
413.142	135
413.365	129
413.589	128
413.812	128
414.035	136
414.258	123
414.482	130
414.705	123
414.928	123
415.151	126
415.374	123
415.597	136
415.821	136
416.044	134
416.267	121
416.49	124
416.713	141
416.936	142
417.159	138
417.382	121
417.605	130
417.828	130
418.051	130
418.274	156
418.497	130
418.72	139
418.943	128
419.166	131
419.389	135
419.611	139
419.834	132
420.057	142
420.28	144
420.503	126
420.726	146
420.948	143
421.171	130
421.394	144
421.617	145
421.839	134
422.062	157
422.285	156
422.507	143
422.73	138
422.953	123
423.175	126
423.398	119
423.621	134
423.843	138
424.066	148
424.288	138
424.511	155
424.733	155
424.956	157
425.178	151
425.401	134
425.623	144
425.846	135
426.068	135
426.291	135
426.513	134
426.735	154
426.958	148
427.18	134
427.402	137
427.625	128
427.847	130
428.069	136
428.292	135
428.514	138
428.736	151
428.958	134
429.181	130
429.403	124
429.625	129
429.847	154
430.069	130
430.292	134
430.514	124
430.736	132
430.958	138
431.18	136
431.402	140
431.624	140
431.846	117
432.068	107
432.29	103
432.512	121
432.734	138
432.956	138
433.178	135
433.4	145
433.622	163
433.844	142
434.066	127
434.287	121
434.509	102
434.731	109
434.953	117
435.175	124
435.397	128
435.618	129
435.84	107
436.062	130
436.284	118
436.505	130
436.727	135
436.949	136
437.17	143
437.392	132
437.614	128
437.835	122
438.057	122
438.278	121
438.5	140
438.721	133
438.943	150
439.165	135
439.386	147
439.608	143
439.829	136
440.05	168
440.272	155
440.493	142
440.715	150
440.936	150
441.158	144
441.379	151
441.6	146
441.822	144
442.043	150
442.264	149
442.486	158
442.707	133
442.928	149
443.149	143
443.371	142
443.592	148
443.813	159
444.034	144
444.255	144
444.476	154
444.698	142
444.919	141
445.14	259
445.361	215
445.582	152
445.803	132
446.024	166
446.245	159
446.466	165
446.687	159
446.908	185
447.129	169
447.35	163
447.571	151
447.792	142
448.013	162
448.234	148
448.455	134
448.675	149
448.896	151
449.117	148
449.338	140
449.559	144
449.779	154
450	145
450.221	143
450.442	146
450.662	144
450.883	142
451.104	143
451.324	139
451.545	146
451.766	134
451.986	132
452.207	135
452.428	143
452.648	126
452.869	132
453.089	134
453.31	111
453.53	114
453.751	107
453.971	105
454.192	95
454.412	119
454.633	121
454.853	139
455.073	130
455.294	126
455.514	137
455.734	133
455.955	126
456.175	124
456.395	101
456.616	110
456.836	114
457.056	117
457.276	111
457.497	122
457.717	120
457.937	117
458.157	110
458.377	108
458.598	112
458.818	117
459.038	97
459.258	94
459.478	88
459.698	92
459.918	104
460.138	99
460.358	140
460.578	110
460.798	114
461.018	108
461.238	121
461.458	115
461.678	126
461.898	138
462.118	113
462.338	132
462.558	114
462.777	112
462.997	96
463.217	104
463.437	109
463.657	127
463.876	126
464.096	103
464.316	111
464.536	108
464.755	126
464.975	124
465.195	133
465.414	114
465.634	128
465.854	122
466.073	135
466.293	146
466.512	115
466.732	138
466.951	128
467.171	126
467.391	144
467.61	147
467.829	142
468.049	148
468.268	136
468.488	151
468.707	141
468.927	148
469.146	157
469.365	151
469.585	139
469.804	134
470.023	144
470.243	142
470.462	135
470.681	157
470.901	138
471.12	150
471.339	156
471.558	160
471.777	152
471.997	163
472.216	130
472.435	109
472.654	123
472.873	120
473.092	132
473.311	125
473.53	134
473.749	132
473.968	140
474.187	128
474.406	127
474.625	131
474.844	124
475.063	128
475.282	141
475.501	132
475.72	117
475.939	128
476.158	124
476.377	137
476.596	132
476.814	125
477.033	118
477.252	117
477.471	136
477.69	148
477.908	132
478.127	142
478.346	140
478.564	138
478.783	152
479.002	142
479.22	144
479.439	131
479.658	120
479.876	106
480.095	123
480.313	136
480.532	134
480.751	123
480.969	98
481.188	96
481.406	99
481.624	97
481.843	72
482.061	106
482.28	121
482.498	131
482.717	108
482.935	136
483.153	146
483.372	146
483.59	159
483.808	157
484.027	143
484.245	153
484.463	164
484.681	159
484.9	140
485.118	141
485.336	136
485.554	114
485.772	95
485.99	119
486.209	130
486.427	103
486.645	118
486.863	134
487.081	141
487.299	140
487.517	131
487.735	183
487.953	196
488.171	200
488.389	196
488.607	159
488.825	141
489.043	140
489.261	138
489.479	143
489.696	150
489.914	143
490.132	144
490.35	146
490.568	179
490.786	186
491.003	202
491.221	178
491.439	211
491.657	192
491.874	221
492.092	227
492.31	247
492.527	224
492.745	226
492.963	202
493.18	186
493.398	203
493.615	198
493.833	184
494.05	191
494.268	176
494.485	198
494.703	197
494.92	186
495.138	196
495.355	174
495.573	177
495.79	182
496.008	188
496.225	190
496.442	169
496.66	181
496.877	182
497.094	162
497.312	183
497.529	172
497.746	169
497.963	138
498.181	146
498.398	127
498.615	131
498.832	123
499.049	124
499.267	122
499.484	122
499.701	144
499.918	128
500.135	156
500.352	147
500.569	154
500.786	164
501.003	154
501.22	152
501.437	151
501.654	142
501.871	140
502.088	139
502.305	129
502.522	139
502.739	133
502.956	135
503.172	129
503.389	127
503.606	124
503.823	136
504.04	126
504.256	127
504.473	114
504.69	132
504.907	126
505.123	122
505.34	128
505.557	134
505.773	126
505.99	136
506.207	126
506.423	124
506.64	136
506.856	130
507.073	133
507.289	116
507.506	132
507.722	109
507.939	116
508.155	124
508.372	118
508.588	102
508.805	118
509.021	108
509.238	129
509.454	120
509.67	102
509.887	96
510.103	89
510.319	100
510.536	80
510.752	91
510.968	76
511.184	75
511.401	93
511.617	90
511.833	98
512.049	103
512.265	94
512.481	103
512.698	108
512.914	116
513.13	97
513.346	99
513.562	103
513.778	94
513.994	102
514.21	100
514.426	103
514.642	90
514.858	98
515.074	89
515.29	94
515.506	95
515.721	107
515.937	91
516.153	94
516.369	86
516.585	80
516.801	89
517.016	85
517.232	108
517.448	104
517.664	103
517.879	111
518.095	93
518.311	101
518.527	82
518.742	98
518.958	105
519.173	107
519.389	109
519.605	111
519.82	115
520.036	124
520.251	106
520.467	116
520.682	115
520.898	92
521.113	82
521.329	90
521.544	84
521.76	84
521.975	89
522.19	98
522.406	86
522.621	102
522.836	117
523.052	107
523.267	111
523.482	114
523.698	122
523.913	108
524.128	116
524.343	131
524.559	123
524.774	128
524.989	108
525.204	132
525.419	128
525.634	122
525.849	119
526.064	115
526.28	117
526.495	110
526.71	85
526.925	83
527.14	89
527.355	94
527.57	94
527.785	90
527.999	99
528.214	111
528.429	123
528.644	128
528.859	139
529.074	166
529.289	170
529.503	166
529.718	143
529.933	116
530.148	105
530.363	100
530.577	94
530.792	104
531.007	87
531.221	83
531.436	91
531.651	90
531.865	78
532.08	96
532.295	102
532.509	89
532.724	87
532.938	106
533.153	120
533.367	120
533.582	123
533.796	126
534.011	132
534.225	111
534.44	111
534.654	104
534.868	108
535.083	118
535.297	104
535.511	112
535.726	127
535.94	114
536.154	90
536.369	92
536.583	94
536.797	103
537.011	90
537.225	86
537.44	82
537.654	105
537.868	99
538.082	107
538.296	104
538.51	104
538.724	118
538.938	126
539.153	139
539.367	132
539.581	132
539.795	120
540.009	110
540.222	93
540.436	103
540.65	121
540.864	125
541.078	141
541.292	150
541.506	150
541.72	169
541.934	192
542.147	219
542.361	200
542.575	186
542.789	161
543.002	144
543.216	140
543.43	123
543.644	135
543.857	161
544.071	170
544.285	191
544.498	153
544.712	181
544.925	170
545.139	170
545.352	176
545.566	180
545.779	170
545.993	179
546.206	158
546.42	185
546.633	173
546.847	163
547.06	170
547.274	168
547.487	191
547.7	188
547.914	185
548.127	165
548.34	166
548.554	155
548.767	169
548.98	160
549.193	152
549.407	168
549.62	159
549.833	163
550.046	164
550.259	162
550.473	173
550.686	151
550.899	164
551.112	170
551.325	153
551.538	137
551.751	120
551.964	126
552.177	128
552.39	156
552.603	149
552.816	142
553.029	159
553.242	160
553.455	175
553.667	168
553.88	154
554.093	154
554.306	164
554.519	147
554.732	167
554.944	152
555.157	152
555.37	149
555.583	156
555.795	138
556.008	137
556.221	144
556.433	140
556.646	135
556.859	145
557.071	149
557.284	134
557.496	155
557.709	155
557.921	149
558.134	159
558.346	141
558.559	154
558.771	150
558.984	136
559.196	142
559.409	145
559.621	121
559.833	144
560.046	132
560.258	143
560.47	134
560.683	136
560.895	140
561.107	150
561.32	148
561.532	133
561.744	150
561.956	126
562.168	138
562.381	137
562.593	142
562.805	143
563.017	130
563.229	121
563.441	126
563.653	137
563.865	139
564.077	133
564.289	130
564.501	126
564.713	127
564.925	136
565.137	114
565.349	119
565.561	134
565.773	118
565.985	122
566.197	115
566.408	127
566.62	131
566.832	116
567.044	121
567.255	129
567.467	115
567.679	122
567.891	114
568.102	108
568.314	99
568.526	114
568.737	113
568.949	83
569.161	86
569.372	83
569.584	90
569.795	90
570.007	77
570.218	84
570.43	90
570.641	114
570.853	101
571.064	116
571.276	120
571.487	111
571.698	115
571.91	107
572.121	119
572.333	114
572.544	96
572.755	113
572.966	96
573.178	111
573.389	92
573.6	85
573.811	79
574.023	90
574.234	84
574.445	91
574.656	94
574.867	79
575.078	107
575.289	110
575.501	112
575.712	112
575.923	98
576.134	94
576.345	93
576.556	87
576.767	103
576.978	97
577.188	102
577.399	96
577.61	96
577.821	95
578.032	100
578.243	99
578.454	119
578.665	107
578.875	88
579.086	86
579.297	87
579.508	83
579.718	84
579.929	94
580.14	79
580.35	67
580.561	80
580.772	99
580.982	103
581.193	96
581.403	100
581.614	101
581.825	107
582.035	85
582.246	104
582.456	95
582.667	87
582.877	93
583.087	91
583.298	90
583.508	88
583.719	73
583.929	94
584.139	91
584.35	82
584.56	87
584.77	91
584.981	84
585.191	94
585.401	93
585.611	93
585.821	90
586.032	91
586.242	85
586.452	80
586.662	86
586.872	88
587.082	94
587.292	101
587.502	93
587.713	87
587.923	96
588.133	81
588.343	68
588.553	82
588.762	93
588.972	88
589.182	87
589.392	89
589.602	93
589.812	104
590.022	93
590.232	93
590.441	105
590.651	78
590.861	92
591.071	80
591.281	84
591.49	89
591.7	88
591.91	83
592.119	89
592.329	99
592.539	84
592.748	86
592.958	98
593.167	90
593.377	95
593.587	90
593.796	79
594.006	86
594.215	98
594.424	98
594.634	94
594.843	91
595.053	106
595.262	102
595.472	95
595.681	98
595.89	91
596.1	88
596.309	79
596.518	109
596.727	93
596.937	95
597.146	103
597.355	101
597.564	102
597.774	80
597.983	89
598.192	98
598.401	84
598.61	91
598.819	105
599.028	85
599.237	103
599.446	107
599.655	106
599.864	87
600.073	89
600.282	96
600.491	86
600.7	95
600.909	95
601.118	106
601.327	108
601.536	121
601.745	113
601.953	115
602.162	108
602.371	113
602.58	101
602.789	100
602.997	125
603.206	105
603.415	105
603.623	116
603.832	122
604.041	124
604.249	104
604.458	108
604.666	96
604.875	96
605.084	104
605.292	119
605.501	108
605.709	140
605.918	123
606.126	116
606.334	105
606.543	122
606.751	117
606.96	114
607.168	105
607.376	111
607.585	103
607.793	122
608.001	120
608.21	114
608.418	113
608.626	114
608.834	102
609.043	124
609.251	107
609.459	118
609.667	133
609.875	123
610.083	124
610.291	121
610.499	130
610.707	118
610.916	130
611.124	118
611.332	121
611.54	116
611.748	131
611.955	126
612.163	109
612.371	110
612.579	112
612.787	115
612.995	122
613.203	123
613.411	106
613.618	135
613.826	126
614.034	112
614.242	118
614.449	122
614.657	126
614.865	114
615.072	120
615.28	116
615.488	123
615.695	111
615.903	119
616.111	128
616.318	122
616.526	105
616.733	124
616.941	115
617.148	116
617.356	116
617.563	124
617.771	110
617.978	123
618.185	109
618.393	127
618.6	115
618.807	108
619.015	118
619.222	126
619.429	122
619.637	123
619.844	118
620.051	116
620.258	112
620.466	124
620.673	123
620.88	106
621.087	123
621.294	109
621.501	98
621.708	102
621.915	116
622.122	116
622.329	109
622.536	111
622.743	105
622.95	126
623.157	111
623.364	108
623.571	108
623.778	111
623.985	110
624.192	112
624.399	114
624.606	129
624.812	123
625.019	114
625.226	103
625.433	109
625.639	104
625.846	109
626.053	119
626.259	98
626.466	94
626.673	85
626.879	92
627.086	117
627.293	124
627.499	104
627.706	106
627.912	103
628.119	91
628.325	117
628.532	111
628.738	114
628.945	118
629.151	120
629.357	107
629.564	108
629.77	117
629.976	109
630.183	102
630.389	90
630.595	112
630.802	127
631.008	110
631.214	114
631.42	103
631.627	105
631.833	97
632.039	107
632.245	120
632.451	90
632.657	101
632.863	124
633.069	107
633.275	107
633.481	109
633.688	116
633.893	104
634.099	93
634.305	98
634.511	109
634.717	106
634.923	101
635.129	109
635.335	116
635.541	84
635.747	110
635.952	99
636.158	110
636.364	113
636.57	90
636.775	108
636.981	103
637.187	95
637.392	112
637.598	107
637.804	104
638.009	104
638.215	93
638.421	104
638.626	104
638.832	96
639.037	104
639.243	112
639.448	108
639.654	115
639.859	110
640.065	102
640.27	119
640.475	116
640.681	105
640.886	106
641.091	90
641.297	102
641.502	103
641.707	102
641.913	117
642.118	94
642.323	96
642.528	111
642.733	107
642.939	100
643.144	107
643.349	104
643.554	99
643.759	103
643.964	101
644.169	102
644.374	103
644.579	112
644.784	102
644.989	108
645.194	87
645.399	96
645.604	104
645.809	113
646.014	106
646.219	107
646.423	109
646.628	106
646.833	107
647.038	121
647.243	115
647.447	102
647.652	105
647.857	118
648.062	102
648.266	79
648.471	106
648.676	116
648.88	99
649.085	95
649.289	100
649.494	100
649.698	104
649.903	108
650.107	97
650.312	97
650.516	95
650.721	94
650.925	103
651.13	96
651.334	102
651.539	98
651.743	98
651.947	104
652.152	113
652.356	98
652.56	102
652.764	100
652.969	88
653.173	103
653.377	114
653.581	87
653.785	94
653.99	98
654.194	86
654.398	94
654.602	103
654.806	103
655.01	106
655.214	95
655.418	93
655.622	91
655.826	95
656.03	85
656.234	99
656.438	90
656.642	103
656.846	106
657.049	88
657.253	99
657.457	93
657.661	89
657.865	91
658.068	89
658.272	78
658.476	105
658.68	73
658.883	89
659.087	85
659.291	84
659.494	94
659.698	83
659.901	81
660.105	88
660.309	80
660.512	80
660.716	92
660.919	96
661.123	84
661.326	99
661.53	92
661.733	84
661.936	99
662.14	86
662.343	83
662.546	82
662.75	88
662.953	91
663.156	75
663.36	74
663.563	87
663.766	89
663.969	87
664.173	84
664.376	90
664.579	81
664.782	73
664.985	90
665.188	74
665.391	76
665.594	88
665.797	83
666	88
666.203	86
666.406	86
666.609	68
666.812	73
667.015	90
667.218	94
667.421	79
667.624	88
667.827	89
668.03	82
668.232	88
668.435	80
668.638	77
668.841	93
669.043	86
669.246	92
669.449	87
669.651	83
669.854	80
670.057	94
670.259	75
670.462	82
670.665	92
670.867	71
671.07	103
671.272	72
671.475	84
671.677	84
671.88	70
672.082	67
672.284	67
672.487	85
672.689	78
672.892	80
