Data from Location6.07152019.Energy5.Lamp.07192019.3%Agarose_HRD10591_16-11-38-394.txt Node
Date: Fri Jul 19 16:11:38 EDT 2019
User: cochatt
Spectrometer: HR+D1059
Trigger mode: 1
Integration Time (sec): 1.000000E-1
Scans to average: 1
Electric dark correction enabled: true
Nonlinearity correction enabled: false
Boxcar width: 0
XAxis mode: Wavelengths
Number of Pixels in Spectrum: 2048
>>>>>Begin Spectral Data<<<<<
223.165	-18
223.4	-18
223.635	-18
223.869	-6
224.104	-28
224.338	-7
224.573	-15
224.808	-16
225.042	-1
225.277	-3
225.511	-8
225.746	3
225.98	6
226.215	4
226.449	22
226.683	15
226.918	18
227.152	34
227.387	30
227.621	39
227.856	40
228.09	38
228.324	53
228.559	53
228.793	55
229.027	40
229.262	74
229.496	68
229.73	55
229.964	78
230.199	59
230.433	96
230.667	73
230.901	68
231.136	71
231.37	90
231.604	81
231.838	76
232.072	75
232.306	77
232.541	75
232.775	86
233.009	82
233.243	76
233.477	74
233.711	82
233.945	82
234.179	74
234.413	88
234.647	77
234.881	79
235.115	75
235.349	87
235.583	79
235.817	73
236.051	81
236.285	79
236.519	70
236.753	69
236.987	70
237.221	59
237.455	92
237.689	90
237.922	73
238.156	62
238.39	68
238.624	95
238.858	58
239.091	77
239.325	74
239.559	87
239.793	72
240.027	66
240.26	74
240.494	76
240.728	84
240.961	64
241.195	67
241.429	89
241.662	85
241.896	71
242.13	87
242.363	66
242.597	63
242.83	66
243.064	74
243.298	76
243.531	98
243.765	89
243.998	67
244.232	88
244.465	82
244.699	79
244.932	71
245.166	72
245.399	81
245.633	83
245.866	82
246.099	83
246.333	80
246.566	85
246.8	72
247.033	87
247.266	71
247.5	76
247.733	81
247.966	91
248.2	75
248.433	87
248.666	82
248.899	83
249.133	82
249.366	80
249.599	78
249.832	78
250.066	80
250.299	79
250.532	76
250.765	76
250.998	79
251.231	75
251.465	86
251.698	81
251.931	81
252.164	67
252.397	76
252.63	85
252.863	80
253.096	78
253.329	80
253.562	89
253.795	84
254.028	73
254.261	82
254.494	69
254.727	80
254.96	71
255.193	76
255.426	79
255.659	71
255.892	73
256.124	76
256.357	84
256.59	63
256.823	74
257.056	71
257.289	79
257.521	75
257.754	82
257.987	76
258.22	65
258.452	78
258.685	80
258.918	81
259.151	81
259.383	90
259.616	86
259.849	70
260.081	91
260.314	91
260.547	94
260.779	81
261.012	80
261.244	59
261.477	82
261.71	87
261.942	81
262.175	83
262.407	77
262.64	73
262.872	81
263.105	84
263.337	74
263.57	71
263.802	78
264.035	81
264.267	70
264.499	79
264.732	75
264.964	80
265.197	78
265.429	77
265.661	72
265.894	80
266.126	80
266.358	80
266.591	90
266.823	91
267.055	75
267.287	85
267.52	73
267.752	88
267.984	81
268.216	89
268.448	76
268.681	82
268.913	83
269.145	88
269.377	71
269.609	76
269.841	86
270.073	87
270.306	90
270.538	64
270.77	84
271.002	90
271.234	88
271.466	76
271.698	84
271.93	83
272.162	91
272.394	88
272.626	85
272.858	78
273.09	85
273.322	94
273.553	86
273.785	89
274.017	82
274.249	79
274.481	75
274.713	95
274.945	87
275.176	68
275.408	79
275.64	100
275.872	86
276.104	73
276.335	80
276.567	87
276.799	80
277.031	67
277.262	82
277.494	87
277.726	80
277.957	91
278.189	76
278.421	88
278.652	78
278.884	92
279.115	73
279.347	86
279.579	77
279.81	83
280.042	74
280.273	83
280.505	72
280.736	80
280.968	90
281.199	70
281.431	90
281.662	67
281.894	97
282.125	78
282.356	91
282.588	81
282.819	76
283.051	76
283.282	79
283.513	97
283.745	95
283.976	74
284.207	91
284.439	92
284.67	83
284.901	79
285.132	88
285.364	74
285.595	79
285.826	74
286.057	86
286.288	72
286.52	84
286.751	93
286.982	87
287.213	98
287.444	96
287.675	79
287.906	76
288.138	82
288.369	87
288.6	90
288.831	78
289.062	76
289.293	79
289.524	85
289.755	79
289.986	82
290.217	88
290.448	92
290.679	95
290.91	84
291.141	98
291.371	79
291.602	80
291.833	78
292.064	94
292.295	91
292.526	82
292.757	89
292.987	86
293.218	76
293.449	100
293.68	83
293.91	92
294.141	87
294.372	102
294.603	74
294.833	79
295.064	82
295.295	89
295.525	89
295.756	71
295.987	84
296.217	82
296.448	80
296.679	84
296.909	91
297.14	71
297.37	74
297.601	96
297.831	90
298.062	88
298.292	87
298.523	92
298.753	83
298.984	75
299.214	83
299.445	84
299.675	82
299.905	78
300.136	89
300.366	85
300.597	82
300.827	88
301.057	99
301.288	80
301.518	86
301.748	75
301.979	74
302.209	78
302.439	74
302.669	88
302.9	88
303.13	77
303.36	63
303.59	86
303.82	87
304.051	86
304.281	84
304.511	102
304.741	83
304.971	85
305.201	87
305.431	83
305.661	87
305.891	95
306.121	100
306.352	86
306.582	81
306.812	74
307.042	88
307.272	89
307.502	74
307.731	80
307.961	89
308.191	90
308.421	99
308.651	94
308.881	84
309.111	89
309.341	81
309.571	81
309.8	77
310.03	86
310.26	98
310.49	79
310.72	87
310.949	81
311.179	93
311.409	87
311.639	83
311.868	77
312.098	82
312.328	73
312.557	91
312.787	84
313.017	79
313.246	79
313.476	89
313.706	99
313.935	73
314.165	76
314.394	80
314.624	90
314.853	72
315.083	90
315.312	72
315.542	82
315.771	88
316.001	85
316.23	89
316.46	85
316.689	72
316.919	76
317.148	111
317.377	89
317.607	90
317.836	84
318.065	95
318.295	90
318.524	89
318.753	74
318.983	75
319.212	82
319.441	84
319.67	75
319.9	79
320.129	83
320.358	70
320.587	82
320.816	106
321.046	66
321.275	83
321.504	81
321.733	89
321.962	86
322.191	86
322.42	80
322.649	80
322.878	70
323.108	84
323.337	66
323.566	80
323.795	86
324.024	102
324.253	88
324.482	74
324.71	83
324.939	98
325.168	98
325.397	80
325.626	87
325.855	84
326.084	85
326.313	81
326.542	96
326.77	88
326.999	81
327.228	96
327.457	79
327.686	86
327.914	77
328.143	78
328.372	88
328.6	78
328.829	76
329.058	94
329.287	79
329.515	71
329.744	75
329.972	92
330.201	80
330.43	92
330.658	87
330.887	83
331.115	95
331.344	86
331.572	91
331.801	87
332.03	93
332.258	81
332.486	91
332.715	84
332.943	84
333.172	86
333.4	80
333.629	94
333.857	90
334.085	90
334.314	95
334.542	80
334.771	89
334.999	98
335.227	82
335.455	94
335.684	76
335.912	90
336.14	93
336.369	92
336.597	87
336.825	81
337.053	84
337.281	92
337.51	87
337.738	79
337.966	69
338.194	91
338.422	80
338.65	88
338.878	80
339.106	72
339.334	93
339.562	74
339.79	88
340.018	73
340.246	85
340.474	85
340.702	86
340.93	82
341.158	79
341.386	83
341.614	82
341.842	86
342.07	84
342.298	96
342.526	87
342.754	88
342.981	84
343.209	88
343.437	83
343.665	69
343.893	76
344.12	89
344.348	89
344.576	87
344.804	89
345.031	84
345.259	94
345.487	87
345.714	74
345.942	92
346.17	85
346.397	84
346.625	81
346.853	81
347.08	86
347.308	78
347.535	74
347.763	84
347.99	103
348.218	82
348.445	80
348.673	91
348.9	87
349.128	99
349.355	97
349.583	77
349.81	75
350.037	95
350.265	85
350.492	80
350.72	75
350.947	90
351.174	76
351.402	94
351.629	82
351.856	90
352.083	91
352.311	84
352.538	85
352.765	84
352.992	91
353.22	102
353.447	84
353.674	89
353.901	81
354.128	82
354.355	77
354.583	92
354.81	91
355.037	88
355.264	77
355.491	82
355.718	91
355.945	83
356.172	80
356.399	78
356.626	86
356.853	88
357.08	78
357.307	76
357.534	84
357.761	72
357.988	81
358.215	96
358.441	94
358.668	84
358.895	82
359.122	89
359.349	73
359.576	77
359.802	76
360.029	80
360.256	87
360.483	87
360.709	82
360.936	86
361.163	72
361.39	67
361.616	88
361.843	85
362.07	79
362.296	93
362.523	73
362.749	85
362.976	86
363.203	94
363.429	92
363.656	86
363.882	81
364.109	93
364.335	80
364.562	97
364.788	96
365.015	104
365.241	85
365.468	79
365.694	82
365.92	82
366.147	79
366.373	77
366.599	87
366.826	89
367.052	80
367.278	86
367.505	88
367.731	95
367.957	76
368.184	81
368.41	88
368.636	100
368.862	85
369.089	104
369.315	74
369.541	65
369.767	87
369.993	94
370.219	105
370.445	94
370.672	91
370.898	91
371.124	96
371.35	92
371.576	92
371.802	101
372.028	98
372.254	89
372.48	84
372.706	90
372.932	80
373.158	98
373.384	79
373.61	94
373.835	82
374.061	92
374.287	99
374.513	94
374.739	79
374.965	96
375.191	108
375.416	95
375.642	88
375.868	92
376.094	105
376.319	98
376.545	85
376.771	88
376.997	81
377.222	90
377.448	85
377.674	105
377.899	104
378.125	97
378.35	101
378.576	102
378.802	99
379.027	103
379.253	100
379.478	86
379.704	105
379.929	79
380.155	95
380.38	107
380.606	97
380.831	82
381.057	105
381.282	97
381.507	110
381.733	92
381.958	110
382.184	94
382.409	98
382.634	104
382.86	108
383.085	109
383.31	109
383.535	89
383.761	97
383.986	90
384.211	98
384.436	99
384.662	105
384.887	89
385.112	98
385.337	105
385.562	100
385.787	115
386.013	97
386.238	103
386.463	84
386.688	89
386.913	97
387.138	102
387.363	96
387.588	104
387.813	106
388.038	93
388.263	103
388.488	118
388.713	103
388.938	103
389.163	111
389.387	97
389.612	93
389.837	105
390.062	116
390.287	110
390.512	113
390.736	101
390.961	107
391.186	112
391.411	118
391.636	99
391.86	104
392.085	111
392.31	123
392.534	107
392.759	111
392.984	104
393.208	104
393.433	106
393.658	91
393.882	103
394.107	110
394.331	104
394.556	107
394.78	124
395.005	93
395.229	106
395.454	110
395.678	104
395.903	111
396.127	108
396.352	94
396.576	101
396.801	104
397.025	100
397.249	97
397.474	113
397.698	122
397.922	134
398.147	116
398.371	111
398.595	116
398.82	98
399.044	112
399.268	116
399.492	108
399.717	108
399.941	118
400.165	119
400.389	115
400.613	105
400.837	115
401.062	115
401.286	110
401.51	99
401.734	111
401.958	105
402.182	121
402.406	113
402.63	123
402.854	106
403.078	112
403.302	120
403.526	114
403.75	107
403.974	105
404.198	120
404.422	124
404.645	110
404.869	115
405.093	124
405.317	119
405.541	121
405.765	119
405.988	131
406.212	136
406.436	134
406.66	101
406.883	126
407.107	122
407.331	117
407.555	112
407.778	127
408.002	115
408.226	112
408.449	113
408.673	118
408.896	111
409.12	109
409.344	106
409.567	110
409.791	134
410.014	126
410.238	133
410.461	121
410.685	118
410.908	129
411.132	140
411.355	114
411.578	125
411.802	121
412.025	126
412.249	138
412.472	110
412.695	114
412.919	130
413.142	123
413.365	118
413.589	120
413.812	143
414.035	124
414.258	121
414.482	128
414.705	138
414.928	128
415.151	139
415.374	124
415.597	120
415.821	127
416.044	128
416.267	122
416.49	133
416.713	140
416.936	131
417.159	130
417.382	132
417.605	123
417.828	134
418.051	135
418.274	127
418.497	147
418.72	127
418.943	155
419.166	134
419.389	133
419.611	145
419.834	131
420.057	139
420.28	130
420.503	140
420.726	151
420.948	121
421.171	137
421.394	139
421.617	145
421.839	158
422.062	135
422.285	134
422.507	148
422.73	134
422.953	127
423.175	133
423.398	128
423.621	128
423.843	131
424.066	141
424.288	134
424.511	130
424.733	144
424.956	137
425.178	132
425.401	139
425.623	150
425.846	122
426.068	117
426.291	130
426.513	126
426.735	126
426.958	144
427.18	130
427.402	135
427.625	137
427.847	127
428.069	130
428.292	149
428.514	137
428.736	152
428.958	141
429.181	133
429.403	142
429.625	138
429.847	123
430.069	137
430.292	132
430.514	118
430.736	129
430.958	126
431.18	106
431.402	124
431.624	126
431.846	119
432.068	101
432.29	97
432.512	113
432.734	134
432.956	128
433.178	144
433.4	123
433.622	134
433.844	144
434.066	126
434.287	122
434.509	110
434.731	100
434.953	115
435.175	125
435.397	129
435.618	111
435.84	111
436.062	126
436.284	122
436.505	138
436.727	130
436.949	124
437.17	139
437.392	136
437.614	131
437.835	110
438.057	116
438.278	135
438.5	128
438.721	131
438.943	139
439.165	136
439.386	135
439.608	155
439.829	147
440.05	151
440.272	151
440.493	148
440.715	141
440.936	154
441.158	155
441.379	150
441.6	149
441.822	148
442.043	159
442.264	149
442.486	126
442.707	151
442.928	140
443.149	141
443.371	136
443.592	136
443.813	139
444.034	140
444.255	145
444.476	140
444.698	154
444.919	153
445.14	274
445.361	207
445.582	158
445.803	153
446.024	140
446.245	158
446.466	155
446.687	154
446.908	164
447.129	154
447.35	164
447.571	154
447.792	146
448.013	151
448.234	144
448.455	151
448.675	153
448.896	153
449.117	151
449.338	150
449.559	128
449.779	144
450	144
450.221	121
450.442	148
450.662	138
450.883	153
451.104	139
451.324	133
451.545	131
451.766	127
451.986	138
452.207	138
452.428	129
452.648	131
452.869	119
453.089	115
453.31	115
453.53	119
453.751	118
453.971	102
454.192	110
454.412	106
454.633	120
454.853	115
455.073	127
455.294	120
455.514	137
455.734	122
455.955	123
456.175	121
456.395	109
456.616	119
456.836	110
457.056	104
457.276	107
457.497	114
457.717	98
457.937	112
458.157	112
458.377	103
458.598	116
458.818	96
459.038	77
459.258	91
459.478	95
459.698	97
459.918	101
460.138	99
460.358	93
460.578	124
460.798	108
461.018	106
461.238	131
461.458	124
461.678	114
461.898	114
462.118	132
462.338	146
462.558	126
462.777	112
462.997	116
463.217	125
463.437	118
463.657	110
463.876	116
464.096	114
464.316	124
464.536	116
464.755	110
464.975	114
465.195	111
465.414	113
465.634	117
465.854	131
466.073	128
466.293	123
466.512	121
466.732	140
466.951	139
467.171	141
467.391	133
467.61	139
467.829	131
468.049	136
468.268	137
468.488	137
468.707	139
468.927	135
469.146	137
469.365	143
469.585	138
469.804	126
470.023	131
470.243	138
470.462	138
470.681	139
470.901	147
471.12	155
471.339	152
471.558	146
471.777	139
471.997	126
472.216	137
472.435	123
472.654	117
472.873	117
473.092	129
473.311	127
473.53	121
473.749	128
473.968	129
474.187	122
474.406	128
474.625	141
474.844	130
475.063	127
475.282	129
475.501	119
475.72	121
475.939	112
476.158	128
476.377	139
476.596	136
476.814	112
477.033	116
477.252	118
477.471	133
477.69	130
477.908	144
478.127	160
478.346	127
478.564	116
478.783	132
479.002	142
479.22	135
479.439	146
479.658	134
479.876	129
480.095	103
480.313	111
480.532	120
480.751	101
480.969	105
481.188	96
481.406	84
481.624	81
481.843	97
482.061	106
482.28	102
482.498	129
482.717	115
482.935	123
483.153	142
483.372	148
483.59	158
483.808	140
484.027	139
484.245	126
484.463	141
484.681	171
484.9	158
485.118	140
485.336	137
485.554	108
485.772	113
485.99	110
486.209	109
486.427	101
486.645	127
486.863	135
487.081	141
487.299	140
487.517	155
487.735	182
487.953	195
488.171	176
488.389	184
488.607	169
488.825	154
489.043	140
489.261	135
489.479	146
489.696	156
489.914	144
490.132	141
490.35	147
490.568	172
490.786	164
491.003	177
491.221	195
491.439	191
491.657	209
491.874	219
492.092	238
492.31	266
492.527	228
492.745	213
492.963	213
493.18	204
493.398	198
493.615	184
493.833	183
494.05	167
494.268	170
494.485	189
494.703	176
494.92	185
495.138	184
495.355	201
495.573	190
495.79	180
496.008	174
496.225	179
496.442	193
496.66	169
496.877	172
497.094	165
497.312	169
497.529	151
497.746	158
497.963	150
498.181	143
498.398	124
498.615	124
498.832	123
499.049	129
499.267	124
499.484	127
499.701	139
499.918	144
500.135	142
500.352	130
500.569	134
500.786	137
501.003	156
501.22	165
501.437	135
501.654	127
501.871	140
502.088	148
502.305	121
502.522	137
502.739	130
502.956	131
503.172	143
503.389	128
503.606	133
503.823	136
504.04	130
504.256	125
504.473	124
504.69	134
504.907	121
505.123	127
505.34	122
505.557	121
505.773	120
505.99	103
506.207	132
506.423	119
506.64	123
506.856	123
507.073	124
507.289	114
507.506	115
507.722	125
507.939	107
508.155	127
508.372	111
508.588	110
508.805	109
509.021	108
509.238	95
509.454	93
509.67	100
509.887	103
510.103	85
510.319	91
510.536	105
510.752	89
510.968	83
511.184	90
511.401	93
511.617	80
511.833	104
512.049	87
512.265	84
512.481	82
512.698	105
512.914	79
513.13	108
513.346	86
513.562	88
513.778	98
513.994	89
514.21	93
514.426	80
514.642	101
514.858	95
515.074	111
515.29	92
515.506	104
515.721	91
515.937	91
516.153	87
516.369	91
516.585	83
516.801	90
517.016	97
517.232	100
517.448	94
517.664	114
517.879	88
518.095	93
518.311	90
518.527	98
518.742	89
518.958	110
519.173	104
519.389	120
519.605	105
519.82	113
520.036	103
520.251	109
520.467	105
520.682	109
520.898	73
521.113	78
521.329	90
521.544	74
521.76	87
521.975	95
522.19	89
522.406	111
522.621	111
522.836	97
523.052	115
523.267	101
523.482	120
523.698	98
523.913	123
524.128	115
524.343	121
524.559	126
524.774	117
524.989	130
525.204	99
525.419	107
525.634	116
525.849	114
526.064	111
526.28	107
526.495	96
526.71	83
526.925	95
527.14	82
527.355	79
527.57	77
527.785	88
527.999	98
528.214	110
528.429	122
528.644	137
528.859	148
529.074	150
529.289	179
529.503	146
529.718	141
529.933	126
530.148	117
530.363	114
530.577	89
530.792	88
531.007	96
531.221	88
531.436	90
531.651	82
531.865	71
532.08	81
532.295	86
532.509	91
532.724	83
532.938	98
533.153	102
533.367	111
533.582	128
533.796	125
534.011	114
534.225	115
534.44	97
534.654	108
534.868	107
535.083	96
535.297	103
535.511	116
535.726	106
535.94	107
536.154	99
536.369	110
536.583	97
536.797	97
537.011	96
537.225	76
537.44	95
537.654	85
537.868	99
538.082	103
538.296	96
538.51	92
538.724	118
538.938	114
539.153	132
539.367	124
539.581	123
539.795	96
540.009	93
540.222	104
540.436	118
540.65	123
540.864	132
541.078	147
541.292	151
541.506	165
541.72	178
541.934	191
542.147	197
542.361	199
542.575	178
542.789	169
543.002	156
543.216	140
543.43	138
543.644	146
543.857	150
544.071	158
544.285	172
544.498	170
544.712	156
544.925	166
545.139	152
545.352	170
545.566	166
545.779	178
545.993	177
546.206	182
546.42	184
546.633	171
546.847	164
547.06	178
547.274	170
547.487	171
547.7	171
547.914	170
548.127	172
548.34	155
548.554	168
548.767	172
548.98	153
549.193	153
549.407	161
549.62	159
549.833	160
550.046	160
550.259	164
550.473	156
550.686	143
550.899	142
551.112	156
551.325	161
551.538	137
551.751	136
551.964	131
552.177	129
552.39	142
552.603	150
552.816	150
553.029	158
553.242	168
553.455	176
553.667	163
553.88	149
554.093	167
554.306	161
554.519	171
554.732	145
554.944	138
555.157	147
555.37	158
555.583	148
555.795	151
556.008	140
556.221	132
556.433	145
556.646	141
556.859	144
557.071	133
557.284	160
557.496	144
557.709	140
557.921	155
558.134	140
558.346	143
558.559	136
558.771	130
558.984	129
559.196	126
559.409	126
559.621	147
559.833	140
560.046	123
560.258	126
560.47	132
560.683	144
560.895	135
561.107	142
561.32	136
561.532	130
561.744	135
561.956	135
562.168	127
562.381	133
562.593	127
562.805	132
563.017	132
563.229	128
563.441	122
563.653	126
563.865	126
564.077	121
564.289	130
564.501	114
564.713	124
564.925	125
565.137	116
565.349	124
565.561	120
565.773	123
565.985	128
566.197	126
566.408	123
566.62	129
566.832	113
567.044	119
567.255	124
567.467	124
567.679	122
567.891	114
568.102	110
568.314	99
568.526	106
568.737	86
568.949	81
569.161	92
569.372	84
569.584	87
569.795	88
570.007	93
570.218	88
570.43	98
570.641	90
570.853	108
571.064	101
571.276	102
571.487	105
571.698	117
571.91	102
572.121	112
572.333	110
572.544	92
572.755	87
572.966	89
573.178	102
573.389	83
573.6	91
573.811	101
574.023	77
574.234	83
574.445	93
574.656	76
574.867	99
575.078	105
575.289	96
575.501	90
575.712	81
575.923	95
576.134	97
576.345	92
576.556	95
576.767	107
576.978	112
577.188	86
577.399	95
577.61	96
577.821	89
578.032	115
578.243	98
578.454	99
578.665	113
578.875	94
579.086	87
579.297	79
579.508	88
579.718	87
579.929	89
580.14	84
580.35	98
580.561	104
580.772	96
580.982	91
581.193	102
581.403	101
581.614	90
581.825	89
582.035	98
582.246	103
582.456	104
582.667	97
582.877	84
583.087	89
583.298	89
583.508	95
583.719	91
583.929	91
584.139	94
584.35	89
584.56	74
584.77	106
584.981	79
585.191	77
585.401	93
585.611	82
585.821	97
586.032	92
586.242	86
586.452	76
586.662	82
586.872	86
587.082	95
587.292	73
587.502	93
587.713	87
587.923	88
588.133	88
588.343	72
588.553	86
588.762	70
588.972	91
589.182	88
589.392	79
589.602	89
589.812	84
590.022	84
590.232	79
590.441	83
590.651	73
590.861	74
591.071	83
591.281	91
591.49	86
591.7	88
591.91	74
592.119	81
592.329	78
592.539	80
592.748	85
592.958	91
593.167	88
593.377	77
593.587	93
593.796	90
594.006	88
594.215	87
594.424	75
594.634	86
594.843	99
595.053	91
595.262	96
595.472	89
595.681	88
595.89	92
596.1	84
596.309	89
596.518	92
596.727	101
596.937	112
597.146	102
597.355	99
597.564	99
597.774	92
597.983	93
598.192	97
598.401	87
598.61	95
598.819	95
599.028	103
599.237	101
599.446	100
599.655	92
599.864	95
600.073	95
600.282	82
600.491	96
600.7	76
600.909	85
601.118	91
601.327	101
601.536	102
601.745	83
601.953	98
602.162	115
602.371	107
602.58	114
602.789	90
602.997	102
603.206	108
603.415	107
603.623	114
603.832	111
604.041	115
604.249	96
604.458	94
604.666	88
604.875	113
605.084	94
605.292	98
605.501	100
605.709	119
605.918	112
606.126	123
606.334	112
606.543	115
606.751	110
606.96	128
607.168	112
607.376	99
607.585	106
607.793	111
608.001	110
608.21	117
608.418	104
608.626	113
608.834	100
609.043	116
609.251	104
609.459	120
609.667	117
609.875	116
610.083	117
610.291	118
610.499	118
610.707	116
610.916	116
611.124	122
611.332	103
611.54	108
611.748	121
611.955	112
612.163	121
612.371	103
612.579	104
612.787	115
612.995	116
613.203	116
613.411	119
613.618	116
613.826	111
614.034	108
614.242	117
614.449	112
614.657	115
614.865	107
615.072	110
615.28	108
615.488	107
615.695	105
615.903	115
616.111	112
616.318	118
616.526	112
616.733	124
616.941	110
617.148	116
617.356	114
617.563	115
617.771	116
617.978	117
618.185	124
618.393	119
618.6	104
618.807	120
619.015	114
619.222	120
619.429	109
619.637	114
619.844	90
620.051	115
620.258	99
620.466	98
620.673	110
620.88	103
621.087	113
621.294	101
621.501	123
621.708	115
621.915	104
622.122	121
622.329	119
622.536	112
622.743	110
622.95	109
623.157	112
623.364	104
623.571	123
623.778	116
623.985	106
624.192	112
624.399	122
624.606	112
624.812	114
625.019	105
625.226	98
625.433	99
625.639	94
625.846	99
626.053	95
626.259	87
626.466	102
626.673	100
626.879	105
627.086	90
627.293	103
627.499	99
627.706	99
627.912	113
628.119	101
628.325	122
628.532	105
628.738	101
628.945	100
629.151	116
629.357	100
629.564	100
629.77	94
629.976	115
630.183	114
630.389	102
630.595	113
630.802	106
631.008	97
631.214	108
631.42	108
631.627	91
631.833	100
632.039	95
632.245	99
632.451	114
632.657	115
632.863	85
633.069	107
633.275	102
633.481	99
633.688	98
633.893	102
634.099	103
634.305	94
634.511	92
634.717	105
634.923	92
635.129	99
635.335	82
635.541	96
635.747	87
635.952	97
636.158	97
636.364	116
636.57	106
636.775	103
636.981	105
637.187	104
637.392	107
637.598	96
637.804	102
638.009	106
638.215	101
638.421	102
638.626	115
638.832	98
639.037	97
639.243	112
639.448	110
639.654	91
639.859	108
640.065	86
640.27	102
640.475	106
640.681	104
640.886	107
641.091	104
641.297	117
641.502	107
641.707	104
641.913	100
642.118	88
642.323	98
642.528	106
642.733	88
642.939	91
643.144	92
643.349	90
643.554	93
643.759	98
643.964	107
644.169	98
644.374	95
644.579	94
644.784	91
644.989	103
645.194	98
645.399	106
645.604	89
645.809	90
646.014	112
646.219	76
646.423	107
646.628	103
646.833	114
647.038	90
647.243	106
647.447	99
647.652	102
647.857	95
648.062	118
648.266	106
648.471	104
648.676	112
648.88	110
649.085	99
649.289	94
649.494	103
649.698	110
649.903	90
650.107	94
650.312	112
650.516	99
650.721	99
650.925	89
651.13	95
651.334	93
651.539	90
651.743	96
651.947	100
652.152	94
652.356	86
652.56	106
652.764	99
652.969	86
653.173	107
653.377	91
653.581	99
653.785	100
653.99	81
654.194	93
654.398	111
654.602	100
654.806	94
655.01	95
655.214	92
655.418	92
655.622	90
655.826	95
656.03	97
656.234	85
656.438	103
656.642	93
656.846	96
657.049	95
657.253	94
657.457	83
657.661	61
657.865	89
658.068	80
658.272	84
658.476	80
658.68	89
658.883	80
659.087	85
659.291	82
659.494	94
659.698	98
659.901	91
660.105	73
660.309	90
660.512	86
660.716	101
660.919	77
661.123	80
661.326	86
661.53	78
661.733	68
661.936	98
662.14	94
662.343	87
662.546	85
662.75	92
662.953	82
663.156	76
663.36	83
663.563	77
663.766	94
663.969	82
664.173	79
664.376	90
664.579	90
664.782	82
664.985	97
665.188	81
665.391	69
665.594	86
665.797	64
666	81
666.203	79
666.406	80
666.609	88
666.812	82
667.015	74
667.218	89
667.421	85
667.624	81
667.827	77
668.03	82
668.232	73
668.435	73
668.638	81
668.841	83
669.043	82
669.246	78
669.449	78
669.651	85
669.854	69
670.057	98
670.259	80
670.462	79
670.665	72
670.867	80
671.07	84
671.272	81
671.475	83
671.677	63
671.88	74
672.082	83
672.284	80
672.487	86
672.689	77
672.892	78
