Data from Location6.07152019.Energy5.Lamp.07192019.3%Agarose_HRD10591_16-11-18-395.txt Node
Date: Fri Jul 19 16:11:18 EDT 2019
User: cochatt
Spectrometer: HR+D1059
Trigger mode: 1
Integration Time (sec): 1.000000E-1
Scans to average: 1
Electric dark correction enabled: true
Nonlinearity correction enabled: false
Boxcar width: 0
XAxis mode: Wavelengths
Number of Pixels in Spectrum: 2048
>>>>>Begin Spectral Data<<<<<
223.165	-19
223.4	-19
223.635	-19
223.869	-17
224.104	-22
224.338	0
224.573	-4
224.808	-11
225.042	-1
225.277	-10
225.511	6
225.746	-5
225.98	-3
226.215	10
226.449	14
226.683	25
226.918	7
227.152	30
227.387	33
227.621	17
227.856	48
228.09	61
228.324	50
228.559	62
228.793	63
229.027	76
229.262	74
229.496	82
229.73	76
229.964	72
230.199	70
230.433	76
230.667	97
230.901	87
231.136	72
231.37	71
231.604	81
231.838	84
232.072	89
232.306	82
232.541	88
232.775	76
233.009	90
233.243	83
233.477	84
233.711	83
233.945	86
234.179	87
234.413	84
234.647	90
234.881	70
235.115	80
235.349	85
235.583	81
235.817	90
236.051	84
236.285	69
236.519	80
236.753	86
236.987	78
237.221	88
237.455	76
237.689	59
237.922	87
238.156	80
238.39	74
238.624	79
238.858	67
239.091	87
239.325	75
239.559	82
239.793	79
240.027	80
240.26	72
240.494	96
240.728	84
240.961	96
241.195	73
241.429	78
241.662	75
241.896	75
242.13	76
242.363	84
242.597	86
242.83	88
243.064	77
243.298	84
243.531	80
243.765	77
243.998	78
244.232	79
244.465	86
244.699	66
244.932	77
245.166	84
245.399	95
245.633	79
245.866	85
246.099	82
246.333	66
246.566	91
246.8	80
247.033	64
247.266	85
247.5	85
247.733	89
247.966	88
248.2	78
248.433	66
248.666	78
248.899	82
249.133	95
249.366	83
249.599	75
249.832	76
250.066	85
250.299	88
250.532	77
250.765	85
250.998	74
251.231	79
251.465	88
251.698	84
251.931	85
252.164	77
252.397	79
252.63	76
252.863	89
253.096	76
253.329	76
253.562	73
253.795	83
254.028	84
254.261	82
254.494	82
254.727	90
254.96	80
255.193	77
255.426	90
255.659	77
255.892	94
256.124	79
256.357	89
256.59	90
256.823	89
257.056	80
257.289	95
257.521	81
257.754	65
257.987	77
258.22	80
258.452	87
258.685	95
258.918	72
259.151	76
259.383	93
259.616	87
259.849	94
260.081	89
260.314	86
260.547	71
260.779	88
261.012	87
261.244	79
261.477	82
261.71	70
261.942	79
262.175	86
262.407	92
262.64	90
262.872	86
263.105	75
263.337	72
263.57	88
263.802	83
264.035	94
264.267	81
264.499	69
264.732	93
264.964	83
265.197	81
265.429	83
265.661	80
265.894	82
266.126	87
266.358	90
266.591	87
266.823	88
267.055	87
267.287	90
267.52	88
267.752	92
267.984	91
268.216	87
268.448	89
268.681	90
268.913	96
269.145	96
269.377	94
269.609	68
269.841	94
270.073	72
270.306	76
270.538	76
270.77	75
271.002	95
271.234	83
271.466	92
271.698	83
271.93	89
272.162	72
272.394	97
272.626	90
272.858	80
273.09	81
273.322	84
273.553	93
273.785	78
274.017	89
274.249	78
274.481	92
274.713	82
274.945	75
275.176	93
275.408	86
275.64	90
275.872	81
276.104	87
276.335	74
276.567	80
276.799	88
277.031	99
277.262	91
277.494	91
277.726	89
277.957	88
278.189	75
278.421	81
278.652	84
278.884	75
279.115	71
279.347	77
279.579	89
279.81	91
280.042	81
280.273	84
280.505	80
280.736	91
280.968	88
281.199	87
281.431	86
281.662	87
281.894	82
282.125	85
282.356	84
282.588	89
282.819	87
283.051	87
283.282	100
283.513	94
283.745	95
283.976	87
284.207	88
284.439	81
284.67	95
284.901	94
285.132	90
285.364	82
285.595	77
285.826	87
286.057	84
286.288	83
286.52	97
286.751	97
286.982	80
287.213	92
287.444	75
287.675	79
287.906	85
288.138	95
288.369	83
288.6	104
288.831	84
289.062	89
289.293	90
289.524	83
289.755	91
289.986	81
290.217	100
290.448	83
290.679	96
290.91	76
291.141	89
291.371	76
291.602	80
291.833	103
292.064	93
292.295	93
292.526	82
292.757	76
292.987	77
293.218	83
293.449	93
293.68	97
293.91	94
294.141	95
294.372	78
294.603	86
294.833	77
295.064	80
295.295	84
295.525	90
295.756	85
295.987	83
296.217	93
296.448	78
296.679	90
296.909	76
297.14	87
297.37	86
297.601	87
297.831	85
298.062	83
298.292	87
298.523	81
298.753	70
298.984	96
299.214	88
299.445	86
299.675	82
299.905	84
300.136	106
300.366	80
300.597	86
300.827	95
301.057	88
301.288	84
301.518	82
301.748	103
301.979	86
302.209	84
302.439	92
302.669	99
302.9	77
303.13	91
303.36	92
303.59	84
303.82	75
304.051	89
304.281	86
304.511	94
304.741	99
304.971	85
305.201	85
305.431	88
305.661	93
305.891	96
306.121	87
306.352	100
306.582	88
306.812	84
307.042	93
307.272	79
307.502	80
307.731	97
307.961	79
308.191	93
308.421	84
308.651	88
308.881	78
309.111	91
309.341	95
309.571	84
309.8	87
310.03	90
310.26	99
310.49	93
310.72	77
310.949	82
311.179	101
311.409	90
311.639	87
311.868	84
312.098	84
312.328	85
312.557	88
312.787	94
313.017	90
313.246	80
313.476	95
313.706	85
313.935	79
314.165	99
314.394	97
314.624	79
314.853	74
315.083	82
315.312	80
315.542	89
315.771	80
316.001	85
316.23	89
316.46	98
316.689	88
316.919	88
317.148	84
317.377	93
317.607	82
317.836	75
318.065	82
318.295	97
318.524	97
318.753	72
318.983	80
319.212	92
319.441	85
319.67	92
319.9	84
320.129	88
320.358	75
320.587	92
320.816	86
321.046	93
321.275	82
321.504	96
321.733	89
321.962	90
322.191	89
322.42	94
322.649	80
322.878	96
323.108	82
323.337	89
323.566	91
323.795	90
324.024	78
324.253	92
324.482	78
324.71	89
324.939	84
325.168	91
325.397	86
325.626	89
325.855	94
326.084	88
326.313	71
326.542	68
326.77	87
326.999	95
327.228	87
327.457	91
327.686	91
327.914	92
328.143	79
328.372	98
328.6	100
328.829	88
329.058	86
329.287	78
329.515	84
329.744	77
329.972	83
330.201	89
330.43	76
330.658	64
330.887	88
331.115	90
331.344	73
331.572	91
331.801	87
332.03	101
332.258	85
332.486	81
332.715	92
332.943	102
333.172	91
333.4	89
333.629	83
333.857	88
334.085	97
334.314	85
334.542	84
334.771	88
334.999	87
335.227	82
335.455	86
335.684	84
335.912	79
336.14	81
336.369	93
336.597	84
336.825	80
337.053	86
337.281	84
337.51	86
337.738	85
337.966	84
338.194	77
338.422	88
338.65	88
338.878	79
339.106	85
339.334	104
339.562	87
339.79	80
340.018	83
340.246	84
340.474	77
340.702	94
340.93	77
341.158	83
341.386	82
341.614	72
341.842	101
342.07	79
342.298	92
342.526	95
342.754	87
342.981	103
343.209	102
343.437	96
343.665	81
343.893	82
344.12	84
344.348	70
344.576	86
344.804	87
345.031	91
345.259	78
345.487	89
345.714	78
345.942	85
346.17	87
346.397	85
346.625	82
346.853	91
347.08	82
347.308	96
347.535	90
347.763	83
347.99	76
348.218	98
348.445	83
348.673	78
348.9	94
349.128	99
349.355	90
349.583	91
349.81	95
350.037	71
350.265	85
350.492	66
350.72	90
350.947	86
351.174	91
351.402	79
351.629	90
351.856	76
352.083	92
352.311	90
352.538	76
352.765	96
352.992	87
353.22	89
353.447	101
353.674	97
353.901	94
354.128	91
354.355	96
354.583	99
354.81	87
355.037	80
355.264	78
355.491	67
355.718	85
355.945	95
356.172	88
356.399	78
356.626	87
356.853	97
357.08	97
357.307	92
357.534	96
357.761	82
357.988	80
358.215	87
358.441	92
358.668	90
358.895	88
359.122	98
359.349	82
359.576	91
359.802	87
360.029	80
360.256	90
360.483	79
360.709	82
360.936	85
361.163	92
361.39	87
361.616	80
361.843	88
362.07	89
362.296	84
362.523	88
362.749	91
362.976	88
363.203	80
363.429	79
363.656	95
363.882	85
364.109	91
364.335	101
364.562	88
364.788	97
365.015	87
365.241	86
365.468	72
365.694	78
365.92	78
366.147	84
366.373	93
366.599	101
366.826	95
367.052	81
367.278	87
367.505	89
367.731	98
367.957	84
368.184	85
368.41	80
368.636	95
368.862	108
369.089	78
369.315	93
369.541	88
369.767	82
369.993	94
370.219	101
370.445	101
370.672	99
370.898	95
371.124	92
371.35	103
371.576	76
371.802	91
372.028	94
372.254	98
372.48	102
372.706	103
372.932	86
373.158	106
373.384	106
373.61	94
373.835	98
374.061	94
374.287	99
374.513	106
374.739	92
374.965	86
375.191	93
375.416	98
375.642	109
375.868	102
376.094	92
376.319	95
376.545	77
376.771	82
376.997	92
377.222	93
377.448	87
377.674	102
377.899	93
378.125	95
378.35	104
378.576	125
378.802	90
379.027	89
379.253	99
379.478	99
379.704	94
379.929	95
380.155	95
380.38	95
380.606	98
380.831	99
381.057	78
381.282	86
381.507	92
381.733	85
381.958	111
382.184	95
382.409	89
382.634	102
382.86	107
383.085	101
383.31	97
383.535	98
383.761	95
383.986	104
384.211	117
384.436	114
384.662	98
384.887	99
385.112	94
385.337	121
385.562	94
385.787	90
386.013	107
386.238	100
386.463	102
386.688	101
386.913	93
387.138	101
387.363	92
387.588	91
387.813	104
388.038	103
388.263	101
388.488	104
388.713	121
388.938	105
389.163	120
389.387	107
389.612	111
389.837	102
390.062	101
390.287	104
390.512	108
390.736	111
390.961	115
391.186	118
391.411	110
391.636	90
391.86	122
392.085	111
392.31	114
392.534	105
392.759	125
392.984	109
393.208	115
393.433	119
393.658	123
393.882	111
394.107	101
394.331	99
394.556	109
394.78	113
395.005	120
395.229	116
395.454	100
395.678	114
395.903	96
396.127	111
396.352	126
396.576	112
396.801	114
397.025	106
397.249	113
397.474	110
397.698	116
397.922	114
398.147	117
398.371	111
398.595	111
398.82	111
399.044	106
399.268	118
399.492	126
399.717	127
399.941	111
400.165	122
400.389	115
400.613	101
400.837	111
401.062	123
401.286	120
401.51	104
401.734	121
401.958	122
402.182	119
402.406	107
402.63	104
402.854	125
403.078	123
403.302	130
403.526	109
403.75	115
403.974	132
404.198	126
404.422	124
404.645	112
404.869	116
405.093	106
405.317	116
405.541	125
405.765	128
405.988	120
406.212	137
406.436	110
406.66	136
406.883	122
407.107	122
407.331	114
407.555	119
407.778	129
408.002	128
408.226	123
408.449	123
408.673	131
408.896	129
409.12	116
409.344	130
409.567	112
409.791	118
410.014	134
410.238	125
410.461	130
410.685	124
410.908	124
411.132	130
411.355	119
411.578	116
411.802	137
412.025	138
412.249	119
412.472	132
412.695	122
412.919	128
413.142	135
413.365	118
413.589	125
413.812	122
414.035	121
414.258	130
414.482	132
414.705	117
414.928	140
415.151	137
415.374	133
415.597	121
415.821	138
416.044	112
416.267	118
416.49	130
416.713	128
416.936	135
417.159	141
417.382	132
417.605	137
417.828	148
418.051	130
418.274	139
418.497	145
418.72	136
418.943	134
419.166	136
419.389	138
419.611	151
419.834	124
420.057	134
420.28	138
420.503	127
420.726	143
420.948	123
421.171	145
421.394	138
421.617	158
421.839	147
422.062	149
422.285	147
422.507	132
422.73	125
422.953	140
423.175	135
423.398	135
423.621	132
423.843	135
424.066	136
424.288	143
424.511	136
424.733	137
424.956	130
425.178	152
425.401	141
425.623	134
425.846	143
426.068	142
426.291	129
426.513	132
426.735	141
426.958	139
427.18	122
427.402	126
427.625	140
427.847	143
428.069	133
428.292	127
428.514	153
428.736	117
428.958	130
429.181	142
429.403	135
429.625	153
429.847	142
430.069	141
430.292	131
430.514	110
430.736	132
430.958	141
431.18	144
431.402	130
431.624	141
431.846	121
432.068	98
432.29	107
432.512	101
432.734	140
432.956	146
433.178	139
433.4	152
433.622	142
433.844	128
434.066	117
434.287	118
434.509	110
434.731	102
434.953	122
435.175	136
435.397	128
435.618	123
435.84	118
436.062	117
436.284	125
436.505	122
436.727	145
436.949	134
437.17	152
437.392	131
437.614	126
437.835	116
438.057	121
438.278	117
438.5	130
438.721	143
438.943	139
439.165	136
439.386	142
439.608	166
439.829	159
440.05	158
440.272	147
440.493	157
440.715	143
440.936	163
441.158	143
441.379	150
441.6	146
441.822	158
442.043	161
442.264	154
442.486	146
442.707	143
442.928	144
443.149	136
443.371	149
443.592	140
443.813	118
444.034	144
444.255	157
444.476	151
444.698	157
444.919	160
445.14	276
445.361	214
445.582	158
445.803	163
446.024	156
446.245	160
446.466	157
446.687	170
446.908	176
447.129	138
447.35	152
447.571	168
447.792	163
448.013	145
448.234	136
448.455	148
448.675	157
448.896	157
449.117	136
449.338	148
449.559	142
449.779	162
450	151
450.221	146
450.442	152
450.662	145
450.883	136
451.104	151
451.324	147
451.545	157
451.766	134
451.986	148
452.207	128
452.428	129
452.648	133
452.869	126
453.089	124
453.31	132
453.53	112
453.751	127
453.971	110
454.192	107
454.412	124
454.633	122
454.853	127
455.073	134
455.294	132
455.514	120
455.734	127
455.955	130
456.175	122
456.395	114
456.616	124
456.836	101
457.056	122
457.276	113
457.497	102
457.717	118
457.937	115
458.157	104
458.377	118
458.598	110
458.818	114
459.038	110
459.258	79
459.478	77
459.698	79
459.918	99
460.138	122
460.358	114
460.578	119
460.798	128
461.018	126
461.238	123
461.458	123
461.678	116
461.898	116
462.118	122
462.338	108
462.558	127
462.777	111
462.997	109
463.217	122
463.437	116
463.657	111
463.876	115
464.096	101
464.316	95
464.536	115
464.755	112
464.975	123
465.195	114
465.414	144
465.634	126
465.854	131
466.073	125
466.293	126
466.512	127
466.732	143
466.951	142
467.171	120
467.391	123
467.61	147
467.829	146
468.049	144
468.268	152
468.488	135
468.707	147
468.927	138
469.146	158
469.365	151
469.585	135
469.804	152
470.023	151
470.243	151
470.462	142
470.681	134
470.901	150
471.12	155
471.339	150
471.558	146
471.777	144
471.997	133
472.216	134
472.435	138
472.654	121
472.873	115
473.092	131
473.311	119
473.53	131
473.749	142
473.968	131
474.187	139
474.406	138
474.625	124
474.844	153
475.063	126
475.282	138
475.501	138
475.72	126
475.939	136
476.158	130
476.377	140
476.596	132
476.814	126
477.033	114
477.252	122
477.471	138
477.69	134
477.908	140
478.127	143
478.346	142
478.564	136
478.783	151
479.002	153
479.22	131
479.439	142
479.658	135
479.876	115
480.095	114
480.313	124
480.532	131
480.751	120
480.969	110
481.188	94
481.406	90
481.624	93
481.843	84
482.061	98
482.28	115
482.498	128
482.717	110
482.935	124
483.153	148
483.372	144
483.59	153
483.808	153
484.027	154
484.245	157
484.463	156
484.681	170
484.9	158
485.118	132
485.336	140
485.554	119
485.772	108
485.99	114
486.209	122
486.427	121
486.645	131
486.863	144
487.081	146
487.299	130
487.517	168
487.735	167
487.953	204
488.171	180
488.389	166
488.607	188
488.825	174
489.043	150
489.261	145
489.479	162
489.696	155
489.914	140
490.132	143
490.35	170
490.568	169
490.786	170
491.003	184
491.221	188
491.439	199
491.657	214
491.874	202
492.092	236
492.31	270
492.527	231
492.745	230
492.963	213
493.18	197
493.398	205
493.615	192
493.833	190
494.05	185
494.268	186
494.485	196
494.703	171
494.92	184
495.138	194
495.355	191
495.573	187
495.79	158
496.008	175
496.225	175
496.442	184
496.66	180
496.877	176
497.094	182
497.312	170
497.529	179
497.746	173
497.963	149
498.181	130
498.398	128
498.615	124
498.832	136
499.049	118
499.267	135
499.484	126
499.701	132
499.918	135
500.135	144
500.352	136
500.569	162
500.786	155
501.003	152
501.22	142
501.437	150
501.654	146
501.871	163
502.088	129
502.305	134
502.522	144
502.739	137
502.956	134
503.172	125
503.389	123
503.606	131
503.823	131
504.04	130
504.256	125
504.473	125
504.69	123
504.907	135
505.123	123
505.34	118
505.557	140
505.773	127
505.99	135
506.207	130
506.423	118
506.64	117
506.856	124
507.073	146
507.289	120
507.506	124
507.722	135
507.939	129
508.155	114
508.372	116
508.588	122
508.805	103
509.021	121
509.238	114
509.454	108
509.67	107
509.887	96
510.103	105
510.319	108
510.536	98
510.752	99
510.968	107
511.184	99
511.401	95
511.617	78
511.833	98
512.049	100
512.265	85
512.481	101
512.698	91
512.914	94
513.13	108
513.346	94
513.562	102
513.778	106
513.994	92
514.21	80
514.426	92
514.642	104
514.858	95
515.074	89
515.29	98
515.506	93
515.721	95
515.937	82
516.153	84
516.369	84
516.585	88
516.801	87
517.016	98
517.232	88
517.448	106
517.664	101
517.879	93
518.095	89
518.311	91
518.527	106
518.742	98
518.958	118
519.173	104
519.389	118
519.605	111
519.82	114
520.036	116
520.251	102
520.467	106
520.682	89
520.898	108
521.113	100
521.329	102
521.544	94
521.76	95
521.975	93
522.19	102
522.406	101
522.621	106
522.836	103
523.052	92
523.267	136
523.482	118
523.698	115
523.913	112
524.128	132
524.343	121
524.559	108
524.774	119
524.989	123
525.204	120
525.419	121
525.634	124
525.849	115
526.064	123
526.28	109
526.495	104
526.71	79
526.925	95
527.14	91
527.355	71
527.57	78
527.785	77
527.999	96
528.214	91
528.429	111
528.644	137
528.859	152
529.074	151
529.289	169
529.503	161
529.718	143
529.933	117
530.148	109
530.363	111
530.577	89
530.792	82
531.007	82
531.221	82
531.436	99
531.651	87
531.865	85
532.08	84
532.295	98
532.509	107
532.724	88
532.938	94
533.153	111
533.367	109
533.582	128
533.796	139
534.011	118
534.225	95
534.44	88
534.654	103
534.868	108
535.083	104
535.297	102
535.511	115
535.726	122
535.94	110
536.154	109
536.369	101
536.583	102
536.797	88
537.011	92
537.225	92
537.44	84
537.654	109
537.868	101
538.082	95
538.296	97
538.51	94
538.724	106
538.938	124
539.153	132
539.367	134
539.581	119
539.795	102
540.009	108
540.222	106
540.436	124
540.65	124
540.864	135
541.078	151
541.292	176
541.506	171
541.72	206
541.934	200
542.147	207
542.361	197
542.575	169
542.789	151
543.002	145
543.216	133
543.43	126
543.644	138
543.857	158
544.071	170
544.285	171
544.498	164
544.712	176
544.925	176
545.139	156
545.352	168
545.566	171
545.779	168
545.993	174
546.206	181
546.42	173
546.633	171
546.847	162
547.06	174
547.274	175
547.487	188
547.7	182
547.914	172
548.127	164
548.34	160
548.554	172
548.767	168
548.98	163
549.193	171
549.407	157
549.62	151
549.833	154
550.046	162
550.259	162
550.473	174
550.686	165
550.899	142
551.112	151
551.325	130
551.538	148
551.751	124
551.964	121
552.177	133
552.39	159
552.603	152
552.816	160
553.029	175
553.242	171
553.455	167
553.667	170
553.88	163
554.093	168
554.306	159
554.519	142
554.732	151
554.944	159
555.157	149
555.37	134
555.583	147
555.795	154
556.008	161
556.221	159
556.433	136
556.646	126
556.859	151
557.071	142
557.284	142
557.496	137
557.709	168
557.921	145
558.134	154
558.346	149
558.559	150
558.771	130
558.984	146
559.196	138
559.409	135
559.621	145
559.833	139
560.046	138
560.258	143
560.47	143
560.683	140
560.895	140
561.107	128
561.32	120
561.532	132
561.744	140
561.956	148
562.168	121
562.381	138
562.593	143
562.805	126
563.017	128
563.229	130
563.441	144
563.653	126
563.865	126
564.077	118
564.289	122
564.501	123
564.713	126
564.925	114
565.137	122
565.349	120
565.561	128
565.773	124
565.985	117
566.197	131
566.408	128
566.62	116
566.832	129
567.044	120
567.255	129
567.467	123
567.679	109
567.891	112
568.102	104
568.314	106
568.526	100
568.737	89
568.949	89
569.161	93
569.372	93
569.584	74
569.795	84
570.007	83
570.218	72
570.43	103
570.641	101
570.853	93
571.064	95
571.276	99
571.487	124
571.698	112
571.91	122
572.121	97
572.333	110
572.544	104
572.755	98
572.966	90
573.178	91
573.389	107
573.6	95
573.811	87
574.023	80
574.234	94
574.445	97
574.656	94
574.867	102
575.078	87
575.289	103
575.501	98
575.712	93
575.923	103
576.134	105
576.345	103
576.556	114
576.767	102
576.978	93
577.188	100
577.399	97
577.61	81
577.821	77
578.032	102
578.243	93
578.454	110
578.665	97
578.875	107
579.086	87
579.297	67
579.508	85
579.718	88
579.929	88
580.14	98
580.35	89
580.561	79
580.772	89
580.982	102
581.193	92
581.403	101
581.614	91
581.825	98
582.035	85
582.246	98
582.456	101
582.667	89
582.877	102
583.087	90
583.298	86
583.508	85
583.719	82
583.929	99
584.139	91
584.35	94
584.56	84
584.77	94
584.981	85
585.191	91
585.401	87
585.611	84
585.821	97
586.032	75
586.242	82
586.452	100
586.662	72
586.872	93
587.082	87
587.292	70
587.502	93
587.713	78
587.923	87
588.133	87
588.343	98
588.553	90
588.762	88
588.972	76
589.182	74
589.392	90
589.602	79
589.812	89
590.022	92
590.232	82
590.441	97
590.651	84
590.861	87
591.071	79
591.281	96
591.49	95
591.7	98
591.91	75
592.119	83
592.329	88
592.539	73
592.748	102
592.958	97
593.167	91
593.377	83
593.587	89
593.796	98
594.006	76
594.215	88
594.424	90
594.634	96
594.843	91
595.053	107
595.262	98
595.472	90
595.681	106
595.89	83
596.1	89
596.309	102
596.518	103
596.727	95
596.937	105
597.146	120
597.355	103
597.564	97
597.774	94
597.983	86
598.192	86
598.401	93
598.61	99
598.819	105
599.028	87
599.237	96
599.446	105
599.655	105
599.864	98
600.073	99
600.282	96
600.491	88
600.7	111
600.909	91
601.118	91
601.327	101
601.536	109
601.745	117
601.953	105
602.162	114
602.371	109
602.58	109
602.789	105
602.997	114
603.206	116
603.415	112
603.623	122
603.832	118
604.041	108
604.249	122
604.458	102
604.666	88
604.875	103
605.084	108
605.292	105
605.501	121
605.709	130
605.918	123
606.126	117
606.334	108
606.543	111
606.751	124
606.96	111
607.168	126
607.376	108
607.585	118
607.793	121
608.001	121
608.21	122
608.418	111
608.626	107
608.834	118
609.043	100
609.251	112
609.459	117
609.667	122
609.875	118
610.083	125
610.291	119
610.499	116
610.707	122
610.916	116
611.124	123
611.332	106
611.54	114
611.748	126
611.955	116
612.163	115
612.371	115
612.579	106
612.787	111
612.995	125
613.203	124
613.411	121
613.618	121
613.826	126
614.034	109
614.242	109
614.449	110
614.657	109
614.865	122
615.072	114
615.28	101
615.488	110
615.695	122
615.903	130
616.111	122
616.318	123
616.526	103
616.733	130
616.941	109
617.148	94
617.356	110
617.563	116
617.771	117
617.978	117
618.185	117
618.393	109
618.6	119
618.807	119
619.015	117
619.222	127
619.429	115
619.637	118
619.844	116
620.051	122
620.258	115
620.466	103
620.673	91
620.88	123
621.087	121
621.294	102
621.501	107
621.708	101
621.915	119
622.122	100
622.329	124
622.536	106
622.743	100
622.95	124
623.157	118
623.364	106
623.571	119
623.778	102
623.985	102
624.192	117
624.399	113
624.606	123
624.812	100
625.019	107
625.226	117
625.433	107
625.639	99
625.846	114
626.053	102
626.259	93
626.466	98
626.673	97
626.879	91
627.086	101
627.293	118
627.499	117
627.706	110
627.912	114
628.119	128
628.325	99
628.532	107
628.738	112
628.945	108
629.151	97
629.357	123
629.564	114
629.77	119
629.976	111
630.183	117
630.389	97
630.595	106
630.802	99
631.008	107
631.214	106
631.42	96
631.627	97
631.833	97
632.039	104
632.245	110
632.451	105
632.657	94
632.863	105
633.069	125
633.275	120
633.481	108
633.688	104
633.893	120
634.099	109
634.305	98
634.511	95
634.717	114
634.923	99
635.129	104
635.335	105
635.541	88
635.747	102
635.952	107
636.158	106
636.364	105
636.57	99
636.775	84
636.981	103
637.187	107
637.392	105
637.598	109
637.804	112
638.009	113
638.215	93
638.421	100
638.626	106
638.832	104
639.037	79
639.243	90
639.448	96
639.654	113
639.859	110
640.065	118
640.27	109
640.475	106
640.681	109
640.886	110
641.091	99
641.297	93
641.502	112
641.707	119
641.913	119
642.118	116
642.323	103
642.528	110
642.733	113
642.939	102
643.144	105
643.349	91
643.554	98
643.759	96
643.964	114
644.169	118
644.374	100
644.579	84
644.784	96
644.989	103
645.194	100
645.399	103
645.604	107
645.809	93
646.014	89
646.219	109
646.423	97
646.628	109
646.833	109
647.038	94
647.243	95
647.447	99
647.652	109
647.857	94
648.062	110
648.266	101
648.471	98
648.676	96
648.88	104
649.085	99
649.289	103
649.494	107
649.698	115
649.903	82
650.107	114
650.312	109
650.516	90
650.721	84
650.925	92
651.13	100
651.334	96
651.539	91
651.743	90
651.947	100
652.152	107
652.356	90
652.56	101
652.764	100
652.969	98
653.173	93
653.377	89
653.581	94
653.785	93
653.99	93
654.194	96
654.398	101
654.602	100
654.806	107
655.01	91
655.214	90
655.418	85
655.622	90
655.826	108
656.03	91
656.234	95
656.438	91
656.642	88
656.846	93
657.049	92
657.253	99
657.457	87
657.661	93
657.865	81
658.068	82
658.272	95
658.476	99
658.68	92
658.883	91
659.087	87
659.291	95
659.494	80
659.698	100
659.901	83
660.105	98
660.309	78
660.512	91
660.716	87
660.919	93
661.123	87
661.326	84
661.53	77
661.733	84
661.936	88
662.14	91
662.343	84
662.546	85
662.75	83
662.953	79
663.156	87
663.36	85
663.563	70
663.766	84
663.969	78
664.173	81
664.376	95
664.579	76
664.782	84
664.985	96
665.188	80
665.391	79
665.594	80
665.797	79
666	85
666.203	86
666.406	86
666.609	91
666.812	100
667.015	76
667.218	79
667.421	87
667.624	61
667.827	101
668.03	86
668.232	79
668.435	80
668.638	72
668.841	79
669.043	81
669.246	86
669.449	82
669.651	79
669.854	83
670.057	90
670.259	91
670.462	84
670.665	66
670.867	85
671.07	81
671.272	79
671.475	91
671.677	87
671.88	91
672.082	80
672.284	90
672.487	84
672.689	86
672.892	70
