Data from Location4.07152019.Energy5.Lamp.07192019.3%Agarose_HRD10591_15-25-23-577.txt Node
Date: Fri Jul 19 15:25:23 EDT 2019
User: cochatt
Spectrometer: HR+D1059
Trigger mode: 1
Integration Time (sec): 1.000000E-1
Scans to average: 1
Electric dark correction enabled: true
Nonlinearity correction enabled: false
Boxcar width: 0
XAxis mode: Wavelengths
Number of Pixels in Spectrum: 2048
>>>>>Begin Spectral Data<<<<<
223.165	-19
223.4	-19
223.635	-19
223.869	-17
224.104	-10
224.338	-17
224.573	-17
224.808	4
225.042	-7
225.277	-25
225.511	-3
225.746	7
225.98	-3
226.215	22
226.449	10
226.683	20
226.918	19
227.152	36
227.387	50
227.621	32
227.856	51
228.09	45
228.324	50
228.559	51
228.793	64
229.027	63
229.262	72
229.496	57
229.73	71
229.964	60
230.199	79
230.433	66
230.667	75
230.901	73
231.136	76
231.37	77
231.604	79
231.838	88
232.072	82
232.306	85
232.541	88
232.775	85
233.009	96
233.243	78
233.477	81
233.711	80
233.945	79
234.179	82
234.413	68
234.647	76
234.881	76
235.115	71
235.349	93
235.583	83
235.817	66
236.051	77
236.285	76
236.519	92
236.753	76
236.987	81
237.221	81
237.455	77
237.689	69
237.922	83
238.156	79
238.39	85
238.624	79
238.858	72
239.091	95
239.325	83
239.559	80
239.793	76
240.027	87
240.26	78
240.494	66
240.728	75
240.961	72
241.195	68
241.429	69
241.662	89
241.896	82
242.13	75
242.363	71
242.597	78
242.83	71
243.064	83
243.298	68
243.531	64
243.765	81
243.998	81
244.232	77
244.465	75
244.699	82
244.932	77
245.166	61
245.399	84
245.633	89
245.866	93
246.099	83
246.333	76
246.566	63
246.8	76
247.033	89
247.266	77
247.5	87
247.733	85
247.966	72
248.2	76
248.433	72
248.666	84
248.899	73
249.133	84
249.366	89
249.599	73
249.832	81
250.066	84
250.299	75
250.532	89
250.765	87
250.998	75
251.231	71
251.465	77
251.698	90
251.931	71
252.164	64
252.397	80
252.63	88
252.863	83
253.096	76
253.329	87
253.562	75
253.795	89
254.028	86
254.261	80
254.494	71
254.727	73
254.96	86
255.193	83
255.426	77
255.659	71
255.892	79
256.124	76
256.357	86
256.59	86
256.823	92
257.056	71
257.289	76
257.521	71
257.754	85
257.987	83
258.22	77
258.452	72
258.685	70
258.918	84
259.151	89
259.383	80
259.616	85
259.849	85
260.081	81
260.314	82
260.547	77
260.779	79
261.012	85
261.244	68
261.477	84
261.71	72
261.942	82
262.175	87
262.407	78
262.64	83
262.872	87
263.105	76
263.337	88
263.57	76
263.802	89
264.035	83
264.267	86
264.499	96
264.732	81
264.964	82
265.197	84
265.429	85
265.661	86
265.894	72
266.126	86
266.358	79
266.591	92
266.823	78
267.055	89
267.287	78
267.52	73
267.752	87
267.984	70
268.216	90
268.448	86
268.681	78
268.913	75
269.145	84
269.377	77
269.609	83
269.841	85
270.073	82
270.306	94
270.538	79
270.77	71
271.002	81
271.234	94
271.466	93
271.698	90
271.93	76
272.162	75
272.394	76
272.626	94
272.858	73
273.09	87
273.322	84
273.553	98
273.785	88
274.017	87
274.249	90
274.481	96
274.713	71
274.945	82
275.176	78
275.408	81
275.64	88
275.872	75
276.104	85
276.335	77
276.567	80
276.799	79
277.031	76
277.262	84
277.494	79
277.726	81
277.957	88
278.189	79
278.421	76
278.652	87
278.884	89
279.115	81
279.347	80
279.579	94
279.81	95
280.042	80
280.273	71
280.505	100
280.736	93
280.968	84
281.199	101
281.431	91
281.662	86
281.894	86
282.125	94
282.356	87
282.588	87
282.819	71
283.051	85
283.282	88
283.513	81
283.745	92
283.976	92
284.207	80
284.439	84
284.67	103
284.901	95
285.132	87
285.364	89
285.595	91
285.826	94
286.057	85
286.288	84
286.52	78
286.751	81
286.982	93
287.213	95
287.444	79
287.675	91
287.906	85
288.138	94
288.369	90
288.6	81
288.831	86
289.062	87
289.293	88
289.524	87
289.755	82
289.986	97
290.217	95
290.448	100
290.679	76
290.91	101
291.141	85
291.371	81
291.602	90
291.833	79
292.064	85
292.295	90
292.526	79
292.757	69
292.987	70
293.218	75
293.449	82
293.68	89
293.91	93
294.141	84
294.372	73
294.603	88
294.833	82
295.064	77
295.295	69
295.525	71
295.756	88
295.987	81
296.217	91
296.448	90
296.679	83
296.909	90
297.14	84
297.37	78
297.601	81
297.831	104
298.062	91
298.292	87
298.523	82
298.753	90
298.984	75
299.214	84
299.445	93
299.675	85
299.905	91
300.136	101
300.366	70
300.597	87
300.827	86
301.057	76
301.288	73
301.518	93
301.748	76
301.979	87
302.209	84
302.439	82
302.669	78
302.9	83
303.13	84
303.36	77
303.59	85
303.82	85
304.051	88
304.281	82
304.511	94
304.741	82
304.971	84
305.201	88
305.431	76
305.661	105
305.891	89
306.121	96
306.352	94
306.582	83
306.812	93
307.042	60
307.272	89
307.502	92
307.731	72
307.961	88
308.191	84
308.421	84
308.651	74
308.881	84
309.111	84
309.341	81
309.571	101
309.8	92
310.03	92
310.26	87
310.49	87
310.72	85
310.949	86
311.179	86
311.409	85
311.639	83
311.868	76
312.098	93
312.328	89
312.557	81
312.787	94
313.017	74
313.246	82
313.476	80
313.706	69
313.935	78
314.165	85
314.394	78
314.624	79
314.853	91
315.083	81
315.312	81
315.542	75
315.771	79
316.001	90
316.23	74
316.46	88
316.689	79
316.919	85
317.148	85
317.377	88
317.607	89
317.836	86
318.065	87
318.295	78
318.524	76
318.753	90
318.983	79
319.212	79
319.441	88
319.67	88
319.9	81
320.129	84
320.358	80
320.587	78
320.816	75
321.046	89
321.275	84
321.504	91
321.733	92
321.962	90
322.191	84
322.42	82
322.649	75
322.878	84
323.108	77
323.337	81
323.566	93
323.795	95
324.024	89
324.253	91
324.482	87
324.71	85
324.939	74
325.168	87
325.397	81
325.626	81
325.855	86
326.084	80
326.313	93
326.542	83
326.77	83
326.999	87
327.228	93
327.457	74
327.686	84
327.914	79
328.143	73
328.372	86
328.6	95
328.829	71
329.058	87
329.287	85
329.515	96
329.744	105
329.972	88
330.201	74
330.43	86
330.658	84
330.887	85
331.115	88
331.344	84
331.572	85
331.801	92
332.03	90
332.258	86
332.486	84
332.715	79
332.943	82
333.172	91
333.4	90
333.629	100
333.857	75
334.085	81
334.314	89
334.542	81
334.771	67
334.999	88
335.227	88
335.455	80
335.684	81
335.912	92
336.14	95
336.369	85
336.597	69
336.825	87
337.053	81
337.281	90
337.51	89
337.738	98
337.966	89
338.194	76
338.422	85
338.65	77
338.878	81
339.106	76
339.334	90
339.562	80
339.79	83
340.018	87
340.246	85
340.474	75
340.702	81
340.93	76
341.158	93
341.386	87
341.614	95
341.842	91
342.07	71
342.298	80
342.526	95
342.754	85
342.981	92
343.209	77
343.437	91
343.665	79
343.893	94
344.12	98
344.348	91
344.576	81
344.804	100
345.031	87
345.259	91
345.487	97
345.714	83
345.942	90
346.17	92
346.397	70
346.625	81
346.853	70
347.08	71
347.308	92
347.535	73
347.763	77
347.99	88
348.218	84
348.445	79
348.673	78
348.9	100
349.128	95
349.355	101
349.583	81
349.81	76
350.037	81
350.265	70
350.492	66
350.72	83
350.947	99
351.174	76
351.402	90
351.629	89
351.856	79
352.083	91
352.311	84
352.538	89
352.765	92
352.992	76
353.22	78
353.447	91
353.674	103
353.901	82
354.128	89
354.355	88
354.583	83
354.81	85
355.037	90
355.264	80
355.491	74
355.718	78
355.945	90
356.172	82
356.399	69
356.626	94
356.853	76
357.08	84
357.307	88
357.534	89
357.761	86
357.988	84
358.215	70
358.441	73
358.668	81
358.895	72
359.122	86
359.349	85
359.576	74
359.802	79
360.029	77
360.256	83
360.483	79
360.709	95
360.936	81
361.163	97
361.39	88
361.616	90
361.843	107
362.07	80
362.296	89
362.523	80
362.749	77
362.976	80
363.203	92
363.429	76
363.656	88
363.882	84
364.109	79
364.335	76
364.562	91
364.788	83
365.015	81
365.241	85
365.468	79
365.694	83
365.92	85
366.147	86
366.373	91
366.599	81
366.826	85
367.052	90
367.278	75
367.505	90
367.731	91
367.957	82
368.184	83
368.41	74
368.636	96
368.862	79
369.089	103
369.315	80
369.541	85
369.767	85
369.993	78
370.219	71
370.445	82
370.672	90
370.898	76
371.124	90
371.35	87
371.576	81
371.802	105
372.028	86
372.254	84
372.48	78
372.706	79
372.932	95
373.158	92
373.384	77
373.61	98
373.835	84
374.061	88
374.287	91
374.513	92
374.739	92
374.965	83
375.191	82
375.416	85
375.642	73
375.868	84
376.094	99
376.319	94
376.545	76
376.771	88
376.997	96
377.222	81
377.448	91
377.674	85
377.899	77
378.125	71
378.35	75
378.576	107
378.802	98
379.027	88
379.253	81
379.478	80
379.704	92
379.929	79
380.155	87
380.38	93
380.606	98
380.831	89
381.057	72
381.282	74
381.507	80
381.733	75
381.958	84
382.184	81
382.409	85
382.634	90
382.86	75
383.085	83
383.31	91
383.535	84
383.761	84
383.986	83
384.211	82
384.436	96
384.662	86
384.887	99
385.112	86
385.337	77
385.562	96
385.787	91
386.013	84
386.238	87
386.463	87
386.688	89
386.913	84
387.138	87
387.363	89
387.588	100
387.813	99
388.038	77
388.263	81
388.488	64
388.713	88
388.938	82
389.163	94
389.387	99
389.612	93
389.837	84
390.062	91
390.287	96
390.512	101
390.736	82
390.961	91
391.186	97
391.411	83
391.636	88
391.86	96
392.085	81
392.31	85
392.534	88
392.759	87
392.984	104
393.208	85
393.433	99
393.658	101
393.882	97
394.107	72
394.331	80
394.556	86
394.78	86
395.005	88
395.229	94
395.454	75
395.678	78
395.903	107
396.127	89
396.352	100
396.576	76
396.801	77
397.025	91
397.249	90
397.474	91
397.698	70
397.922	81
398.147	90
398.371	96
398.595	84
398.82	103
399.044	86
399.268	82
399.492	89
399.717	92
399.941	97
400.165	88
400.389	80
400.613	89
400.837	93
401.062	95
401.286	90
401.51	86
401.734	85
401.958	90
402.182	87
402.406	87
402.63	101
402.854	87
403.078	95
403.302	99
403.526	82
403.75	89
403.974	78
404.198	90
404.422	92
404.645	88
404.869	92
405.093	88
405.317	83
405.541	76
405.765	77
405.988	85
406.212	94
406.436	92
406.66	104
406.883	84
407.107	83
407.331	94
407.555	73
407.778	90
408.002	87
408.226	90
408.449	97
408.673	108
408.896	89
409.12	103
409.344	94
409.567	91
409.791	101
410.014	91
410.238	89
410.461	94
410.685	83
410.908	100
411.132	88
411.355	89
411.578	103
411.802	101
412.025	80
412.249	93
412.472	87
412.695	78
412.919	91
413.142	101
413.365	93
413.589	103
413.812	89
414.035	97
414.258	89
414.482	92
414.705	96
414.928	91
415.151	98
415.374	76
415.597	87
415.821	88
416.044	94
416.267	92
416.49	97
416.713	83
416.936	87
417.159	84
417.382	99
417.605	101
417.828	87
418.051	89
418.274	89
418.497	93
418.72	104
418.943	103
419.166	80
419.389	86
419.611	97
419.834	101
420.057	96
420.28	102
420.503	86
420.726	91
420.948	78
421.171	91
421.394	92
421.617	95
421.839	95
422.062	110
422.285	92
422.507	93
422.73	90
422.953	90
423.175	86
423.398	89
423.621	87
423.843	86
424.066	98
424.288	104
424.511	97
424.733	94
424.956	92
425.178	104
425.401	90
425.623	77
425.846	102
426.068	102
426.291	87
426.513	105
426.735	94
426.958	98
427.18	106
427.402	88
427.625	89
427.847	101
428.069	89
428.292	92
428.514	101
428.736	90
428.958	90
429.181	94
429.403	107
429.625	108
429.847	101
430.069	101
430.292	95
430.514	100
430.736	98
430.958	94
431.18	87
431.402	100
431.624	92
431.846	61
432.068	73
432.29	89
432.512	88
432.734	101
432.956	96
433.178	117
433.4	94
433.622	102
433.844	82
434.066	101
434.287	93
434.509	93
434.731	88
434.953	76
435.175	86
435.397	108
435.618	87
435.84	88
436.062	91
436.284	79
436.505	95
436.727	96
436.949	86
437.17	95
437.392	84
437.614	90
437.835	80
438.057	104
438.278	96
438.5	95
438.721	89
438.943	94
439.165	92
439.386	87
439.608	96
439.829	105
440.05	91
440.272	92
440.493	103
440.715	94
440.936	94
441.158	90
441.379	96
441.6	103
441.822	112
442.043	105
442.264	91
442.486	88
442.707	82
442.928	97
443.149	96
443.371	94
443.592	101
443.813	104
444.034	93
444.255	98
444.476	89
444.698	95
444.919	90
445.14	232
445.361	140
445.582	95
445.803	100
446.024	95
446.245	106
446.466	89
446.687	116
446.908	101
447.129	94
447.35	98
447.571	89
447.792	95
448.013	101
448.234	115
448.455	104
448.675	93
448.896	96
449.117	92
449.338	93
449.559	88
449.779	86
450	99
450.221	102
450.442	90
450.662	100
450.883	95
451.104	107
451.324	104
451.545	87
451.766	92
451.986	94
452.207	89
452.428	91
452.648	113
452.869	96
453.089	93
453.31	90
453.53	93
453.751	77
453.971	80
454.192	87
454.412	87
454.633	99
454.853	103
455.073	96
455.294	88
455.514	94
455.734	101
455.955	105
456.175	115
456.395	84
456.616	86
456.836	87
457.056	95
457.276	92
457.497	97
457.717	82
457.937	100
458.157	81
458.377	89
458.598	95
458.818	98
459.038	92
459.258	86
459.478	83
459.698	81
459.918	96
460.138	84
460.358	79
460.578	97
460.798	83
461.018	88
461.238	87
461.458	104
461.678	83
461.898	77
462.118	89
462.338	98
462.558	86
462.777	92
462.997	79
463.217	93
463.437	84
463.657	96
463.876	91
464.096	80
464.316	73
464.536	86
464.755	84
464.975	89
465.195	87
465.414	94
465.634	81
465.854	108
466.073	113
466.293	102
466.512	105
466.732	98
466.951	90
467.171	96
467.391	96
467.61	95
467.829	95
468.049	103
468.268	95
468.488	95
468.707	105
468.927	99
469.146	98
469.365	95
469.585	109
469.804	103
470.023	116
470.243	116
470.462	96
470.681	115
470.901	95
471.12	101
471.339	115
471.558	97
471.777	94
471.997	94
472.216	101
472.435	89
472.654	95
472.873	99
473.092	99
473.311	95
473.53	91
473.749	100
473.968	111
474.187	83
474.406	83
474.625	88
474.844	102
475.063	85
475.282	83
475.501	88
475.72	92
475.939	91
476.158	70
476.377	88
476.596	81
476.814	89
477.033	92
477.252	112
477.471	95
477.69	111
477.908	88
478.127	100
478.346	115
478.564	103
478.783	93
479.002	94
479.22	98
479.439	92
479.658	91
479.876	87
480.095	83
480.313	82
480.532	78
480.751	87
480.969	89
481.188	81
481.406	92
481.624	89
481.843	84
482.061	81
482.28	77
482.498	83
482.717	92
482.935	84
483.153	90
483.372	110
483.59	98
483.808	90
484.027	103
484.245	99
484.463	101
484.681	100
484.9	93
485.118	98
485.336	80
485.554	91
485.772	93
485.99	92
486.209	88
486.427	101
486.645	99
486.863	90
487.081	94
487.299	86
487.517	103
487.735	108
487.953	120
488.171	102
488.389	98
488.607	119
488.825	88
489.043	107
489.261	111
489.479	112
489.696	106
489.914	117
490.132	97
490.35	100
490.568	98
490.786	110
491.003	101
491.221	121
491.439	119
491.657	123
491.874	111
492.092	122
492.31	124
492.527	111
492.745	114
492.963	103
493.18	106
493.398	111
493.615	110
493.833	114
494.05	102
494.268	95
494.485	107
494.703	114
494.92	100
495.138	103
495.355	102
495.573	123
495.79	106
496.008	99
496.225	108
496.442	101
496.66	115
496.877	95
497.094	104
497.312	96
497.529	98
497.746	100
497.963	89
498.181	84
498.398	83
498.615	105
498.832	77
499.049	97
499.267	93
499.484	88
499.701	82
499.918	106
500.135	117
500.352	89
500.569	104
500.786	106
501.003	105
501.22	95
501.437	100
501.654	102
501.871	90
502.088	103
502.305	117
502.522	105
502.739	105
502.956	84
503.172	95
503.389	89
503.606	88
503.823	89
504.04	91
504.256	81
504.473	95
504.69	112
504.907	96
505.123	108
505.34	83
505.557	87
505.773	101
505.99	98
506.207	93
506.423	99
506.64	91
506.856	89
507.073	103
507.289	94
507.506	74
507.722	91
507.939	103
508.155	84
508.372	94
508.588	88
508.805	88
509.021	83
509.238	83
509.454	85
509.67	86
509.887	99
510.103	80
510.319	95
510.536	78
510.752	91
510.968	82
511.184	84
511.401	83
511.617	90
511.833	87
512.049	74
512.265	58
512.481	78
512.698	100
512.914	99
513.13	83
513.346	81
513.562	89
513.778	81
513.994	99
514.21	71
514.426	108
514.642	83
514.858	92
515.074	98
515.29	83
515.506	96
515.721	90
515.937	87
516.153	88
516.369	71
516.585	96
516.801	87
517.016	88
517.232	89
517.448	82
517.664	92
517.879	87
518.095	78
518.311	92
518.527	101
518.742	84
518.958	81
519.173	84
519.389	90
519.605	97
519.82	104
520.036	90
520.251	93
520.467	77
520.682	92
520.898	87
521.113	85
521.329	70
521.544	76
521.76	76
521.975	89
522.19	97
522.406	82
522.621	93
522.836	93
523.052	91
523.267	87
523.482	80
523.698	81
523.913	109
524.128	89
524.343	96
524.559	102
524.774	98
524.989	87
525.204	88
525.419	95
525.634	84
525.849	101
526.064	97
526.28	94
526.495	99
526.71	86
526.925	78
527.14	82
527.355	75
527.57	86
527.785	95
527.999	81
528.214	86
528.429	103
528.644	93
528.859	98
529.074	103
529.289	109
529.503	101
529.718	98
529.933	93
530.148	85
530.363	83
530.577	86
530.792	83
531.007	73
531.221	82
531.436	77
531.651	76
531.865	84
532.08	87
532.295	84
532.509	97
532.724	81
532.938	89
533.153	88
533.367	77
533.582	104
533.796	91
534.011	90
534.225	92
534.44	87
534.654	87
534.868	96
535.083	90
535.297	83
535.511	82
535.726	100
535.94	96
536.154	89
536.369	83
536.583	79
536.797	79
537.011	68
537.225	80
537.44	89
537.654	80
537.868	87
538.082	66
538.296	77
538.51	100
538.724	96
538.938	92
539.153	92
539.367	89
539.581	88
539.795	98
540.009	84
540.222	92
540.436	93
540.65	94
540.864	106
541.078	98
541.292	107
541.506	103
541.72	103
541.934	101
542.147	116
542.361	121
542.575	100
542.789	101
543.002	114
543.216	87
543.43	73
543.644	86
543.857	87
544.071	100
544.285	116
544.498	121
544.712	113
544.925	112
545.139	100
545.352	103
545.566	104
545.779	112
545.993	107
546.206	117
546.42	102
546.633	93
546.847	120
547.06	97
547.274	105
547.487	117
547.7	106
547.914	115
548.127	115
548.34	105
548.554	107
548.767	106
548.98	104
549.193	110
549.407	107
549.62	107
549.833	106
550.046	98
550.259	102
550.473	97
550.686	100
550.899	99
551.112	108
551.325	97
551.538	92
551.751	93
551.964	99
552.177	94
552.39	87
552.603	108
552.816	89
553.029	111
553.242	106
553.455	119
553.667	117
553.88	105
554.093	101
554.306	97
554.519	91
554.732	93
554.944	112
555.157	109
555.37	111
555.583	92
555.795	102
556.008	115
556.221	104
556.433	96
556.646	101
556.859	91
557.071	104
557.284	116
557.496	99
557.709	99
557.921	111
558.134	87
558.346	109
558.559	88
558.771	100
558.984	101
559.196	105
559.409	97
559.621	100
559.833	102
560.046	92
560.258	88
560.47	115
560.683	115
560.895	82
561.107	105
561.32	91
561.532	100
561.744	100
561.956	101
562.168	100
562.381	102
562.593	102
562.805	95
563.017	103
563.229	104
563.441	97
563.653	115
563.865	92
564.077	94
564.289	109
564.501	93
564.713	93
564.925	96
565.137	91
565.349	109
565.561	113
565.773	106
565.985	95
566.197	86
566.408	99
566.62	95
566.832	91
567.044	94
567.255	86
567.467	95
567.679	95
567.891	85
568.102	90
568.314	82
568.526	87
568.737	97
568.949	90
569.161	75
569.372	74
569.584	92
569.795	98
570.007	84
570.218	86
570.43	90
570.641	82
570.853	80
571.064	83
571.276	112
571.487	97
571.698	111
571.91	101
572.121	71
572.333	92
572.544	93
572.755	83
572.966	89
573.178	85
573.389	87
573.6	87
573.811	87
574.023	85
574.234	70
574.445	80
574.656	82
574.867	87
575.078	72
575.289	85
575.501	90
575.712	83
575.923	90
576.134	80
576.345	85
576.556	84
576.767	91
576.978	88
577.188	90
577.399	83
577.61	76
577.821	84
578.032	75
578.243	108
578.454	93
578.665	89
578.875	82
579.086	85
579.297	71
579.508	86
579.718	78
579.929	78
580.14	84
580.35	85
580.561	93
580.772	84
580.982	75
581.193	83
581.403	88
581.614	76
581.825	90
582.035	100
582.246	88
582.456	72
582.667	64
582.877	77
583.087	84
583.298	83
583.508	90
583.719	84
583.929	81
584.139	70
584.35	100
584.56	93
584.77	92
584.981	87
585.191	79
585.401	91
585.611	89
585.821	94
586.032	89
586.242	75
586.452	84
586.662	95
586.872	76
587.082	77
587.292	78
587.502	87
587.713	90
587.923	80
588.133	81
588.343	88
588.553	67
588.762	76
588.972	84
589.182	93
589.392	101
589.602	80
589.812	84
590.022	82
590.232	89
590.441	91
590.651	97
590.861	70
591.071	81
591.281	88
591.49	71
591.7	92
591.91	99
592.119	78
592.329	77
592.539	83
592.748	95
592.958	91
593.167	70
593.377	92
593.587	88
593.796	89
594.006	74
594.215	78
594.424	85
594.634	91
594.843	78
595.053	88
595.262	78
595.472	87
595.681	102
595.89	76
596.1	79
596.309	77
596.518	92
596.727	98
596.937	80
597.146	96
597.355	93
597.564	79
597.774	85
597.983	88
598.192	77
598.401	80
598.61	59
598.819	86
599.028	80
599.237	90
599.446	89
599.655	80
599.864	88
600.073	76
600.282	87
600.491	100
600.7	88
600.909	82
601.118	90
601.327	101
601.536	92
601.745	84
601.953	89
602.162	75
602.371	88
602.58	90
602.789	92
602.997	97
603.206	94
603.415	84
603.623	95
603.832	98
604.041	104
604.249	83
604.458	81
604.666	94
604.875	90
605.084	88
605.292	90
605.501	97
605.709	79
605.918	97
606.126	85
606.334	91
606.543	100
606.751	95
606.96	101
607.168	99
607.376	84
607.585	97
607.793	106
608.001	100
608.21	88
608.418	90
608.626	84
608.834	87
609.043	97
609.251	89
609.459	83
609.667	81
609.875	101
610.083	85
610.291	106
610.499	89
610.707	105
610.916	102
611.124	98
611.332	94
611.54	93
611.748	89
611.955	100
612.163	96
612.371	89
612.579	89
612.787	99
612.995	97
613.203	105
613.411	94
613.618	106
613.826	92
614.034	80
614.242	106
614.449	86
614.657	93
614.865	84
615.072	92
615.28	80
615.488	92
615.695	100
615.903	88
616.111	88
616.318	90
616.526	95
616.733	93
616.941	99
617.148	106
617.356	111
617.563	89
617.771	88
617.978	90
618.185	93
618.393	95
618.6	95
618.807	69
619.015	88
619.222	95
619.429	91
619.637	95
619.844	86
620.051	86
620.258	85
620.466	85
620.673	88
620.88	99
621.087	89
621.294	83
621.501	81
621.708	91
621.915	101
622.122	88
622.329	83
622.536	90
622.743	86
622.95	93
623.157	93
623.364	90
623.571	90
623.778	82
623.985	98
624.192	84
624.399	91
624.606	89
624.812	97
625.019	93
625.226	86
625.433	87
625.639	86
625.846	91
626.053	78
626.259	83
626.466	91
626.673	92
626.879	96
627.086	85
627.293	88
627.499	93
627.706	85
627.912	103
628.119	117
628.325	74
628.532	83
628.738	89
628.945	86
629.151	100
629.357	93
629.564	89
629.77	99
629.976	85
630.183	95
630.389	100
630.595	82
630.802	103
631.008	94
631.214	99
631.42	100
631.627	94
631.833	84
632.039	91
632.245	108
632.451	95
632.657	102
632.863	104
633.069	76
633.275	87
633.481	93
633.688	76
633.893	90
634.099	93
634.305	96
634.511	81
634.717	87
634.923	92
635.129	94
635.335	85
635.541	81
635.747	82
635.952	75
636.158	77
636.364	95
636.57	85
636.775	77
636.981	111
637.187	82
637.392	83
637.598	83
637.804	91
638.009	83
638.215	95
638.421	96
638.626	90
638.832	83
639.037	96
639.243	83
639.448	94
639.654	93
639.859	106
640.065	105
640.27	85
640.475	80
640.681	96
640.886	96
641.091	90
641.297	85
641.502	87
641.707	101
641.913	95
642.118	92
642.323	97
642.528	91
642.733	92
642.939	84
643.144	96
643.349	92
643.554	116
643.759	90
643.964	96
644.169	89
644.374	88
644.579	87
644.784	83
644.989	86
645.194	89
645.399	96
645.604	93
645.809	101
646.014	94
646.219	86
646.423	90
646.628	91
646.833	81
647.038	100
647.243	89
647.447	91
647.652	72
647.857	91
648.062	87
648.266	92
648.471	88
648.676	81
648.88	87
649.085	87
649.289	94
649.494	86
649.698	77
649.903	90
650.107	97
650.312	81
650.516	89
650.721	88
650.925	89
651.13	82
651.334	71
651.539	82
651.743	90
651.947	91
652.152	91
652.356	88
652.56	101
652.764	97
652.969	80
653.173	75
653.377	93
653.581	91
653.785	88
653.99	80
654.194	72
654.398	87
654.602	74
654.806	93
655.01	99
655.214	83
655.418	85
655.622	91
655.826	78
656.03	95
656.234	94
656.438	85
656.642	79
656.846	84
657.049	83
657.253	75
657.457	88
657.661	84
657.865	87
658.068	92
658.272	88
658.476	80
658.68	94
658.883	82
659.087	82
659.291	93
659.494	95
659.698	65
659.901	75
660.105	80
660.309	77
660.512	82
660.716	83
660.919	84
661.123	82
661.326	68
661.53	97
661.733	77
661.936	89
662.14	100
662.343	77
662.546	86
662.75	79
662.953	92
663.156	87
663.36	77
663.563	86
663.766	87
663.969	86
664.173	82
664.376	77
664.579	83
664.782	84
664.985	82
665.188	78
665.391	77
665.594	85
665.797	91
666	86
666.203	90
666.406	89
666.609	82
666.812	75
667.015	84
667.218	74
667.421	75
667.624	98
667.827	84
668.03	84
668.232	86
668.435	91
668.638	81
668.841	81
669.043	91
669.246	92
669.449	83
669.651	90
669.854	89
670.057	89
670.259	88
670.462	82
670.665	65
670.867	77
671.07	87
671.272	85
671.475	90
671.677	81
671.88	76
672.082	89
672.284	82
672.487	95
672.689	87
672.892	79
