Data from Location4.07152019.Energy5.Lamp.07192019.3%Agarose_HRD10591_15-25-44-578.txt Node
Date: Fri Jul 19 15:25:44 EDT 2019
User: cochatt
Spectrometer: HR+D1059
Trigger mode: 1
Integration Time (sec): 1.000000E-1
Scans to average: 1
Electric dark correction enabled: true
Nonlinearity correction enabled: false
Boxcar width: 0
XAxis mode: Wavelengths
Number of Pixels in Spectrum: 2048
>>>>>Begin Spectral Data<<<<<
223.165	-6
223.4	-6
223.635	-6
223.869	-28
224.104	-25
224.338	-26
224.573	-16
224.808	-14
225.042	-2
225.277	-16
225.511	15
225.746	9
225.98	5
226.215	16
226.449	15
226.683	20
226.918	26
227.152	27
227.387	41
227.621	37
227.856	46
228.09	38
228.324	53
228.559	56
228.793	66
229.027	68
229.262	61
229.496	67
229.73	75
229.964	81
230.199	72
230.433	63
230.667	60
230.901	89
231.136	75
231.37	72
231.604	81
231.838	74
232.072	72
232.306	87
232.541	82
232.775	86
233.009	75
233.243	84
233.477	86
233.711	89
233.945	79
234.179	73
234.413	87
234.647	68
234.881	89
235.115	81
235.349	86
235.583	81
235.817	82
236.051	86
236.285	75
236.519	91
236.753	72
236.987	96
237.221	67
237.455	78
237.689	88
237.922	85
238.156	83
238.39	77
238.624	78
238.858	69
239.091	69
239.325	78
239.559	72
239.793	75
240.027	78
240.26	78
240.494	83
240.728	79
240.961	76
241.195	71
241.429	82
241.662	79
241.896	80
242.13	86
242.363	76
242.597	70
242.83	68
243.064	84
243.298	81
243.531	78
243.765	81
243.998	71
244.232	82
244.465	84
244.699	88
244.932	87
245.166	79
245.399	76
245.633	82
245.866	74
246.099	82
246.333	83
246.566	84
246.8	81
247.033	70
247.266	67
247.5	78
247.733	81
247.966	78
248.2	85
248.433	73
248.666	77
248.899	81
249.133	79
249.366	74
249.599	86
249.832	64
250.066	81
250.299	74
250.532	93
250.765	92
250.998	81
251.231	60
251.465	82
251.698	60
251.931	71
252.164	76
252.397	79
252.63	75
252.863	74
253.096	82
253.329	68
253.562	81
253.795	88
254.028	83
254.261	88
254.494	87
254.727	82
254.96	91
255.193	80
255.426	89
255.659	83
255.892	82
256.124	73
256.357	71
256.59	90
256.823	72
257.056	83
257.289	84
257.521	78
257.754	84
257.987	88
258.22	79
258.452	81
258.685	78
258.918	87
259.151	72
259.383	77
259.616	71
259.849	84
260.081	90
260.314	67
260.547	78
260.779	75
261.012	82
261.244	76
261.477	79
261.71	84
261.942	86
262.175	83
262.407	86
262.64	75
262.872	73
263.105	90
263.337	88
263.57	77
263.802	90
264.035	72
264.267	73
264.499	96
264.732	91
264.964	87
265.197	87
265.429	69
265.661	85
265.894	61
266.126	89
266.358	73
266.591	83
266.823	77
267.055	77
267.287	77
267.52	89
267.752	87
267.984	85
268.216	79
268.448	92
268.681	72
268.913	74
269.145	82
269.377	68
269.609	81
269.841	83
270.073	79
270.306	76
270.538	74
270.77	88
271.002	78
271.234	84
271.466	90
271.698	87
271.93	82
272.162	90
272.394	96
272.626	87
272.858	69
273.09	84
273.322	80
273.553	70
273.785	87
274.017	92
274.249	95
274.481	78
274.713	58
274.945	70
275.176	79
275.408	95
275.64	100
275.872	71
276.104	80
276.335	80
276.567	80
276.799	82
277.031	77
277.262	89
277.494	92
277.726	102
277.957	97
278.189	75
278.421	75
278.652	86
278.884	82
279.115	88
279.347	71
279.579	82
279.81	87
280.042	93
280.273	86
280.505	74
280.736	91
280.968	91
281.199	77
281.431	79
281.662	91
281.894	93
282.125	84
282.356	102
282.588	90
282.819	84
283.051	94
283.282	81
283.513	76
283.745	76
283.976	83
284.207	82
284.439	83
284.67	89
284.901	93
285.132	78
285.364	81
285.595	90
285.826	74
286.057	82
286.288	88
286.52	85
286.751	79
286.982	91
287.213	83
287.444	76
287.675	77
287.906	96
288.138	77
288.369	89
288.6	81
288.831	71
289.062	91
289.293	80
289.524	85
289.755	83
289.986	76
290.217	67
290.448	85
290.679	81
290.91	67
291.141	75
291.371	90
291.602	88
291.833	92
292.064	89
292.295	87
292.526	80
292.757	83
292.987	88
293.218	79
293.449	74
293.68	94
293.91	87
294.141	93
294.372	71
294.603	76
294.833	78
295.064	83
295.295	81
295.525	96
295.756	85
295.987	84
296.217	89
296.448	88
296.679	83
296.909	62
297.14	79
297.37	86
297.601	83
297.831	88
298.062	75
298.292	88
298.523	85
298.753	76
298.984	85
299.214	83
299.445	82
299.675	78
299.905	89
300.136	90
300.366	86
300.597	85
300.827	92
301.057	80
301.288	82
301.518	88
301.748	95
301.979	75
302.209	89
302.439	84
302.669	85
302.9	76
303.13	78
303.36	91
303.59	79
303.82	83
304.051	67
304.281	97
304.511	98
304.741	84
304.971	94
305.201	95
305.431	96
305.661	86
305.891	76
306.121	79
306.352	84
306.582	77
306.812	90
307.042	75
307.272	84
307.502	93
307.731	78
307.961	85
308.191	74
308.421	90
308.651	87
308.881	74
309.111	81
309.341	79
309.571	92
309.8	92
310.03	96
310.26	92
310.49	84
310.72	87
310.949	77
311.179	73
311.409	66
311.639	75
311.868	81
312.098	80
312.328	99
312.557	79
312.787	89
313.017	92
313.246	82
313.476	82
313.706	92
313.935	94
314.165	78
314.394	89
314.624	85
314.853	95
315.083	74
315.312	86
315.542	76
315.771	81
316.001	81
316.23	74
316.46	86
316.689	87
316.919	79
317.148	83
317.377	74
317.607	87
317.836	85
318.065	87
318.295	93
318.524	84
318.753	73
318.983	89
319.212	90
319.441	95
319.67	74
319.9	76
320.129	101
320.358	93
320.587	79
320.816	88
321.046	87
321.275	82
321.504	80
321.733	90
321.962	102
322.191	84
322.42	82
322.649	99
322.878	91
323.108	83
323.337	90
323.566	89
323.795	87
324.024	92
324.253	89
324.482	92
324.71	83
324.939	80
325.168	89
325.397	95
325.626	86
325.855	90
326.084	83
326.313	84
326.542	82
326.77	91
326.999	79
327.228	91
327.457	89
327.686	70
327.914	76
328.143	105
328.372	78
328.6	74
328.829	78
329.058	82
329.287	90
329.515	80
329.744	91
329.972	85
330.201	82
330.43	85
330.658	84
330.887	88
331.115	84
331.344	80
331.572	82
331.801	73
332.03	90
332.258	89
332.486	80
332.715	76
332.943	81
333.172	79
333.4	99
333.629	82
333.857	83
334.085	83
334.314	82
334.542	87
334.771	79
334.999	88
335.227	80
335.455	83
335.684	89
335.912	89
336.14	82
336.369	86
336.597	100
336.825	75
337.053	73
337.281	89
337.51	91
337.738	83
337.966	85
338.194	88
338.422	98
338.65	84
338.878	90
339.106	89
339.334	103
339.562	75
339.79	73
340.018	88
340.246	89
340.474	82
340.702	97
340.93	85
341.158	74
341.386	86
341.614	103
341.842	88
342.07	83
342.298	84
342.526	72
342.754	86
342.981	81
343.209	81
343.437	66
343.665	86
343.893	79
344.12	85
344.348	88
344.576	86
344.804	95
345.031	81
345.259	81
345.487	83
345.714	90
345.942	87
346.17	83
346.397	90
346.625	75
346.853	90
347.08	97
347.308	76
347.535	82
347.763	87
347.99	84
348.218	79
348.445	82
348.673	76
348.9	82
349.128	97
349.355	70
349.583	84
349.81	86
350.037	80
350.265	93
350.492	73
350.72	83
350.947	88
351.174	86
351.402	83
351.629	77
351.856	89
352.083	82
352.311	83
352.538	92
352.765	83
352.992	83
353.22	91
353.447	90
353.674	93
353.901	64
354.128	79
354.355	80
354.583	72
354.81	83
355.037	94
355.264	82
355.491	86
355.718	81
355.945	88
356.172	91
356.399	84
356.626	83
356.853	71
357.08	95
357.307	94
357.534	91
357.761	85
357.988	93
358.215	74
358.441	92
358.668	87
358.895	82
359.122	81
359.349	90
359.576	89
359.802	93
360.029	77
360.256	81
360.483	96
360.709	75
360.936	81
361.163	95
361.39	83
361.616	83
361.843	82
362.07	90
362.296	86
362.523	81
362.749	76
362.976	79
363.203	81
363.429	74
363.656	91
363.882	80
364.109	95
364.335	88
364.562	92
364.788	102
365.015	86
365.241	90
365.468	89
365.694	85
365.92	81
366.147	86
366.373	83
366.599	87
366.826	82
367.052	79
367.278	91
367.505	82
367.731	82
367.957	83
368.184	90
368.41	78
368.636	72
368.862	80
369.089	76
369.315	92
369.541	78
369.767	87
369.993	82
370.219	82
370.445	85
370.672	83
370.898	84
371.124	79
371.35	87
371.576	80
371.802	86
372.028	80
372.254	91
372.48	81
372.706	71
372.932	86
373.158	79
373.384	74
373.61	77
373.835	87
374.061	74
374.287	100
374.513	74
374.739	96
374.965	91
375.191	92
375.416	96
375.642	96
375.868	96
376.094	92
376.319	91
376.545	90
376.771	80
376.997	90
377.222	89
377.448	90
377.674	88
377.899	82
378.125	86
378.35	76
378.576	76
378.802	85
379.027	82
379.253	87
379.478	83
379.704	96
379.929	103
380.155	76
380.38	85
380.606	89
380.831	88
381.057	95
381.282	87
381.507	80
381.733	87
381.958	87
382.184	86
382.409	76
382.634	82
382.86	82
383.085	96
383.31	91
383.535	86
383.761	81
383.986	88
384.211	91
384.436	79
384.662	85
384.887	91
385.112	71
385.337	74
385.562	88
385.787	88
386.013	97
386.238	80
386.463	68
386.688	81
386.913	96
387.138	91
387.363	79
387.588	87
387.813	66
388.038	87
388.263	88
388.488	87
388.713	83
388.938	92
389.163	92
389.387	98
389.612	87
389.837	98
390.062	90
390.287	97
390.512	90
390.736	80
390.961	98
391.186	103
391.411	94
391.636	94
391.86	87
392.085	77
392.31	71
392.534	88
392.759	92
392.984	86
393.208	97
393.433	90
393.658	87
393.882	80
394.107	93
394.331	79
394.556	72
394.78	90
395.005	89
395.229	77
395.454	81
395.678	88
395.903	82
396.127	85
396.352	105
396.576	73
396.801	83
397.025	86
397.249	85
397.474	105
397.698	100
397.922	90
398.147	88
398.371	90
398.595	90
398.82	93
399.044	90
399.268	78
399.492	80
399.717	77
399.941	72
400.165	86
400.389	81
400.613	85
400.837	91
401.062	87
401.286	92
401.51	102
401.734	97
401.958	83
402.182	100
402.406	96
402.63	92
402.854	89
403.078	97
403.302	87
403.526	87
403.75	88
403.974	98
404.198	95
404.422	91
404.645	91
404.869	85
405.093	80
405.317	103
405.541	77
405.765	83
405.988	102
406.212	79
406.436	92
406.66	88
406.883	78
407.107	82
407.331	88
407.555	84
407.778	98
408.002	87
408.226	94
408.449	80
408.673	95
408.896	90
409.12	88
409.344	102
409.567	92
409.791	84
410.014	103
410.238	92
410.461	88
410.685	87
410.908	86
411.132	95
411.355	99
411.578	86
411.802	89
412.025	73
412.249	86
412.472	91
412.695	87
412.919	90
413.142	84
413.365	87
413.589	104
413.812	98
414.035	81
414.258	86
414.482	101
414.705	97
414.928	78
415.151	114
415.374	101
415.597	105
415.821	95
416.044	86
416.267	95
416.49	89
416.713	85
416.936	99
417.159	100
417.382	89
417.605	97
417.828	84
418.051	90
418.274	96
418.497	91
418.72	80
418.943	82
419.166	97
419.389	95
419.611	98
419.834	100
420.057	111
420.28	91
420.503	94
420.726	97
420.948	92
421.171	86
421.394	88
421.617	90
421.839	82
422.062	90
422.285	90
422.507	105
422.73	112
422.953	95
423.175	94
423.398	80
423.621	81
423.843	89
424.066	95
424.288	98
424.511	105
424.733	93
424.956	97
425.178	95
425.401	95
425.623	88
425.846	92
426.068	85
426.291	82
426.513	95
426.735	102
426.958	80
427.18	90
427.402	93
427.625	93
427.847	80
428.069	104
428.292	86
428.514	98
428.736	90
428.958	88
429.181	94
429.403	91
429.625	81
429.847	99
430.069	75
430.292	92
430.514	106
430.736	93
430.958	95
431.18	91
431.402	104
431.624	78
431.846	80
432.068	91
432.29	93
432.512	98
432.734	90
432.956	97
433.178	101
433.4	93
433.622	82
433.844	75
434.066	94
434.287	90
434.509	81
434.731	86
434.953	82
435.175	81
435.397	96
435.618	79
435.84	91
436.062	86
436.284	95
436.505	94
436.727	88
436.949	93
437.17	95
437.392	86
437.614	93
437.835	86
438.057	94
438.278	85
438.5	81
438.721	94
438.943	87
439.165	103
439.386	101
439.608	95
439.829	96
440.05	103
440.272	97
440.493	91
440.715	103
440.936	95
441.158	105
441.379	89
441.6	80
441.822	101
442.043	112
442.264	95
442.486	97
442.707	96
442.928	97
443.149	87
443.371	99
443.592	104
443.813	87
444.034	84
444.255	88
444.476	98
444.698	105
444.919	95
445.14	235
445.361	155
445.582	110
445.803	101
446.024	103
446.245	120
446.466	88
446.687	93
446.908	101
447.129	111
447.35	97
447.571	95
447.792	103
448.013	108
448.234	100
448.455	103
448.675	95
448.896	92
449.117	92
449.338	98
449.559	91
449.779	91
450	96
450.221	87
450.442	98
450.662	102
450.883	102
451.104	95
451.324	100
451.545	90
451.766	91
451.986	102
452.207	93
452.428	95
452.648	89
452.869	105
453.089	86
453.31	87
453.53	80
453.751	84
453.971	95
454.192	71
454.412	76
454.633	87
454.853	90
455.073	85
455.294	80
455.514	92
455.734	102
455.955	94
456.175	87
456.395	98
456.616	93
456.836	76
457.056	90
457.276	80
457.497	90
457.717	99
457.937	94
458.157	91
458.377	90
458.598	86
458.818	71
459.038	74
459.258	76
459.478	83
459.698	85
459.918	85
460.138	81
460.358	94
460.578	90
460.798	92
461.018	99
461.238	90
461.458	81
461.678	101
461.898	90
462.118	98
462.338	92
462.558	94
462.777	82
462.997	85
463.217	79
463.437	91
463.657	82
463.876	99
464.096	95
464.316	82
464.536	83
464.755	83
464.975	95
465.195	90
465.414	102
465.634	94
465.854	98
466.073	87
466.293	87
466.512	89
466.732	101
466.951	108
467.171	103
467.391	103
467.61	86
467.829	91
468.049	100
468.268	87
468.488	97
468.707	88
468.927	95
469.146	101
469.365	83
469.585	87
469.804	96
470.023	91
470.243	90
470.462	84
470.681	80
470.901	105
471.12	101
471.339	95
471.558	97
471.777	95
471.997	97
472.216	84
472.435	90
472.654	80
472.873	86
473.092	80
473.311	88
473.53	94
473.749	96
473.968	90
474.187	99
474.406	93
474.625	91
474.844	98
475.063	100
475.282	99
475.501	98
475.72	100
475.939	95
476.158	88
476.377	103
476.596	92
476.814	91
477.033	96
477.252	92
477.471	92
477.69	108
477.908	114
478.127	95
478.346	104
478.564	103
478.783	95
479.002	100
479.22	94
479.439	97
479.658	82
479.876	83
480.095	90
480.313	97
480.532	88
480.751	94
480.969	84
481.188	91
481.406	90
481.624	86
481.843	89
482.061	85
482.28	91
482.498	90
482.717	97
482.935	111
483.153	98
483.372	93
483.59	108
483.808	83
484.027	102
484.245	99
484.463	113
484.681	108
484.9	98
485.118	91
485.336	85
485.554	90
485.772	91
485.99	91
486.209	88
486.427	86
486.645	101
486.863	94
487.081	105
487.299	102
487.517	100
487.735	101
487.953	117
488.171	103
488.389	106
488.607	110
488.825	103
489.043	97
489.261	96
489.479	100
489.696	110
489.914	95
490.132	96
490.35	90
490.568	96
490.786	101
491.003	105
491.221	123
491.439	101
491.657	120
491.874	124
492.092	124
492.31	135
492.527	130
492.745	109
492.963	119
493.18	117
493.398	91
493.615	113
493.833	118
494.05	110
494.268	120
494.485	102
494.703	106
494.92	103
495.138	101
495.355	122
495.573	110
495.79	110
496.008	124
496.225	100
496.442	101
496.66	104
496.877	114
497.094	101
497.312	112
497.529	113
497.746	99
497.963	98
498.181	102
498.398	88
498.615	105
498.832	84
499.049	84
499.267	97
499.484	91
499.701	106
499.918	97
500.135	107
500.352	107
500.569	105
500.786	107
501.003	96
501.22	99
501.437	97
501.654	112
501.871	80
502.088	99
502.305	86
502.522	95
502.739	100
502.956	92
503.172	81
503.389	84
503.606	93
503.823	104
504.04	105
504.256	102
504.473	89
504.69	83
504.907	103
505.123	79
505.34	90
505.557	95
505.773	85
505.99	84
506.207	84
506.423	94
506.64	113
506.856	86
507.073	97
507.289	107
507.506	93
507.722	96
507.939	82
508.155	81
508.372	95
508.588	99
508.805	85
509.021	98
509.238	102
509.454	92
509.67	79
509.887	75
510.103	76
510.319	87
510.536	88
510.752	76
510.968	89
511.184	85
511.401	94
511.617	82
511.833	87
512.049	99
512.265	85
512.481	96
512.698	74
512.914	95
513.13	96
513.346	82
513.562	84
513.778	88
513.994	88
514.21	84
514.426	80
514.642	93
514.858	86
515.074	83
515.29	100
515.506	92
515.721	82
515.937	79
516.153	84
516.369	85
516.585	84
516.801	87
517.016	85
517.232	89
517.448	88
517.664	76
517.879	91
518.095	93
518.311	68
518.527	86
518.742	90
518.958	80
519.173	107
519.389	84
519.605	97
519.82	88
520.036	79
520.251	95
520.467	76
520.682	89
520.898	74
521.113	91
521.329	86
521.544	76
521.76	93
521.975	76
522.19	76
522.406	79
522.621	79
522.836	89
523.052	97
523.267	95
523.482	100
523.698	93
523.913	98
524.128	91
524.343	88
524.559	98
524.774	93
524.989	100
525.204	92
525.419	81
525.634	67
525.849	83
526.064	88
526.28	91
526.495	82
526.71	82
526.925	82
527.14	95
527.355	87
527.57	79
527.785	87
527.999	82
528.214	88
528.429	87
528.644	84
528.859	106
529.074	102
529.289	99
529.503	115
529.718	99
529.933	85
530.148	101
530.363	91
530.577	82
530.792	80
531.007	89
531.221	90
531.436	81
531.651	80
531.865	84
532.08	84
532.295	90
532.509	80
532.724	90
532.938	80
533.153	117
533.367	78
533.582	96
533.796	95
534.011	98
534.225	74
534.44	87
534.654	92
534.868	82
535.083	86
535.297	84
535.511	94
535.726	79
535.94	106
536.154	85
536.369	95
536.583	87
536.797	87
537.011	85
537.225	76
537.44	81
537.654	82
537.868	78
538.082	98
538.296	99
538.51	100
538.724	89
538.938	97
539.153	96
539.367	100
539.581	89
539.795	75
540.009	93
540.222	98
540.436	87
540.65	96
540.864	101
541.078	103
541.292	112
541.506	118
541.72	112
541.934	110
542.147	122
542.361	116
542.575	111
542.789	99
543.002	103
543.216	79
543.43	96
543.644	104
543.857	102
544.071	105
544.285	128
544.498	88
544.712	102
544.925	100
545.139	99
545.352	105
545.566	112
545.779	112
545.993	122
546.206	95
546.42	103
546.633	86
546.847	110
547.06	112
547.274	113
547.487	111
547.7	89
547.914	103
548.127	103
548.34	124
548.554	103
548.767	112
548.98	110
549.193	104
549.407	112
549.62	99
549.833	107
550.046	105
550.259	107
550.473	118
550.686	108
550.899	112
551.112	112
551.325	105
551.538	110
551.751	88
551.964	96
552.177	107
552.39	102
552.603	110
552.816	97
553.029	101
553.242	100
553.455	95
553.667	97
553.88	101
554.093	98
554.306	96
554.519	101
554.732	98
554.944	106
555.157	104
555.37	101
555.583	105
555.795	103
556.008	94
556.221	100
556.433	85
556.646	88
556.859	99
557.071	94
557.284	105
557.496	90
557.709	95
557.921	105
558.134	101
558.346	98
558.559	103
558.771	105
558.984	119
559.196	105
559.409	103
559.621	98
559.833	95
560.046	100
560.258	77
560.47	108
560.683	99
560.895	100
561.107	101
561.32	95
561.532	106
561.744	89
561.956	86
562.168	100
562.381	92
562.593	97
562.805	89
563.017	100
563.229	107
563.441	96
563.653	103
563.865	79
564.077	95
564.289	108
564.501	90
564.713	101
564.925	97
565.137	98
565.349	116
565.561	100
565.773	114
565.985	98
566.197	92
566.408	98
566.62	92
566.832	102
567.044	98
567.255	94
567.467	95
567.679	91
567.891	67
568.102	98
568.314	81
568.526	83
568.737	88
568.949	86
569.161	89
569.372	85
569.584	86
569.795	81
570.007	92
570.218	95
570.43	86
570.641	94
570.853	75
571.064	87
571.276	86
571.487	88
571.698	78
571.91	83
572.121	82
572.333	99
572.544	83
572.755	94
572.966	88
573.178	86
573.389	94
573.6	74
573.811	88
574.023	84
574.234	91
574.445	91
574.656	86
574.867	84
575.078	73
575.289	86
575.501	96
575.712	101
575.923	92
576.134	86
576.345	101
576.556	84
576.767	94
576.978	83
577.188	84
577.399	84
577.61	80
577.821	74
578.032	80
578.243	75
578.454	78
578.665	75
578.875	84
579.086	98
579.297	67
579.508	88
579.718	83
579.929	82
580.14	103
580.35	88
580.561	80
580.772	93
580.982	79
581.193	94
581.403	95
581.614	90
581.825	94
582.035	84
582.246	82
582.456	84
582.667	92
582.877	83
583.087	92
583.298	83
583.508	87
583.719	62
583.929	88
584.139	82
584.35	86
584.56	94
584.77	100
584.981	82
585.191	73
585.401	83
585.611	88
585.821	86
586.032	90
586.242	85
586.452	73
586.662	89
586.872	96
587.082	90
587.292	94
587.502	94
587.713	82
587.923	91
588.133	68
588.343	79
588.553	84
588.762	99
588.972	102
589.182	85
589.392	83
589.602	100
589.812	83
590.022	82
590.232	68
590.441	82
590.651	94
590.861	75
591.071	80
591.281	87
591.49	101
591.7	69
591.91	80
592.119	91
592.329	97
592.539	81
592.748	86
592.958	89
593.167	81
593.377	83
593.587	97
593.796	81
594.006	79
594.215	79
594.424	92
594.634	96
594.843	76
595.053	86
595.262	95
595.472	76
595.681	85
595.89	89
596.1	83
596.309	80
596.518	105
596.727	89
596.937	79
597.146	86
597.355	104
597.564	88
597.774	101
597.983	88
598.192	97
598.401	74
598.61	83
598.819	86
599.028	91
599.237	92
599.446	97
599.655	84
599.864	76
600.073	95
600.282	72
600.491	78
600.7	81
600.909	82
601.118	89
601.327	90
601.536	94
601.745	86
601.953	86
602.162	87
602.371	89
602.58	74
602.789	99
602.997	89
603.206	77
603.415	96
603.623	93
603.832	71
604.041	90
604.249	90
604.458	91
604.666	83
604.875	97
605.084	95
605.292	84
605.501	93
605.709	94
605.918	93
606.126	115
606.334	98
606.543	101
606.751	92
606.96	92
607.168	92
607.376	93
607.585	99
607.793	100
608.001	85
608.21	76
608.418	93
608.626	85
608.834	94
609.043	98
609.251	106
609.459	93
609.667	86
609.875	96
610.083	86
610.291	97
610.499	90
610.707	102
610.916	91
611.124	100
611.332	95
611.54	89
611.748	83
611.955	94
612.163	95
612.371	93
612.579	88
612.787	94
612.995	90
613.203	104
613.411	71
613.618	94
613.826	85
614.034	93
614.242	74
614.449	83
614.657	96
614.865	92
615.072	84
615.28	94
615.488	88
615.695	91
615.903	99
616.111	102
616.318	107
616.526	90
616.733	100
616.941	95
617.148	92
617.356	88
617.563	96
617.771	94
617.978	91
618.185	87
618.393	84
618.6	81
618.807	80
619.015	84
619.222	103
619.429	74
619.637	103
619.844	95
620.051	80
620.258	98
620.466	103
620.673	89
620.88	102
621.087	97
621.294	74
621.501	82
621.708	87
621.915	88
622.122	103
622.329	88
622.536	81
622.743	89
622.95	99
623.157	87
623.364	88
623.571	97
623.778	96
623.985	100
624.192	95
624.399	100
624.606	95
624.812	87
625.019	96
625.226	97
625.433	84
625.639	79
625.846	73
626.053	85
626.259	88
626.466	79
626.673	85
626.879	93
627.086	79
627.293	86
627.499	86
627.706	91
627.912	91
628.119	90
628.325	93
628.532	82
628.738	101
628.945	77
629.151	89
629.357	100
629.564	81
629.77	75
629.976	86
630.183	86
630.389	97
630.595	91
630.802	94
631.008	94
631.214	80
631.42	97
631.627	86
631.833	82
632.039	96
632.245	78
632.451	83
632.657	86
632.863	93
633.069	90
633.275	85
633.481	90
633.688	83
633.893	100
634.099	85
634.305	79
634.511	94
634.717	88
634.923	86
635.129	80
635.335	88
635.541	86
635.747	91
635.952	96
636.158	89
636.364	92
636.57	90
636.775	110
636.981	71
637.187	73
637.392	89
637.598	90
637.804	73
638.009	87
638.215	101
638.421	89
638.626	79
638.832	73
639.037	84
639.243	89
639.448	104
639.654	105
639.859	100
640.065	72
640.27	86
640.475	97
640.681	83
640.886	82
641.091	75
641.297	91
641.502	75
641.707	96
641.913	87
642.118	92
642.323	86
642.528	91
642.733	83
642.939	81
643.144	82
643.349	88
643.554	92
643.759	89
643.964	84
644.169	78
644.374	78
644.579	77
644.784	98
644.989	68
645.194	90
645.399	99
645.604	88
645.809	96
646.014	73
646.219	86
646.423	90
646.628	98
646.833	82
647.038	92
647.243	90
647.447	80
647.652	102
647.857	89
648.062	102
648.266	95
648.471	85
648.676	84
648.88	74
649.085	91
649.289	82
649.494	84
649.698	89
649.903	90
650.107	93
650.312	90
650.516	99
650.721	87
650.925	76
651.13	90
651.334	92
651.539	90
651.743	84
651.947	80
652.152	98
652.356	89
652.56	91
652.764	88
652.969	90
653.173	90
653.377	84
653.581	78
653.785	84
653.99	86
654.194	80
654.398	82
654.602	76
654.806	83
655.01	87
655.214	95
655.418	87
655.622	95
655.826	88
656.03	82
656.234	73
656.438	96
656.642	89
656.846	86
657.049	83
657.253	80
657.457	71
657.661	90
657.865	77
658.068	76
658.272	78
658.476	96
658.68	81
658.883	74
659.087	66
659.291	85
659.494	72
659.698	89
659.901	84
660.105	86
660.309	82
660.512	93
660.716	86
660.919	88
661.123	74
661.326	79
661.53	96
661.733	89
661.936	82
662.14	77
662.343	72
662.546	82
662.75	96
662.953	72
663.156	81
663.36	82
663.563	80
663.766	77
663.969	83
664.173	76
664.376	75
664.579	89
664.782	85
664.985	90
665.188	72
665.391	91
665.594	81
665.797	76
666	88
666.203	72
666.406	78
666.609	84
666.812	91
667.015	81
667.218	75
667.421	92
667.624	77
667.827	90
668.03	88
668.232	82
668.435	87
668.638	87
668.841	103
669.043	82
669.246	85
669.449	80
669.651	81
669.854	67
670.057	92
670.259	87
670.462	86
670.665	86
670.867	77
671.07	63
671.272	73
671.475	85
671.677	67
671.88	86
672.082	77
672.284	89
672.487	97
672.689	93
672.892	91
