Data from Location4.07152019.Energy5.Lamp.07192019.3%Agarose_HRD10591_15-25-38-578.txt Node
Date: Fri Jul 19 15:25:38 EDT 2019
User: cochatt
Spectrometer: HR+D1059
Trigger mode: 1
Integration Time (sec): 1.000000E-1
Scans to average: 1
Electric dark correction enabled: true
Nonlinearity correction enabled: false
Boxcar width: 0
XAxis mode: Wavelengths
Number of Pixels in Spectrum: 2048
>>>>>Begin Spectral Data<<<<<
223.165	-18
223.4	-18
223.635	-18
223.869	-18
224.104	-33
224.338	-2
224.573	-14
224.808	-27
225.042	-9
225.277	-2
225.511	9
225.746	3
225.98	2
226.215	8
226.449	9
226.683	23
226.918	31
227.152	38
227.387	40
227.621	38
227.856	27
228.09	34
228.324	56
228.559	60
228.793	49
229.027	50
229.262	69
229.496	63
229.73	61
229.964	71
230.199	56
230.433	62
230.667	66
230.901	70
231.136	69
231.37	79
231.604	81
231.838	88
232.072	75
232.306	85
232.541	83
232.775	63
233.009	74
233.243	72
233.477	80
233.711	69
233.945	80
234.179	76
234.413	81
234.647	80
234.881	80
235.115	76
235.349	77
235.583	74
235.817	76
236.051	85
236.285	89
236.519	84
236.753	69
236.987	71
237.221	75
237.455	69
237.689	94
237.922	62
238.156	70
238.39	72
238.624	66
238.858	74
239.091	75
239.325	80
239.559	85
239.793	70
240.027	64
240.26	66
240.494	77
240.728	60
240.961	56
241.195	64
241.429	72
241.662	76
241.896	58
242.13	61
242.363	79
242.597	69
242.83	63
243.064	86
243.298	76
243.531	77
243.765	73
243.998	69
244.232	64
244.465	60
244.699	74
244.932	76
245.166	78
245.399	70
245.633	66
245.866	78
246.099	82
246.333	62
246.566	76
246.8	74
247.033	57
247.266	72
247.5	77
247.733	76
247.966	79
248.2	76
248.433	63
248.666	70
248.899	75
249.133	75
249.366	86
249.599	75
249.832	74
250.066	67
250.299	80
250.532	84
250.765	74
250.998	70
251.231	73
251.465	72
251.698	74
251.931	74
252.164	81
252.397	72
252.63	76
252.863	84
253.096	68
253.329	82
253.562	75
253.795	77
254.028	71
254.261	69
254.494	65
254.727	80
254.96	81
255.193	80
255.426	92
255.659	81
255.892	78
256.124	77
256.357	68
256.59	90
256.823	79
257.056	88
257.289	80
257.521	82
257.754	82
257.987	79
258.22	77
258.452	84
258.685	79
258.918	73
259.151	84
259.383	80
259.616	73
259.849	84
260.081	86
260.314	80
260.547	89
260.779	69
261.012	83
261.244	88
261.477	75
261.71	63
261.942	77
262.175	81
262.407	92
262.64	84
262.872	77
263.105	77
263.337	84
263.57	62
263.802	80
264.035	67
264.267	67
264.499	78
264.732	90
264.964	67
265.197	71
265.429	77
265.661	78
265.894	73
266.126	73
266.358	72
266.591	72
266.823	65
267.055	59
267.287	83
267.52	68
267.752	78
267.984	67
268.216	69
268.448	85
268.681	79
268.913	86
269.145	80
269.377	88
269.609	72
269.841	74
270.073	65
270.306	82
270.538	80
270.77	67
271.002	78
271.234	85
271.466	84
271.698	77
271.93	93
272.162	83
272.394	72
272.626	81
272.858	89
273.09	90
273.322	84
273.553	69
273.785	67
274.017	80
274.249	80
274.481	66
274.713	79
274.945	86
275.176	80
275.408	88
275.64	85
275.872	73
276.104	84
276.335	80
276.567	86
276.799	92
277.031	67
277.262	94
277.494	81
277.726	72
277.957	76
278.189	70
278.421	86
278.652	94
278.884	59
279.115	84
279.347	83
279.579	101
279.81	72
280.042	82
280.273	74
280.505	96
280.736	86
280.968	95
281.199	77
281.431	81
281.662	82
281.894	82
282.125	100
282.356	92
282.588	80
282.819	80
283.051	85
283.282	78
283.513	81
283.745	73
283.976	86
284.207	62
284.439	76
284.67	90
284.901	73
285.132	92
285.364	79
285.595	74
285.826	76
286.057	84
286.288	81
286.52	95
286.751	73
286.982	67
287.213	84
287.444	86
287.675	83
287.906	83
288.138	74
288.369	82
288.6	83
288.831	83
289.062	73
289.293	85
289.524	76
289.755	82
289.986	79
290.217	88
290.448	79
290.679	84
290.91	80
291.141	88
291.371	89
291.602	87
291.833	77
292.064	79
292.295	74
292.526	84
292.757	85
292.987	76
293.218	79
293.449	65
293.68	65
293.91	95
294.141	90
294.372	70
294.603	80
294.833	72
295.064	97
295.295	86
295.525	85
295.756	85
295.987	74
296.217	81
296.448	80
296.679	80
296.909	83
297.14	90
297.37	81
297.601	80
297.831	83
298.062	72
298.292	76
298.523	86
298.753	80
298.984	89
299.214	71
299.445	94
299.675	74
299.905	82
300.136	78
300.366	78
300.597	74
300.827	88
301.057	93
301.288	80
301.518	65
301.748	72
301.979	70
302.209	91
302.439	86
302.669	87
302.9	90
303.13	84
303.36	76
303.59	78
303.82	85
304.051	81
304.281	78
304.511	91
304.741	76
304.971	84
305.201	82
305.431	90
305.661	90
305.891	79
306.121	82
306.352	77
306.582	70
306.812	80
307.042	83
307.272	73
307.502	86
307.731	78
307.961	82
308.191	81
308.421	89
308.651	81
308.881	89
309.111	87
309.341	79
309.571	83
309.8	65
310.03	91
310.26	90
310.49	77
310.72	85
310.949	85
311.179	80
311.409	79
311.639	70
311.868	79
312.098	64
312.328	80
312.557	74
312.787	76
313.017	83
313.246	82
313.476	82
313.706	82
313.935	90
314.165	80
314.394	82
314.624	79
314.853	79
315.083	74
315.312	72
315.542	67
315.771	80
316.001	92
316.23	81
316.46	71
316.689	80
316.919	89
317.148	74
317.377	74
317.607	82
317.836	86
318.065	81
318.295	70
318.524	84
318.753	82
318.983	77
319.212	88
319.441	87
319.67	93
319.9	88
320.129	85
320.358	65
320.587	82
320.816	79
321.046	78
321.275	67
321.504	90
321.733	85
321.962	74
322.191	82
322.42	77
322.649	67
322.878	86
323.108	89
323.337	88
323.566	92
323.795	78
324.024	87
324.253	85
324.482	87
324.71	70
324.939	84
325.168	82
325.397	81
325.626	94
325.855	79
326.084	84
326.313	90
326.542	82
326.77	78
326.999	85
327.228	79
327.457	78
327.686	79
327.914	82
328.143	101
328.372	79
328.6	86
328.829	72
329.058	83
329.287	84
329.515	80
329.744	76
329.972	78
330.201	79
330.43	87
330.658	79
330.887	80
331.115	77
331.344	78
331.572	77
331.801	90
332.03	86
332.258	79
332.486	81
332.715	73
332.943	81
333.172	80
333.4	85
333.629	84
333.857	69
334.085	73
334.314	81
334.542	83
334.771	80
334.999	94
335.227	94
335.455	75
335.684	77
335.912	83
336.14	82
336.369	76
336.597	80
336.825	70
337.053	87
337.281	77
337.51	84
337.738	87
337.966	73
338.194	88
338.422	78
338.65	82
338.878	86
339.106	80
339.334	81
339.562	79
339.79	79
340.018	74
340.246	97
340.474	82
340.702	84
340.93	86
341.158	76
341.386	87
341.614	85
341.842	69
342.07	82
342.298	80
342.526	77
342.754	71
342.981	73
343.209	88
343.437	78
343.665	63
343.893	92
344.12	95
344.348	87
344.576	76
344.804	81
345.031	81
345.259	89
345.487	84
345.714	81
345.942	93
346.17	80
346.397	74
346.625	85
346.853	78
347.08	86
347.308	77
347.535	77
347.763	85
347.99	86
348.218	73
348.445	74
348.673	82
348.9	65
349.128	83
349.355	74
349.583	87
349.81	70
350.037	88
350.265	75
350.492	75
350.72	81
350.947	95
351.174	85
351.402	71
351.629	70
351.856	71
352.083	86
352.311	84
352.538	84
352.765	88
352.992	81
353.22	70
353.447	87
353.674	84
353.901	88
354.128	72
354.355	80
354.583	79
354.81	78
355.037	84
355.264	88
355.491	89
355.718	83
355.945	81
356.172	74
356.399	81
356.626	85
356.853	67
357.08	80
357.307	94
357.534	93
357.761	88
357.988	85
358.215	99
358.441	75
358.668	84
358.895	76
359.122	75
359.349	86
359.576	85
359.802	76
360.029	79
360.256	84
360.483	82
360.709	68
360.936	81
361.163	89
361.39	84
361.616	78
361.843	82
362.07	70
362.296	87
362.523	94
362.749	87
362.976	87
363.203	86
363.429	106
363.656	73
363.882	79
364.109	86
364.335	84
364.562	83
364.788	81
365.015	73
365.241	81
365.468	89
365.694	85
365.92	89
366.147	82
366.373	76
366.599	76
366.826	81
367.052	76
367.278	86
367.505	77
367.731	89
367.957	76
368.184	86
368.41	73
368.636	89
368.862	74
369.089	72
369.315	88
369.541	83
369.767	85
369.993	74
370.219	85
370.445	82
370.672	90
370.898	78
371.124	71
371.35	84
371.576	71
371.802	84
372.028	95
372.254	89
372.48	81
372.706	78
372.932	81
373.158	89
373.384	75
373.61	74
373.835	71
374.061	74
374.287	95
374.513	89
374.739	92
374.965	84
375.191	76
375.416	86
375.642	86
375.868	93
376.094	70
376.319	95
376.545	91
376.771	88
376.997	81
377.222	87
377.448	70
377.674	67
377.899	93
378.125	76
378.35	96
378.576	73
378.802	79
379.027	84
379.253	64
379.478	90
379.704	87
379.929	79
380.155	79
380.38	83
380.606	90
380.831	81
381.057	104
381.282	87
381.507	88
381.733	88
381.958	82
382.184	83
382.409	61
382.634	74
382.86	87
383.085	79
383.31	83
383.535	80
383.761	86
383.986	78
384.211	88
384.436	74
384.662	84
384.887	87
385.112	88
385.337	88
385.562	84
385.787	80
386.013	82
386.238	86
386.463	99
386.688	90
386.913	96
387.138	82
387.363	87
387.588	96
387.813	91
388.038	90
388.263	67
388.488	96
388.713	84
388.938	89
389.163	77
389.387	75
389.612	82
389.837	79
390.062	80
390.287	91
390.512	79
390.736	84
390.961	73
391.186	80
391.411	89
391.636	76
391.86	80
392.085	83
392.31	80
392.534	95
392.759	86
392.984	89
393.208	86
393.433	81
393.658	77
393.882	74
394.107	78
394.331	102
394.556	93
394.78	77
395.005	89
395.229	87
395.454	82
395.678	79
395.903	82
396.127	82
396.352	93
396.576	79
396.801	84
397.025	72
397.249	89
397.474	82
397.698	89
397.922	73
398.147	80
398.371	93
398.595	84
398.82	93
399.044	102
399.268	72
399.492	77
399.717	94
399.941	82
400.165	87
400.389	80
400.613	88
400.837	78
401.062	76
401.286	87
401.51	97
401.734	89
401.958	88
402.182	73
402.406	81
402.63	90
402.854	82
403.078	72
403.302	84
403.526	90
403.75	79
403.974	92
404.198	87
404.422	93
404.645	84
404.869	93
405.093	85
405.317	84
405.541	92
405.765	84
405.988	85
406.212	90
406.436	92
406.66	88
406.883	80
407.107	71
407.331	85
407.555	88
407.778	86
408.002	96
408.226	85
408.449	84
408.673	93
408.896	75
409.12	92
409.344	92
409.567	94
409.791	92
410.014	82
410.238	93
410.461	79
410.685	97
410.908	92
411.132	78
411.355	76
411.578	89
411.802	82
412.025	81
412.249	97
412.472	73
412.695	79
412.919	88
413.142	95
413.365	89
413.589	93
413.812	95
414.035	103
414.258	88
414.482	78
414.705	98
414.928	89
415.151	91
415.374	88
415.597	91
415.821	91
416.044	91
416.267	90
416.49	85
416.713	93
416.936	84
417.159	80
417.382	96
417.605	93
417.828	84
418.051	89
418.274	108
418.497	84
418.72	84
418.943	109
419.166	76
419.389	95
419.611	90
419.834	88
420.057	100
420.28	76
420.503	103
420.726	98
420.948	96
421.171	84
421.394	94
421.617	94
421.839	92
422.062	107
422.285	93
422.507	83
422.73	102
422.953	99
423.175	89
423.398	90
423.621	100
423.843	89
424.066	97
424.288	99
424.511	95
424.733	86
424.956	88
425.178	91
425.401	97
425.623	88
425.846	92
426.068	105
426.291	80
426.513	97
426.735	90
426.958	89
427.18	104
427.402	94
427.625	93
427.847	84
428.069	89
428.292	80
428.514	88
428.736	75
428.958	85
429.181	92
429.403	88
429.625	104
429.847	94
430.069	100
430.292	100
430.514	105
430.736	88
430.958	72
431.18	98
431.402	100
431.624	96
431.846	103
432.068	97
432.29	83
432.512	94
432.734	94
432.956	83
433.178	103
433.4	95
433.622	88
433.844	95
434.066	101
434.287	92
434.509	88
434.731	85
434.953	92
435.175	80
435.397	89
435.618	86
435.84	76
436.062	97
436.284	76
436.505	90
436.727	91
436.949	94
437.17	96
437.392	87
437.614	99
437.835	66
438.057	93
438.278	81
438.5	82
438.721	95
438.943	93
439.165	83
439.386	98
439.608	92
439.829	98
440.05	104
440.272	97
440.493	97
440.715	89
440.936	96
441.158	92
441.379	106
441.6	108
441.822	106
442.043	87
442.264	89
442.486	89
442.707	90
442.928	107
443.149	98
443.371	101
443.592	85
443.813	101
444.034	104
444.255	101
444.476	80
444.698	84
444.919	95
445.14	218
445.361	156
445.582	109
445.803	83
446.024	102
446.245	97
446.466	99
446.687	90
446.908	99
447.129	111
447.35	96
447.571	100
447.792	84
448.013	89
448.234	102
448.455	86
448.675	88
448.896	98
449.117	103
449.338	104
449.559	95
449.779	99
450	100
450.221	95
450.442	95
450.662	90
450.883	97
451.104	89
451.324	89
451.545	96
451.766	80
451.986	88
452.207	100
452.428	95
452.648	101
452.869	89
453.089	81
453.31	90
453.53	76
453.751	74
453.971	81
454.192	89
454.412	93
454.633	82
454.853	105
455.073	96
455.294	83
455.514	94
455.734	90
455.955	77
456.175	93
456.395	85
456.616	83
456.836	69
457.056	86
457.276	92
457.497	103
457.717	73
457.937	99
458.157	74
458.377	85
458.598	99
458.818	80
459.038	92
459.258	93
459.478	78
459.698	86
459.918	76
460.138	89
460.358	99
460.578	85
460.798	90
461.018	83
461.238	92
461.458	81
461.678	83
461.898	102
462.118	78
462.338	86
462.558	95
462.777	92
462.997	87
463.217	77
463.437	98
463.657	96
463.876	83
464.096	89
464.316	95
464.536	96
464.755	98
464.975	88
465.195	80
465.414	87
465.634	97
465.854	87
466.073	100
466.293	91
466.512	77
466.732	106
466.951	104
467.171	87
467.391	96
467.61	93
467.829	107
468.049	92
468.268	97
468.488	99
468.707	97
468.927	110
469.146	94
469.365	98
469.585	93
469.804	83
470.023	86
470.243	97
470.462	98
470.681	95
470.901	92
471.12	104
471.339	100
471.558	101
471.777	96
471.997	92
472.216	90
472.435	106
472.654	90
472.873	90
473.092	86
473.311	105
473.53	86
473.749	90
473.968	93
474.187	101
474.406	85
474.625	86
474.844	97
475.063	95
475.282	90
475.501	98
475.72	83
475.939	75
476.158	95
476.377	95
476.596	78
476.814	84
477.033	92
477.252	87
477.471	95
477.69	93
477.908	107
478.127	99
478.346	95
478.564	106
478.783	91
479.002	96
479.22	91
479.439	109
479.658	100
479.876	87
480.095	98
480.313	78
480.532	89
480.751	89
480.969	81
481.188	82
481.406	81
481.624	89
481.843	60
482.061	81
482.28	90
482.498	83
482.717	94
482.935	95
483.153	104
483.372	92
483.59	90
483.808	102
484.027	100
484.245	95
484.463	87
484.681	100
484.9	105
485.118	92
485.336	91
485.554	105
485.772	78
485.99	82
486.209	92
486.427	90
486.645	97
486.863	94
487.081	96
487.299	95
487.517	80
487.735	100
487.953	104
488.171	115
488.389	110
488.607	98
488.825	101
489.043	100
489.261	100
489.479	98
489.696	90
489.914	93
490.132	102
490.35	103
490.568	112
490.786	95
491.003	100
491.221	110
491.439	105
491.657	112
491.874	114
492.092	109
492.31	142
492.527	119
492.745	118
492.963	128
493.18	116
493.398	86
493.615	117
493.833	110
494.05	93
494.268	108
494.485	124
494.703	121
494.92	94
495.138	102
495.355	121
495.573	105
495.79	100
496.008	104
496.225	120
496.442	101
496.66	110
496.877	103
497.094	112
497.312	108
497.529	86
497.746	99
497.963	97
498.181	99
498.398	98
498.615	94
498.832	97
499.049	90
499.267	99
499.484	91
499.701	97
499.918	103
500.135	96
500.352	100
500.569	102
500.786	103
501.003	95
501.22	111
501.437	102
501.654	100
501.871	93
502.088	89
502.305	100
502.522	84
502.739	89
502.956	91
503.172	95
503.389	93
503.606	100
503.823	96
504.04	99
504.256	97
504.473	90
504.69	91
504.907	95
505.123	94
505.34	94
505.557	101
505.773	99
505.99	91
506.207	87
506.423	98
506.64	91
506.856	93
507.073	75
507.289	86
507.506	93
507.722	88
507.939	88
508.155	79
508.372	85
508.588	92
508.805	86
509.021	88
509.238	94
509.454	89
509.67	80
509.887	82
510.103	73
510.319	97
510.536	81
510.752	73
510.968	79
511.184	86
511.401	85
511.617	83
511.833	80
512.049	83
512.265	83
512.481	81
512.698	67
512.914	80
513.13	84
513.346	68
513.562	83
513.778	85
513.994	86
514.21	82
514.426	75
514.642	77
514.858	81
515.074	91
515.29	88
515.506	74
515.721	77
515.937	82
516.153	84
516.369	80
516.585	90
516.801	88
517.016	82
517.232	82
517.448	93
517.664	77
517.879	90
518.095	87
518.311	88
518.527	84
518.742	84
518.958	81
519.173	90
519.389	74
519.605	103
519.82	90
520.036	84
520.251	90
520.467	75
520.682	87
520.898	92
521.113	80
521.329	84
521.544	79
521.76	91
521.975	75
522.19	76
522.406	83
522.621	94
522.836	92
523.052	74
523.267	82
523.482	92
523.698	82
523.913	88
524.128	88
524.343	93
524.559	82
524.774	92
524.989	92
525.204	102
525.419	96
525.634	80
525.849	72
526.064	85
526.28	84
526.495	80
526.71	92
526.925	74
527.14	69
527.355	79
527.57	91
527.785	84
527.999	83
528.214	79
528.429	92
528.644	98
528.859	93
529.074	109
529.289	104
529.503	96
529.718	93
529.933	90
530.148	79
530.363	87
530.577	79
530.792	70
531.007	83
531.221	81
531.436	92
531.651	86
531.865	78
532.08	99
532.295	77
532.509	70
532.724	101
532.938	82
533.153	78
533.367	80
533.582	105
533.796	85
534.011	90
534.225	87
534.44	92
534.654	90
534.868	84
535.083	93
535.297	94
535.511	93
535.726	74
535.94	83
536.154	84
536.369	92
536.583	81
536.797	72
537.011	87
537.225	80
537.44	72
537.654	70
537.868	81
538.082	67
538.296	82
538.51	85
538.724	89
538.938	95
539.153	90
539.367	92
539.581	77
539.795	80
540.009	85
540.222	102
540.436	85
540.65	94
540.864	93
541.078	103
541.292	110
541.506	97
541.72	106
541.934	112
542.147	115
542.361	136
542.575	112
542.789	112
543.002	91
543.216	98
543.43	93
543.644	85
543.857	88
544.071	108
544.285	105
544.498	112
544.712	107
544.925	94
545.139	99
545.352	96
545.566	92
545.779	101
545.993	130
546.206	116
546.42	101
546.633	93
546.847	117
547.06	116
547.274	115
547.487	114
547.7	118
547.914	98
548.127	85
548.34	115
548.554	105
548.767	118
548.98	103
549.193	99
549.407	109
549.62	97
549.833	99
550.046	111
550.259	89
550.473	106
550.686	96
550.899	112
551.112	95
551.325	92
551.538	95
551.751	109
551.964	93
552.177	105
552.39	95
552.603	100
552.816	108
553.029	113
553.242	113
553.455	129
553.667	108
553.88	100
554.093	113
554.306	108
554.519	108
554.732	93
554.944	84
555.157	95
555.37	94
555.583	98
555.795	96
556.008	100
556.221	101
556.433	96
556.646	108
556.859	116
557.071	102
557.284	103
557.496	88
557.709	92
557.921	104
558.134	89
558.346	104
558.559	95
558.771	99
558.984	104
559.196	94
559.409	95
559.621	90
559.833	99
560.046	107
560.258	96
560.47	91
560.683	118
560.895	108
561.107	100
561.32	108
561.532	97
561.744	105
561.956	101
562.168	107
562.381	95
562.593	89
562.805	91
563.017	97
563.229	101
563.441	101
563.653	88
563.865	95
564.077	91
564.289	101
564.501	88
564.713	105
564.925	98
565.137	89
565.349	102
565.561	93
565.773	100
565.985	92
566.197	89
566.408	95
566.62	97
566.832	66
567.044	88
567.255	101
567.467	88
567.679	90
567.891	89
568.102	86
568.314	90
568.526	92
568.737	73
568.949	82
569.161	81
569.372	85
569.584	89
569.795	74
570.007	86
570.218	74
570.43	87
570.641	73
570.853	87
571.064	86
571.276	97
571.487	92
571.698	98
571.91	69
572.121	89
572.333	96
572.544	80
572.755	98
572.966	83
573.178	74
573.389	92
573.6	80
573.811	70
574.023	72
574.234	79
574.445	84
574.656	78
574.867	76
575.078	85
575.289	97
575.501	85
575.712	77
575.923	78
576.134	84
576.345	96
576.556	77
576.767	86
576.978	82
577.188	90
577.399	81
577.61	97
577.821	90
578.032	82
578.243	74
578.454	89
578.665	93
578.875	81
579.086	82
579.297	83
579.508	69
579.718	76
579.929	84
580.14	89
580.35	90
580.561	78
580.772	71
580.982	75
581.193	89
581.403	82
581.614	95
581.825	90
582.035	88
582.246	99
582.456	84
582.667	85
582.877	89
583.087	80
583.298	90
583.508	76
583.719	82
583.929	95
584.139	85
584.35	70
584.56	88
584.77	79
584.981	72
585.191	87
585.401	63
585.611	72
585.821	76
586.032	80
586.242	88
586.452	87
586.662	78
586.872	70
587.082	83
587.292	85
587.502	94
587.713	86
587.923	88
588.133	85
588.343	97
588.553	80
588.762	80
588.972	69
589.182	80
589.392	77
589.602	86
589.812	70
590.022	87
590.232	71
590.441	79
590.651	96
590.861	91
591.071	85
591.281	95
591.49	74
591.7	91
591.91	85
592.119	92
592.329	72
592.539	85
592.748	80
592.958	76
593.167	73
593.377	89
593.587	90
593.796	90
594.006	79
594.215	84
594.424	83
594.634	94
594.843	82
595.053	80
595.262	83
595.472	73
595.681	78
595.89	92
596.1	84
596.309	96
596.518	84
596.727	89
596.937	82
597.146	80
597.355	81
597.564	80
597.774	87
597.983	75
598.192	90
598.401	67
598.61	85
598.819	73
599.028	68
599.237	80
599.446	90
599.655	87
599.864	77
600.073	83
600.282	78
600.491	81
600.7	81
600.909	88
601.118	88
601.327	71
601.536	95
601.745	74
601.953	86
602.162	89
602.371	83
602.58	86
602.789	85
602.997	96
603.206	96
603.415	84
603.623	97
603.832	91
604.041	91
604.249	90
604.458	99
604.666	82
604.875	80
605.084	74
605.292	97
605.501	87
605.709	90
605.918	77
606.126	89
606.334	88
606.543	95
606.751	93
606.96	93
607.168	90
607.376	85
607.585	90
607.793	100
608.001	98
608.21	99
608.418	71
608.626	80
608.834	83
609.043	98
609.251	104
609.459	87
609.667	88
609.875	92
610.083	89
610.291	95
610.499	97
610.707	79
610.916	85
611.124	86
611.332	90
611.54	93
611.748	77
611.955	87
612.163	93
612.371	92
612.579	89
612.787	97
612.995	95
613.203	98
613.411	89
613.618	91
613.826	87
614.034	71
614.242	97
614.449	88
614.657	86
614.865	99
615.072	94
615.28	103
615.488	79
615.695	104
615.903	95
616.111	89
616.318	86
616.526	98
616.733	77
616.941	85
617.148	85
617.356	89
617.563	84
617.771	80
617.978	87
618.185	87
618.393	85
618.6	80
618.807	102
619.015	97
619.222	83
619.429	89
619.637	95
619.844	82
620.051	92
620.258	94
620.466	84
620.673	78
620.88	81
621.087	97
621.294	79
621.501	84
621.708	95
621.915	97
622.122	82
622.329	97
622.536	100
622.743	88
622.95	102
623.157	92
623.364	103
623.571	89
623.778	106
623.985	99
624.192	95
624.399	89
624.606	88
624.812	103
625.019	84
625.226	95
625.433	92
625.639	82
625.846	83
626.053	79
626.259	77
626.466	72
626.673	80
626.879	73
627.086	93
627.293	84
627.499	78
627.706	78
627.912	94
628.119	84
628.325	91
628.532	79
628.738	80
628.945	82
629.151	92
629.357	86
629.564	79
629.77	85
629.976	87
630.183	81
630.389	93
630.595	92
630.802	99
631.008	96
631.214	71
631.42	87
631.627	92
631.833	84
632.039	99
632.245	79
632.451	93
632.657	90
632.863	98
633.069	77
633.275	90
633.481	87
633.688	96
633.893	102
634.099	92
634.305	103
634.511	88
634.717	89
634.923	87
635.129	91
635.335	86
635.541	96
635.747	87
635.952	77
636.158	86
636.364	82
636.57	85
636.775	82
636.981	84
637.187	92
637.392	91
637.598	94
637.804	90
638.009	84
638.215	82
638.421	85
638.626	88
638.832	78
639.037	81
639.243	82
639.448	74
639.654	83
639.859	80
640.065	85
640.27	87
640.475	67
640.681	84
640.886	76
641.091	85
641.297	95
641.502	92
641.707	84
641.913	94
642.118	80
642.323	96
642.528	80
642.733	94
642.939	91
643.144	94
643.349	96
643.554	85
643.759	95
643.964	88
644.169	92
644.374	83
644.579	73
644.784	92
644.989	91
645.194	76
645.399	74
645.604	91
645.809	92
646.014	87
646.219	84
646.423	86
646.628	87
646.833	99
647.038	87
647.243	95
647.447	97
647.652	86
647.857	81
648.062	87
648.266	82
648.471	85
648.676	97
648.88	85
649.085	76
649.289	91
649.494	97
649.698	81
649.903	92
650.107	86
650.312	75
650.516	85
650.721	88
650.925	77
651.13	85
651.334	92
651.539	86
651.743	87
651.947	92
652.152	98
652.356	81
652.56	89
652.764	85
652.969	70
653.173	88
653.377	82
653.581	88
653.785	97
653.99	89
654.194	86
654.398	73
654.602	77
654.806	83
655.01	77
655.214	93
655.418	77
655.622	93
655.826	80
656.03	73
656.234	88
656.438	82
656.642	95
656.846	85
657.049	75
657.253	96
657.457	92
657.661	77
657.865	79
658.068	90
658.272	81
658.476	84
658.68	76
658.883	81
659.087	93
659.291	74
659.494	72
659.698	79
659.901	80
660.105	90
660.309	84
660.512	66
660.716	77
660.919	70
661.123	82
661.326	84
661.53	80
661.733	68
661.936	87
662.14	92
662.343	93
662.546	79
662.75	77
662.953	83
663.156	63
663.36	83
663.563	72
663.766	90
663.969	85
664.173	90
664.376	85
664.579	91
664.782	69
664.985	94
665.188	72
665.391	83
665.594	77
665.797	101
666	78
666.203	70
666.406	72
666.609	70
666.812	97
667.015	84
667.218	81
667.421	82
667.624	91
667.827	76
668.03	77
668.232	90
668.435	82
668.638	82
668.841	70
669.043	89
669.246	90
669.449	101
669.651	62
669.854	78
670.057	77
670.259	85
670.462	79
670.665	90
670.867	64
671.07	73
671.272	74
671.475	91
671.677	77
671.88	92
672.082	83
672.284	80
672.487	87
672.689	87
672.892	77
