Data from Location4.07152019.Energy5.Lamp.07192019.3%Agarose_HRD10591_15-25-42-577.txt Node
Date: Fri Jul 19 15:25:42 EDT 2019
User: cochatt
Spectrometer: HR+D1059
Trigger mode: 1
Integration Time (sec): 1.000000E-1
Scans to average: 1
Electric dark correction enabled: true
Nonlinearity correction enabled: false
Boxcar width: 0
XAxis mode: Wavelengths
Number of Pixels in Spectrum: 2048
>>>>>Begin Spectral Data<<<<<
223.165	-13
223.4	-13
223.635	-13
223.869	-21
224.104	-31
224.338	-23
224.573	-19
224.808	-4
225.042	0
225.277	6
225.511	-1
225.746	-10
225.98	9
226.215	8
226.449	23
226.683	15
226.918	41
227.152	20
227.387	46
227.621	40
227.856	42
228.09	46
228.324	53
228.559	66
228.793	66
229.027	65
229.262	59
229.496	65
229.73	74
229.964	73
230.199	71
230.433	77
230.667	72
230.901	85
231.136	91
231.37	87
231.604	80
231.838	91
232.072	77
232.306	96
232.541	84
232.775	87
233.009	81
233.243	101
233.477	79
233.711	93
233.945	83
234.179	79
234.413	85
234.647	70
234.881	75
235.115	93
235.349	81
235.583	94
235.817	84
236.051	83
236.285	98
236.519	84
236.753	79
236.987	93
237.221	83
237.455	83
237.689	89
237.922	73
238.156	89
238.39	64
238.624	91
238.858	68
239.091	67
239.325	88
239.559	78
239.793	75
240.027	94
240.26	77
240.494	90
240.728	89
240.961	79
241.195	86
241.429	73
241.662	73
241.896	72
242.13	78
242.363	76
242.597	68
242.83	87
243.064	73
243.298	73
243.531	70
243.765	83
243.998	77
244.232	74
244.465	82
244.699	77
244.932	76
245.166	85
245.399	79
245.633	78
245.866	74
246.099	81
246.333	84
246.566	79
246.8	80
247.033	85
247.266	67
247.5	76
247.733	86
247.966	73
248.2	78
248.433	91
248.666	73
248.899	87
249.133	83
249.366	73
249.599	76
249.832	92
250.066	72
250.299	66
250.532	70
250.765	83
250.998	68
251.231	88
251.465	83
251.698	84
251.931	69
252.164	84
252.397	82
252.63	86
252.863	77
253.096	90
253.329	87
253.562	72
253.795	75
254.028	90
254.261	84
254.494	99
254.727	78
254.96	77
255.193	72
255.426	82
255.659	87
255.892	96
256.124	79
256.357	101
256.59	93
256.823	86
257.056	93
257.289	75
257.521	88
257.754	93
257.987	85
258.22	82
258.452	75
258.685	94
258.918	88
259.151	67
259.383	93
259.616	78
259.849	86
260.081	71
260.314	77
260.547	81
260.779	98
261.012	82
261.244	85
261.477	87
261.71	78
261.942	85
262.175	91
262.407	83
262.64	69
262.872	89
263.105	92
263.337	84
263.57	90
263.802	92
264.035	80
264.267	78
264.499	86
264.732	81
264.964	79
265.197	87
265.429	84
265.661	84
265.894	98
266.126	97
266.358	82
266.591	70
266.823	71
267.055	93
267.287	85
267.52	92
267.752	87
267.984	81
268.216	95
268.448	93
268.681	83
268.913	88
269.145	75
269.377	77
269.609	76
269.841	92
270.073	79
270.306	89
270.538	76
270.77	68
271.002	95
271.234	91
271.466	95
271.698	108
271.93	86
272.162	79
272.394	86
272.626	83
272.858	84
273.09	93
273.322	90
273.553	76
273.785	92
274.017	80
274.249	97
274.481	85
274.713	82
274.945	90
275.176	87
275.408	88
275.64	80
275.872	84
276.104	84
276.335	91
276.567	86
276.799	83
277.031	89
277.262	85
277.494	78
277.726	98
277.957	75
278.189	80
278.421	89
278.652	94
278.884	87
279.115	86
279.347	76
279.579	93
279.81	82
280.042	85
280.273	92
280.505	72
280.736	89
280.968	77
281.199	89
281.431	92
281.662	80
281.894	79
282.125	90
282.356	91
282.588	98
282.819	77
283.051	78
283.282	79
283.513	89
283.745	79
283.976	81
284.207	70
284.439	87
284.67	84
284.901	83
285.132	88
285.364	85
285.595	88
285.826	78
286.057	81
286.288	85
286.52	92
286.751	78
286.982	68
287.213	86
287.444	83
287.675	99
287.906	101
288.138	80
288.369	104
288.6	86
288.831	70
289.062	75
289.293	93
289.524	77
289.755	74
289.986	82
290.217	93
290.448	89
290.679	84
290.91	93
291.141	77
291.371	91
291.602	84
291.833	85
292.064	79
292.295	89
292.526	72
292.757	85
292.987	88
293.218	89
293.449	91
293.68	85
293.91	92
294.141	94
294.372	95
294.603	97
294.833	80
295.064	68
295.295	88
295.525	101
295.756	90
295.987	102
296.217	84
296.448	79
296.679	97
296.909	98
297.14	88
297.37	89
297.601	91
297.831	85
298.062	106
298.292	87
298.523	84
298.753	90
298.984	90
299.214	84
299.445	92
299.675	98
299.905	81
300.136	77
300.366	81
300.597	86
300.827	80
301.057	87
301.288	91
301.518	90
301.748	83
301.979	107
302.209	94
302.439	100
302.669	83
302.9	99
303.13	99
303.36	89
303.59	85
303.82	83
304.051	95
304.281	87
304.511	85
304.741	91
304.971	90
305.201	88
305.431	73
305.661	87
305.891	85
306.121	86
306.352	76
306.582	87
306.812	83
307.042	85
307.272	78
307.502	91
307.731	83
307.961	101
308.191	74
308.421	91
308.651	99
308.881	94
309.111	84
309.341	81
309.571	99
309.8	88
310.03	97
310.26	90
310.49	98
310.72	88
310.949	82
311.179	82
311.409	98
311.639	71
311.868	80
312.098	93
312.328	86
312.557	85
312.787	85
313.017	76
313.246	75
313.476	92
313.706	76
313.935	93
314.165	94
314.394	93
314.624	87
314.853	75
315.083	78
315.312	86
315.542	90
315.771	79
316.001	85
316.23	74
316.46	99
316.689	79
316.919	88
317.148	80
317.377	89
317.607	83
317.836	79
318.065	83
318.295	80
318.524	75
318.753	87
318.983	91
319.212	91
319.441	83
319.67	94
319.9	83
320.129	88
320.358	86
320.587	104
320.816	83
321.046	95
321.275	91
321.504	100
321.733	83
321.962	97
322.191	82
322.42	78
322.649	89
322.878	93
323.108	84
323.337	97
323.566	93
323.795	94
324.024	79
324.253	92
324.482	105
324.71	76
324.939	89
325.168	75
325.397	76
325.626	86
325.855	80
326.084	81
326.313	76
326.542	65
326.77	93
326.999	83
327.228	82
327.457	77
327.686	78
327.914	90
328.143	90
328.372	91
328.6	80
328.829	82
329.058	85
329.287	98
329.515	108
329.744	91
329.972	82
330.201	78
330.43	80
330.658	89
330.887	89
331.115	91
331.344	86
331.572	87
331.801	87
332.03	87
332.258	93
332.486	78
332.715	90
332.943	85
333.172	90
333.4	83
333.629	95
333.857	85
334.085	94
334.314	89
334.542	101
334.771	100
334.999	91
335.227	88
335.455	73
335.684	91
335.912	94
336.14	90
336.369	85
336.597	91
336.825	89
337.053	86
337.281	90
337.51	101
337.738	86
337.966	93
338.194	88
338.422	68
338.65	92
338.878	89
339.106	81
339.334	75
339.562	78
339.79	88
340.018	81
340.246	92
340.474	88
340.702	84
340.93	88
341.158	92
341.386	76
341.614	92
341.842	90
342.07	76
342.298	74
342.526	83
342.754	92
342.981	85
343.209	81
343.437	87
343.665	88
343.893	93
344.12	86
344.348	81
344.576	88
344.804	97
345.031	77
345.259	111
345.487	90
345.714	92
345.942	94
346.17	69
346.397	97
346.625	93
346.853	88
347.08	74
347.308	81
347.535	69
347.763	83
347.99	92
348.218	85
348.445	77
348.673	78
348.9	87
349.128	95
349.355	85
349.583	85
349.81	77
350.037	79
350.265	99
350.492	93
350.72	81
350.947	84
351.174	82
351.402	86
351.629	85
351.856	92
352.083	79
352.311	86
352.538	100
352.765	86
352.992	94
353.22	82
353.447	87
353.674	89
353.901	82
354.128	99
354.355	82
354.583	84
354.81	82
355.037	86
355.264	81
355.491	82
355.718	86
355.945	86
356.172	82
356.399	86
356.626	83
356.853	107
357.08	99
357.307	92
357.534	91
357.761	82
357.988	86
358.215	91
358.441	85
358.668	81
358.895	85
359.122	87
359.349	94
359.576	83
359.802	86
360.029	78
360.256	95
360.483	91
360.709	86
360.936	93
361.163	82
361.39	97
361.616	78
361.843	94
362.07	101
362.296	80
362.523	93
362.749	83
362.976	86
363.203	79
363.429	90
363.656	85
363.882	81
364.109	76
364.335	84
364.562	87
364.788	87
365.015	105
365.241	84
365.468	99
365.694	103
365.92	88
366.147	89
366.373	89
366.599	97
366.826	78
367.052	75
367.278	86
367.505	75
367.731	92
367.957	90
368.184	75
368.41	95
368.636	89
368.862	85
369.089	102
369.315	83
369.541	81
369.767	99
369.993	93
370.219	101
370.445	99
370.672	79
370.898	73
371.124	83
371.35	98
371.576	88
371.802	91
372.028	104
372.254	93
372.48	86
372.706	107
372.932	74
373.158	91
373.384	80
373.61	104
373.835	91
374.061	93
374.287	89
374.513	88
374.739	83
374.965	91
375.191	84
375.416	102
375.642	93
375.868	89
376.094	92
376.319	101
376.545	91
376.771	101
376.997	93
377.222	80
377.448	96
377.674	79
377.899	83
378.125	77
378.35	93
378.576	91
378.802	92
379.027	87
379.253	75
379.478	86
379.704	97
379.929	81
380.155	86
380.38	78
380.606	103
380.831	98
381.057	88
381.282	82
381.507	96
381.733	97
381.958	92
382.184	92
382.409	87
382.634	87
382.86	78
383.085	88
383.31	98
383.535	94
383.761	98
383.986	81
384.211	82
384.436	89
384.662	87
384.887	91
385.112	100
385.337	85
385.562	88
385.787	87
386.013	106
386.238	80
386.463	86
386.688	76
386.913	85
387.138	86
387.363	84
387.588	95
387.813	93
388.038	79
388.263	87
388.488	83
388.713	91
388.938	96
389.163	83
389.387	74
389.612	89
389.837	97
390.062	87
390.287	89
390.512	82
390.736	95
390.961	79
391.186	96
391.411	89
391.636	99
391.86	83
392.085	99
392.31	84
392.534	95
392.759	80
392.984	79
393.208	99
393.433	84
393.658	89
393.882	90
394.107	101
394.331	89
394.556	100
394.78	93
395.005	90
395.229	92
395.454	87
395.678	94
395.903	97
396.127	89
396.352	77
396.576	90
396.801	94
397.025	96
397.249	91
397.474	81
397.698	82
397.922	78
398.147	94
398.371	83
398.595	97
398.82	93
399.044	97
399.268	93
399.492	96
399.717	92
399.941	91
400.165	82
400.389	109
400.613	101
400.837	104
401.062	90
401.286	93
401.51	99
401.734	78
401.958	97
402.182	99
402.406	98
402.63	83
402.854	87
403.078	95
403.302	90
403.526	92
403.75	92
403.974	91
404.198	101
404.422	83
404.645	103
404.869	96
405.093	79
405.317	92
405.541	98
405.765	92
405.988	95
406.212	102
406.436	90
406.66	87
406.883	101
407.107	98
407.331	98
407.555	75
407.778	93
408.002	87
408.226	95
408.449	89
408.673	98
408.896	84
409.12	97
409.344	90
409.567	93
409.791	108
410.014	98
410.238	96
410.461	106
410.685	97
410.908	94
411.132	98
411.355	84
411.578	88
411.802	110
412.025	101
412.249	85
412.472	105
412.695	98
412.919	84
413.142	96
413.365	84
413.589	87
413.812	84
414.035	97
414.258	101
414.482	105
414.705	87
414.928	90
415.151	101
415.374	100
415.597	97
415.821	91
416.044	89
416.267	93
416.49	93
416.713	89
416.936	97
417.159	93
417.382	96
417.605	84
417.828	100
418.051	110
418.274	107
418.497	91
418.72	94
418.943	105
419.166	104
419.389	109
419.611	102
419.834	97
420.057	107
420.28	98
420.503	96
420.726	80
420.948	92
421.171	97
421.394	97
421.617	85
421.839	95
422.062	100
422.285	99
422.507	95
422.73	93
422.953	94
423.175	99
423.398	89
423.621	103
423.843	102
424.066	78
424.288	94
424.511	111
424.733	108
424.956	102
425.178	108
425.401	83
425.623	98
425.846	116
426.068	91
426.291	100
426.513	87
426.735	109
426.958	100
427.18	94
427.402	106
427.625	97
427.847	109
428.069	113
428.292	91
428.514	101
428.736	94
428.958	102
429.181	99
429.403	108
429.625	94
429.847	95
430.069	87
430.292	89
430.514	100
430.736	94
430.958	97
431.18	97
431.402	85
431.624	106
431.846	105
432.068	77
432.29	107
432.512	91
432.734	87
432.956	98
433.178	104
433.4	108
433.622	106
433.844	97
434.066	94
434.287	96
434.509	92
434.731	92
434.953	99
435.175	101
435.397	96
435.618	101
435.84	81
436.062	97
436.284	89
436.505	100
436.727	114
436.949	96
437.17	91
437.392	85
437.614	99
437.835	99
438.057	90
438.278	107
438.5	82
438.721	96
438.943	102
439.165	101
439.386	106
439.608	113
439.829	84
440.05	97
440.272	96
440.493	94
440.715	95
440.936	97
441.158	101
441.379	121
441.6	94
441.822	104
442.043	109
442.264	98
442.486	91
442.707	101
442.928	92
443.149	105
443.371	115
443.592	105
443.813	106
444.034	96
444.255	95
444.476	92
444.698	107
444.919	100
445.14	220
445.361	155
445.582	99
445.803	94
446.024	112
446.245	97
446.466	110
446.687	105
446.908	95
447.129	110
447.35	98
447.571	105
447.792	90
448.013	97
448.234	103
448.455	101
448.675	109
448.896	114
449.117	113
449.338	107
449.559	92
449.779	93
450	106
450.221	95
450.442	93
450.662	106
450.883	106
451.104	100
451.324	89
451.545	98
451.766	95
451.986	89
452.207	110
452.428	99
452.648	105
452.869	85
453.089	95
453.31	100
453.53	103
453.751	92
453.971	95
454.192	90
454.412	101
454.633	102
454.853	92
455.073	105
455.294	98
455.514	106
455.734	97
455.955	95
456.175	92
456.395	97
456.616	94
456.836	99
457.056	98
457.276	85
457.497	86
457.717	85
457.937	88
458.157	93
458.377	89
458.598	85
458.818	94
459.038	70
459.258	77
459.478	91
459.698	85
459.918	78
460.138	96
460.358	103
460.578	81
460.798	83
461.018	100
461.238	97
461.458	93
461.678	116
461.898	93
462.118	97
462.338	84
462.558	86
462.777	101
462.997	86
463.217	91
463.437	99
463.657	92
463.876	99
464.096	85
464.316	83
464.536	111
464.755	114
464.975	106
465.195	89
465.414	94
465.634	90
465.854	81
466.073	99
466.293	94
466.512	95
466.732	105
466.951	110
467.171	91
467.391	97
467.61	93
467.829	105
468.049	96
468.268	90
468.488	94
468.707	99
468.927	95
469.146	97
469.365	94
469.585	103
469.804	99
470.023	108
470.243	102
470.462	97
470.681	94
470.901	107
471.12	109
471.339	106
471.558	97
471.777	111
471.997	101
472.216	99
472.435	80
472.654	100
472.873	89
473.092	85
473.311	92
473.53	92
473.749	90
473.968	96
474.187	85
474.406	88
474.625	84
474.844	85
475.063	96
475.282	97
475.501	101
475.72	89
475.939	114
476.158	105
476.377	88
476.596	94
476.814	89
477.033	90
477.252	106
477.471	101
477.69	93
477.908	103
478.127	99
478.346	98
478.564	97
478.783	98
479.002	94
479.22	102
479.439	117
479.658	96
479.876	91
480.095	94
480.313	108
480.532	93
480.751	85
480.969	92
481.188	88
481.406	90
481.624	96
481.843	80
482.061	93
482.28	85
482.498	83
482.717	95
482.935	105
483.153	100
483.372	108
483.59	101
483.808	115
484.027	109
484.245	100
484.463	100
484.681	114
484.9	102
485.118	113
485.336	99
485.554	98
485.772	94
485.99	79
486.209	93
486.427	92
486.645	100
486.863	100
487.081	102
487.299	93
487.517	97
487.735	105
487.953	106
488.171	118
488.389	108
488.607	105
488.825	103
489.043	104
489.261	97
489.479	96
489.696	95
489.914	103
490.132	94
490.35	106
490.568	116
490.786	107
491.003	108
491.221	106
491.439	108
491.657	115
491.874	109
492.092	120
492.31	118
492.527	114
492.745	116
492.963	122
493.18	135
493.398	127
493.615	118
493.833	126
494.05	126
494.268	114
494.485	119
494.703	117
494.92	106
495.138	113
495.355	114
495.573	114
495.79	116
496.008	104
496.225	115
496.442	121
496.66	118
496.877	96
497.094	110
497.312	99
497.529	106
497.746	116
497.963	91
498.181	94
498.398	89
498.615	93
498.832	92
499.049	103
499.267	94
499.484	84
499.701	104
499.918	97
500.135	109
500.352	95
500.569	97
500.786	92
501.003	108
501.22	91
501.437	107
501.654	106
501.871	98
502.088	93
502.305	95
502.522	93
502.739	104
502.956	97
503.172	108
503.389	108
503.606	109
503.823	103
504.04	99
504.256	100
504.473	84
504.69	89
504.907	98
505.123	97
505.34	105
505.557	92
505.773	101
505.99	107
506.207	97
506.423	95
506.64	103
506.856	94
507.073	87
507.289	97
507.506	103
507.722	105
507.939	97
508.155	91
508.372	107
508.588	98
508.805	98
509.021	93
509.238	81
509.454	95
509.67	88
509.887	84
510.103	86
510.319	96
510.536	84
510.752	87
510.968	86
511.184	90
511.401	86
511.617	96
511.833	84
512.049	81
512.265	83
512.481	95
512.698	89
512.914	90
513.13	71
513.346	87
513.562	102
513.778	87
513.994	86
514.21	86
514.426	91
514.642	87
514.858	83
515.074	93
515.29	88
515.506	89
515.721	81
515.937	85
516.153	79
516.369	95
516.585	101
516.801	96
517.016	91
517.232	104
517.448	89
517.664	95
517.879	90
518.095	85
518.311	99
518.527	93
518.742	95
518.958	99
519.173	89
519.389	94
519.605	83
519.82	86
520.036	94
520.251	95
520.467	87
520.682	73
520.898	95
521.113	77
521.329	73
521.544	87
521.76	64
521.975	84
522.19	89
522.406	84
522.621	81
522.836	78
523.052	102
523.267	81
523.482	87
523.698	94
523.913	95
524.128	102
524.343	101
524.559	100
524.774	89
524.989	101
525.204	100
525.419	85
525.634	108
525.849	99
526.064	94
526.28	89
526.495	96
526.71	80
526.925	89
527.14	90
527.355	82
527.57	85
527.785	91
527.999	76
528.214	87
528.429	83
528.644	91
528.859	103
529.074	97
529.289	101
529.503	118
529.718	102
529.933	89
530.148	79
530.363	91
530.577	82
530.792	69
531.007	93
531.221	82
531.436	85
531.651	84
531.865	73
532.08	84
532.295	87
532.509	85
532.724	79
532.938	93
533.153	110
533.367	97
533.582	114
533.796	95
534.011	92
534.225	88
534.44	94
534.654	87
534.868	87
535.083	95
535.297	107
535.511	90
535.726	93
535.94	96
536.154	86
536.369	94
536.583	70
536.797	89
537.011	88
537.225	94
537.44	92
537.654	99
537.868	70
538.082	77
538.296	89
538.51	79
538.724	98
538.938	100
539.153	88
539.367	95
539.581	98
539.795	100
540.009	97
540.222	84
540.436	94
540.65	99
540.864	84
541.078	107
541.292	105
541.506	102
541.72	117
541.934	110
542.147	117
542.361	115
542.575	104
542.789	103
543.002	84
543.216	94
543.43	99
543.644	98
543.857	103
544.071	113
544.285	115
544.498	119
544.712	102
544.925	116
545.139	92
545.352	108
545.566	117
545.779	115
545.993	120
546.206	106
546.42	109
546.633	125
546.847	128
547.06	101
547.274	109
547.487	105
547.7	92
547.914	115
548.127	119
548.34	113
548.554	92
548.767	100
548.98	101
549.193	107
549.407	113
549.62	113
549.833	116
550.046	116
550.259	105
550.473	104
550.686	114
550.899	109
551.112	110
551.325	83
551.538	107
551.751	98
551.964	79
552.177	95
552.39	107
552.603	109
552.816	111
553.029	113
553.242	101
553.455	117
553.667	110
553.88	109
554.093	118
554.306	110
554.519	102
554.732	105
554.944	110
555.157	109
555.37	103
555.583	89
555.795	105
556.008	108
556.221	106
556.433	108
556.646	115
556.859	95
557.071	100
557.284	104
557.496	109
557.709	104
557.921	103
558.134	116
558.346	89
558.559	97
558.771	108
558.984	107
559.196	106
559.409	85
559.621	92
559.833	81
560.046	99
560.258	88
560.47	86
560.683	102
560.895	107
561.107	78
561.32	104
561.532	93
561.744	100
561.956	91
562.168	98
562.381	100
562.593	102
562.805	97
563.017	113
563.229	105
563.441	92
563.653	102
563.865	102
564.077	93
564.289	108
564.501	100
564.713	95
564.925	97
565.137	87
565.349	114
565.561	106
565.773	108
565.985	101
566.197	84
566.408	89
566.62	101
566.832	96
567.044	94
567.255	97
567.467	85
567.679	105
567.891	91
568.102	99
568.314	71
568.526	76
568.737	101
568.949	82
569.161	86
569.372	90
569.584	84
569.795	97
570.007	84
570.218	93
570.43	100
570.641	103
570.853	70
571.064	110
571.276	90
571.487	98
571.698	93
571.91	87
572.121	86
572.333	94
572.544	93
572.755	94
572.966	88
573.178	94
573.389	81
573.6	95
573.811	87
574.023	83
574.234	103
574.445	96
574.656	89
574.867	94
575.078	88
575.289	85
575.501	91
575.712	90
575.923	83
576.134	92
576.345	93
576.556	101
576.767	69
576.978	92
577.188	77
577.399	87
577.61	93
577.821	98
578.032	88
578.243	92
578.454	94
578.665	97
578.875	93
579.086	98
579.297	99
579.508	72
579.718	76
579.929	96
580.14	91
580.35	74
580.561	85
580.772	85
580.982	102
581.193	92
581.403	94
581.614	92
581.825	82
582.035	95
582.246	77
582.456	100
582.667	83
582.877	78
583.087	71
583.298	87
583.508	84
583.719	94
583.929	88
584.139	85
584.35	83
584.56	90
584.77	75
584.981	84
585.191	79
585.401	100
585.611	87
585.821	81
586.032	86
586.242	85
586.452	91
586.662	78
586.872	79
587.082	83
587.292	87
587.502	92
587.713	79
587.923	81
588.133	98
588.343	84
588.553	74
588.762	85
588.972	72
589.182	101
589.392	87
589.602	77
589.812	80
590.022	94
590.232	97
590.441	94
590.651	90
590.861	90
591.071	74
591.281	91
591.49	83
591.7	79
591.91	88
592.119	86
592.329	81
592.539	82
592.748	100
592.958	98
593.167	80
593.377	75
593.587	93
593.796	86
594.006	76
594.215	84
594.424	81
594.634	94
594.843	81
595.053	78
595.262	103
595.472	98
595.681	88
595.89	92
596.1	93
596.309	91
596.518	108
596.727	91
596.937	97
597.146	100
597.355	82
597.564	79
597.774	89
597.983	90
598.192	74
598.401	90
598.61	87
598.819	75
599.028	89
599.237	85
599.446	88
599.655	89
599.864	86
600.073	95
600.282	93
600.491	108
600.7	86
600.909	98
601.118	99
601.327	98
601.536	99
601.745	93
601.953	86
602.162	95
602.371	99
602.58	97
602.789	83
602.997	86
603.206	89
603.415	89
603.623	102
603.832	101
604.041	106
604.249	103
604.458	89
604.666	93
604.875	84
605.084	89
605.292	96
605.501	93
605.709	94
605.918	89
606.126	95
606.334	94
606.543	98
606.751	98
606.96	93
607.168	94
607.376	97
607.585	97
607.793	90
608.001	92
608.21	103
608.418	91
608.626	104
608.834	92
609.043	80
609.251	102
609.459	89
609.667	109
609.875	108
610.083	96
610.291	87
610.499	101
610.707	91
610.916	101
611.124	98
611.332	96
611.54	87
611.748	96
611.955	101
612.163	88
612.371	94
612.579	92
612.787	96
612.995	91
613.203	94
613.411	88
613.618	93
613.826	95
614.034	91
614.242	95
614.449	92
614.657	99
614.865	106
615.072	97
615.28	89
615.488	84
615.695	98
615.903	104
616.111	93
616.318	103
616.526	86
616.733	91
616.941	105
617.148	93
617.356	94
617.563	89
617.771	101
617.978	94
618.185	108
618.393	105
618.6	84
618.807	102
619.015	112
619.222	90
619.429	92
619.637	87
619.844	92
620.051	90
620.258	90
620.466	90
620.673	89
620.88	77
621.087	94
621.294	79
621.501	90
621.708	99
621.915	90
622.122	84
622.329	103
622.536	97
622.743	94
622.95	98
623.157	103
623.364	88
623.571	83
623.778	94
623.985	86
624.192	99
624.399	91
624.606	94
624.812	102
625.019	103
625.226	103
625.433	91
625.639	93
625.846	100
626.053	80
626.259	74
626.466	90
626.673	89
626.879	94
627.086	100
627.293	96
627.499	95
627.706	93
627.912	99
628.119	91
628.325	106
628.532	98
628.738	99
628.945	100
629.151	89
629.357	103
629.564	90
629.77	87
629.976	90
630.183	90
630.389	84
630.595	85
630.802	91
631.008	93
631.214	94
631.42	106
631.627	104
631.833	97
632.039	71
632.245	86
632.451	105
632.657	87
632.863	98
633.069	82
633.275	101
633.481	95
633.688	84
633.893	95
634.099	89
634.305	81
634.511	91
634.717	99
634.923	90
635.129	87
635.335	98
635.541	77
635.747	87
635.952	96
636.158	109
636.364	104
636.57	89
636.775	95
636.981	97
637.187	103
637.392	94
637.598	87
637.804	92
638.009	85
638.215	86
638.421	89
638.626	86
638.832	84
639.037	94
639.243	80
639.448	104
639.654	94
639.859	85
640.065	93
640.27	101
640.475	102
640.681	96
640.886	82
641.091	103
641.297	98
641.502	87
641.707	98
641.913	79
642.118	88
642.323	88
642.528	98
642.733	95
642.939	90
643.144	79
643.349	84
643.554	95
643.759	80
643.964	107
644.169	87
644.374	96
644.579	89
644.784	95
644.989	94
645.194	82
645.399	90
645.604	102
645.809	93
646.014	73
646.219	96
646.423	85
646.628	90
646.833	86
647.038	87
647.243	92
647.447	76
647.652	86
647.857	98
648.062	87
648.266	102
648.471	91
648.676	88
648.88	92
649.085	87
649.289	82
649.494	88
649.698	79
649.903	99
650.107	100
650.312	90
650.516	98
650.721	82
650.925	84
651.13	98
651.334	94
651.539	83
651.743	91
651.947	94
652.152	92
652.356	83
652.56	78
652.764	94
652.969	82
653.173	82
653.377	92
653.581	96
653.785	85
653.99	91
654.194	84
654.398	79
654.602	93
654.806	83
655.01	103
655.214	102
655.418	77
655.622	90
655.826	90
656.03	98
656.234	77
656.438	95
656.642	81
656.846	75
657.049	85
657.253	98
657.457	98
657.661	78
657.865	103
658.068	88
658.272	82
658.476	95
658.68	102
658.883	85
659.087	96
659.291	80
659.494	84
659.698	76
659.901	79
660.105	83
660.309	87
660.512	81
660.716	73
660.919	80
661.123	98
661.326	87
661.53	89
661.733	76
661.936	84
662.14	88
662.343	93
662.546	79
662.75	86
662.953	93
663.156	88
663.36	76
663.563	78
663.766	85
663.969	94
664.173	80
664.376	85
664.579	87
664.782	73
664.985	92
665.188	87
665.391	85
665.594	86
665.797	97
666	76
666.203	84
666.406	67
666.609	78
666.812	77
667.015	72
667.218	85
667.421	89
667.624	84
667.827	89
668.03	90
668.232	81
668.435	98
668.638	100
668.841	82
669.043	79
669.246	88
669.449	74
669.651	71
669.854	78
670.057	74
670.259	71
670.462	96
670.665	98
670.867	95
671.07	91
671.272	78
671.475	83
671.677	83
671.88	86
672.082	97
672.284	94
672.487	83
672.689	72
672.892	90
