Data from Location4.07152019.Energy5.Lamp.07192019.3%Agarose_HRD10591_15-24-14-577.txt Node
Date: Fri Jul 19 15:24:14 EDT 2019
User: cochatt
Spectrometer: HR+D1059
Trigger mode: 1
Integration Time (sec): 1.000000E-1
Scans to average: 1
Electric dark correction enabled: true
Nonlinearity correction enabled: false
Boxcar width: 0
XAxis mode: Wavelengths
Number of Pixels in Spectrum: 2048
>>>>>Begin Spectral Data<<<<<
223.165	-14
223.4	-14
223.635	-14
223.869	-8
224.104	-9
224.338	-15
224.573	-2
224.808	-11
225.042	-20
225.277	-12
225.511	-3
225.746	-13
225.98	0
226.215	15
226.449	17
226.683	28
226.918	23
227.152	24
227.387	39
227.621	50
227.856	51
228.09	40
228.324	55
228.559	53
228.793	61
229.027	57
229.262	64
229.496	68
229.73	81
229.964	70
230.199	74
230.433	75
230.667	69
230.901	73
231.136	81
231.37	87
231.604	74
231.838	84
232.072	85
232.306	71
232.541	80
232.775	78
233.009	95
233.243	84
233.477	99
233.711	91
233.945	66
234.179	75
234.413	96
234.647	74
234.881	73
235.115	65
235.349	74
235.583	80
235.817	94
236.051	81
236.285	80
236.519	73
236.753	81
236.987	81
237.221	78
237.455	77
237.689	87
237.922	60
238.156	73
238.39	75
238.624	84
238.858	76
239.091	79
239.325	68
239.559	80
239.793	64
240.027	82
240.26	71
240.494	71
240.728	65
240.961	79
241.195	89
241.429	83
241.662	74
241.896	60
242.13	75
242.363	68
242.597	82
242.83	80
243.064	71
243.298	77
243.531	81
243.765	88
243.998	82
244.232	77
244.465	63
244.699	75
244.932	67
245.166	77
245.399	88
245.633	87
245.866	81
246.099	70
246.333	69
246.566	84
246.8	87
247.033	77
247.266	83
247.5	90
247.733	68
247.966	87
248.2	88
248.433	75
248.666	71
248.899	89
249.133	76
249.366	79
249.599	81
249.832	74
250.066	91
250.299	87
250.532	75
250.765	74
250.998	77
251.231	67
251.465	77
251.698	70
251.931	76
252.164	77
252.397	75
252.63	79
252.863	89
253.096	85
253.329	69
253.562	76
253.795	67
254.028	76
254.261	91
254.494	93
254.727	85
254.96	83
255.193	85
255.426	75
255.659	79
255.892	75
256.124	89
256.357	87
256.59	79
256.823	91
257.056	80
257.289	84
257.521	86
257.754	85
257.987	77
258.22	91
258.452	84
258.685	81
258.918	92
259.151	70
259.383	97
259.616	84
259.849	92
260.081	76
260.314	82
260.547	70
260.779	73
261.012	90
261.244	108
261.477	83
261.71	82
261.942	79
262.175	89
262.407	95
262.64	75
262.872	74
263.105	96
263.337	84
263.57	87
263.802	82
264.035	80
264.267	69
264.499	66
264.732	90
264.964	88
265.197	81
265.429	86
265.661	84
265.894	73
266.126	66
266.358	79
266.591	81
266.823	89
267.055	78
267.287	63
267.52	91
267.752	87
267.984	92
268.216	78
268.448	83
268.681	87
268.913	87
269.145	85
269.377	84
269.609	90
269.841	89
270.073	79
270.306	76
270.538	91
270.77	91
271.002	95
271.234	84
271.466	77
271.698	88
271.93	91
272.162	76
272.394	83
272.626	84
272.858	89
273.09	92
273.322	83
273.553	77
273.785	74
274.017	59
274.249	75
274.481	86
274.713	84
274.945	79
275.176	73
275.408	82
275.64	88
275.872	88
276.104	90
276.335	90
276.567	86
276.799	84
277.031	74
277.262	86
277.494	91
277.726	85
277.957	82
278.189	85
278.421	93
278.652	92
278.884	88
279.115	74
279.347	67
279.579	70
279.81	84
280.042	75
280.273	92
280.505	83
280.736	96
280.968	81
281.199	86
281.431	83
281.662	88
281.894	88
282.125	81
282.356	100
282.588	92
282.819	74
283.051	82
283.282	69
283.513	84
283.745	86
283.976	82
284.207	71
284.439	91
284.67	80
284.901	83
285.132	81
285.364	89
285.595	96
285.826	83
286.057	81
286.288	81
286.52	92
286.751	82
286.982	77
287.213	94
287.444	73
287.675	88
287.906	87
288.138	82
288.369	91
288.6	92
288.831	85
289.062	91
289.293	91
289.524	83
289.755	96
289.986	93
290.217	98
290.448	85
290.679	87
290.91	83
291.141	81
291.371	85
291.602	76
291.833	74
292.064	95
292.295	97
292.526	81
292.757	76
292.987	81
293.218	84
293.449	95
293.68	82
293.91	92
294.141	97
294.372	89
294.603	87
294.833	76
295.064	83
295.295	74
295.525	84
295.756	93
295.987	71
296.217	88
296.448	78
296.679	82
296.909	91
297.14	87
297.37	90
297.601	80
297.831	88
298.062	75
298.292	94
298.523	83
298.753	74
298.984	89
299.214	84
299.445	97
299.675	84
299.905	87
300.136	86
300.366	80
300.597	90
300.827	88
301.057	80
301.288	85
301.518	86
301.748	88
301.979	90
302.209	90
302.439	92
302.669	83
302.9	90
303.13	81
303.36	99
303.59	85
303.82	76
304.051	85
304.281	93
304.511	93
304.741	90
304.971	66
305.201	94
305.431	83
305.661	80
305.891	72
306.121	77
306.352	72
306.582	79
306.812	92
307.042	84
307.272	94
307.502	80
307.731	87
307.961	82
308.191	87
308.421	74
308.651	86
308.881	86
309.111	97
309.341	99
309.571	93
309.8	81
310.03	73
310.26	80
310.49	80
310.72	91
310.949	98
311.179	81
311.409	82
311.639	91
311.868	94
312.098	77
312.328	87
312.557	90
312.787	86
313.017	74
313.246	80
313.476	95
313.706	82
313.935	79
314.165	76
314.394	88
314.624	83
314.853	80
315.083	84
315.312	84
315.542	92
315.771	101
316.001	95
316.23	75
316.46	84
316.689	84
316.919	81
317.148	92
317.377	91
317.607	76
317.836	92
318.065	88
318.295	84
318.524	92
318.753	76
318.983	79
319.212	81
319.441	99
319.67	85
319.9	86
320.129	73
320.358	89
320.587	95
320.816	76
321.046	76
321.275	101
321.504	87
321.733	78
321.962	72
322.191	76
322.42	83
322.649	84
322.878	82
323.108	89
323.337	91
323.566	93
323.795	85
324.024	96
324.253	72
324.482	91
324.71	94
324.939	79
325.168	83
325.397	86
325.626	79
325.855	78
326.084	76
326.313	88
326.542	76
326.77	79
326.999	82
327.228	75
327.457	92
327.686	100
327.914	97
328.143	84
328.372	84
328.6	73
328.829	95
329.058	87
329.287	83
329.515	85
329.744	96
329.972	66
330.201	82
330.43	77
330.658	80
330.887	83
331.115	79
331.344	78
331.572	88
331.801	76
332.03	70
332.258	83
332.486	93
332.715	93
332.943	90
333.172	83
333.4	76
333.629	87
333.857	93
334.085	69
334.314	83
334.542	84
334.771	85
334.999	86
335.227	87
335.455	90
335.684	104
335.912	84
336.14	89
336.369	100
336.597	96
336.825	88
337.053	80
337.281	62
337.51	83
337.738	91
337.966	87
338.194	88
338.422	75
338.65	73
338.878	76
339.106	90
339.334	95
339.562	86
339.79	84
340.018	73
340.246	66
340.474	88
340.702	76
340.93	82
341.158	82
341.386	72
341.614	79
341.842	89
342.07	76
342.298	80
342.526	79
342.754	86
342.981	76
343.209	81
343.437	75
343.665	87
343.893	75
344.12	78
344.348	92
344.576	83
344.804	99
345.031	83
345.259	87
345.487	98
345.714	89
345.942	83
346.17	90
346.397	76
346.625	80
346.853	81
347.08	91
347.308	73
347.535	71
347.763	79
347.99	90
348.218	87
348.445	82
348.673	72
348.9	86
349.128	92
349.355	87
349.583	88
349.81	86
350.037	87
350.265	85
350.492	75
350.72	76
350.947	86
351.174	86
351.402	91
351.629	82
351.856	79
352.083	76
352.311	83
352.538	76
352.765	87
352.992	92
353.22	86
353.447	88
353.674	83
353.901	85
354.128	89
354.355	86
354.583	85
354.81	87
355.037	83
355.264	87
355.491	81
355.718	66
355.945	77
356.172	70
356.399	84
356.626	90
356.853	76
357.08	70
357.307	97
357.534	105
357.761	79
357.988	95
358.215	89
358.441	85
358.668	89
358.895	82
359.122	85
359.349	93
359.576	87
359.802	87
360.029	92
360.256	91
360.483	89
360.709	88
360.936	84
361.163	95
361.39	83
361.616	81
361.843	76
362.07	84
362.296	76
362.523	87
362.749	81
362.976	83
363.203	96
363.429	84
363.656	75
363.882	100
364.109	83
364.335	83
364.562	76
364.788	83
365.015	88
365.241	88
365.468	80
365.694	70
365.92	91
366.147	77
366.373	88
366.599	88
366.826	65
367.052	83
367.278	89
367.505	74
367.731	84
367.957	87
368.184	80
368.41	85
368.636	88
368.862	75
369.089	103
369.315	84
369.541	81
369.767	99
369.993	82
370.219	76
370.445	74
370.672	70
370.898	84
371.124	84
371.35	74
371.576	82
371.802	91
372.028	89
372.254	66
372.48	87
372.706	89
372.932	76
373.158	84
373.384	76
373.61	77
373.835	86
374.061	80
374.287	60
374.513	82
374.739	91
374.965	82
375.191	74
375.416	90
375.642	98
375.868	103
376.094	72
376.319	76
376.545	86
376.771	89
376.997	86
377.222	96
377.448	83
377.674	91
377.899	76
378.125	86
378.35	74
378.576	74
378.802	85
379.027	90
379.253	99
379.478	78
379.704	85
379.929	74
380.155	89
380.38	96
380.606	97
380.831	87
381.057	92
381.282	84
381.507	91
381.733	90
381.958	88
382.184	87
382.409	79
382.634	91
382.86	71
383.085	86
383.31	89
383.535	87
383.761	83
383.986	82
384.211	78
384.436	85
384.662	90
384.887	87
385.112	83
385.337	89
385.562	83
385.787	72
386.013	96
386.238	93
386.463	98
386.688	99
386.913	84
387.138	93
387.363	88
387.588	85
387.813	91
388.038	72
388.263	78
388.488	75
388.713	91
388.938	83
389.163	93
389.387	86
389.612	74
389.837	79
390.062	98
390.287	89
390.512	109
390.736	89
390.961	84
391.186	82
391.411	93
391.636	92
391.86	86
392.085	80
392.31	90
392.534	84
392.759	97
392.984	93
393.208	91
393.433	87
393.658	96
393.882	87
394.107	69
394.331	90
394.556	77
394.78	91
395.005	99
395.229	103
395.454	103
395.678	92
395.903	93
396.127	87
396.352	89
396.576	84
396.801	77
397.025	91
397.249	84
397.474	76
397.698	87
397.922	87
398.147	93
398.371	94
398.595	97
398.82	91
399.044	74
399.268	89
399.492	91
399.717	85
399.941	85
400.165	107
400.389	88
400.613	111
400.837	97
401.062	94
401.286	95
401.51	92
401.734	102
401.958	75
402.182	97
402.406	91
402.63	91
402.854	92
403.078	81
403.302	77
403.526	73
403.75	84
403.974	85
404.198	86
404.422	97
404.645	82
404.869	83
405.093	91
405.317	96
405.541	90
405.765	102
405.988	92
406.212	83
406.436	89
406.66	105
406.883	92
407.107	86
407.331	98
407.555	85
407.778	95
408.002	104
408.226	85
408.449	103
408.673	87
408.896	95
409.12	87
409.344	85
409.567	81
409.791	95
410.014	79
410.238	94
410.461	95
410.685	95
410.908	83
411.132	78
411.355	86
411.578	87
411.802	94
412.025	87
412.249	89
412.472	86
412.695	97
412.919	95
413.142	95
413.365	104
413.589	107
413.812	70
414.035	91
414.258	93
414.482	103
414.705	119
414.928	100
415.151	76
415.374	87
415.597	89
415.821	93
416.044	94
416.267	99
416.49	89
416.713	86
416.936	98
417.159	85
417.382	97
417.605	92
417.828	90
418.051	88
418.274	90
418.497	107
418.72	95
418.943	107
419.166	91
419.389	95
419.611	84
419.834	98
420.057	103
420.28	83
420.503	97
420.726	99
420.948	89
421.171	83
421.394	86
421.617	88
421.839	91
422.062	89
422.285	104
422.507	105
422.73	97
422.953	76
423.175	94
423.398	111
423.621	89
423.843	91
424.066	101
424.288	96
424.511	84
424.733	95
424.956	100
425.178	95
425.401	84
425.623	73
425.846	89
426.068	98
426.291	75
426.513	104
426.735	100
426.958	94
427.18	104
427.402	92
427.625	87
427.847	99
428.069	82
428.292	93
428.514	99
428.736	82
428.958	76
429.181	88
429.403	99
429.625	91
429.847	103
430.069	94
430.292	92
430.514	99
430.736	87
430.958	91
431.18	95
431.402	75
431.624	87
431.846	82
432.068	91
432.29	102
432.512	87
432.734	106
432.956	93
433.178	91
433.4	90
433.622	103
433.844	96
434.066	87
434.287	103
434.509	83
434.731	80
434.953	81
435.175	84
435.397	100
435.618	85
435.84	96
436.062	77
436.284	97
436.505	95
436.727	104
436.949	90
437.17	95
437.392	92
437.614	91
437.835	82
438.057	79
438.278	91
438.5	106
438.721	93
438.943	103
439.165	96
439.386	79
439.608	105
439.829	84
440.05	101
440.272	97
440.493	108
440.715	99
440.936	88
441.158	105
441.379	100
441.6	100
441.822	103
442.043	92
442.264	93
442.486	80
442.707	105
442.928	77
443.149	74
443.371	93
443.592	105
443.813	84
444.034	86
444.255	98
444.476	103
444.698	101
444.919	89
445.14	185
445.361	148
445.582	111
445.803	98
446.024	95
446.245	114
446.466	104
446.687	108
446.908	98
447.129	96
447.35	96
447.571	90
447.792	97
448.013	86
448.234	94
448.455	85
448.675	94
448.896	91
449.117	97
449.338	98
449.559	96
449.779	83
450	88
450.221	111
450.442	99
450.662	96
450.883	92
451.104	105
451.324	94
451.545	97
451.766	101
451.986	92
452.207	95
452.428	98
452.648	98
452.869	96
453.089	74
453.31	97
453.53	89
453.751	88
453.971	81
454.192	83
454.412	97
454.633	103
454.853	84
455.073	86
455.294	92
455.514	99
455.734	91
455.955	96
456.175	91
456.395	97
456.616	92
456.836	93
457.056	91
457.276	80
457.497	96
457.717	97
457.937	93
458.157	88
458.377	95
458.598	92
458.818	86
459.038	80
459.258	75
459.478	77
459.698	81
459.918	88
460.138	89
460.358	99
460.578	97
460.798	91
461.018	68
461.238	105
461.458	90
461.678	94
461.898	91
462.118	86
462.338	96
462.558	97
462.777	87
462.997	93
463.217	97
463.437	84
463.657	85
463.876	89
464.096	79
464.316	90
464.536	88
464.755	112
464.975	82
465.195	85
465.414	92
465.634	90
465.854	76
466.073	78
466.293	88
466.512	97
466.732	88
466.951	93
467.171	88
467.391	93
467.61	92
467.829	106
468.049	87
468.268	86
468.488	103
468.707	78
468.927	107
469.146	110
469.365	103
469.585	99
469.804	100
470.023	121
470.243	105
470.462	102
470.681	119
470.901	100
471.12	98
471.339	95
471.558	100
471.777	95
471.997	103
472.216	88
472.435	94
472.654	92
472.873	100
473.092	93
473.311	98
473.53	110
473.749	94
473.968	97
474.187	107
474.406	91
474.625	92
474.844	91
475.063	93
475.282	81
475.501	97
475.72	84
475.939	86
476.158	96
476.377	98
476.596	94
476.814	96
477.033	98
477.252	86
477.471	100
477.69	98
477.908	99
478.127	100
478.346	92
478.564	116
478.783	93
479.002	101
479.22	94
479.439	97
479.658	88
479.876	100
480.095	87
480.313	101
480.532	89
480.751	82
480.969	82
481.188	92
481.406	75
481.624	87
481.843	88
482.061	90
482.28	80
482.498	90
482.717	100
482.935	93
483.153	106
483.372	106
483.59	103
483.808	93
484.027	100
484.245	97
484.463	97
484.681	105
484.9	106
485.118	88
485.336	93
485.554	95
485.772	87
485.99	85
486.209	88
486.427	72
486.645	97
486.863	99
487.081	100
487.299	101
487.517	92
487.735	110
487.953	131
488.171	117
488.389	109
488.607	108
488.825	94
489.043	85
489.261	106
489.479	113
489.696	106
489.914	98
490.132	94
490.35	113
490.568	99
490.786	109
491.003	108
491.221	99
491.439	111
491.657	107
491.874	122
492.092	137
492.31	141
492.527	125
492.745	106
492.963	111
493.18	119
493.398	98
493.615	107
493.833	118
494.05	118
494.268	101
494.485	111
494.703	113
494.92	95
495.138	114
495.355	116
495.573	122
495.79	118
496.008	106
496.225	111
496.442	104
496.66	103
496.877	112
497.094	127
497.312	111
497.529	112
497.746	92
497.963	92
498.181	89
498.398	102
498.615	102
498.832	87
499.049	92
499.267	89
499.484	91
499.701	100
499.918	112
500.135	99
500.352	102
500.569	96
500.786	100
501.003	112
501.22	93
501.437	115
501.654	107
501.871	98
502.088	105
502.305	95
502.522	92
502.739	89
502.956	93
503.172	94
503.389	94
503.606	98
503.823	100
504.04	82
504.256	101
504.473	86
504.69	85
504.907	107
505.123	100
505.34	93
505.557	103
505.773	103
505.99	96
506.207	84
506.423	95
506.64	96
506.856	93
507.073	109
507.289	94
507.506	86
507.722	94
507.939	94
508.155	96
508.372	99
508.588	106
508.805	87
509.021	91
509.238	76
509.454	79
509.67	79
509.887	67
510.103	83
510.319	91
510.536	93
510.752	75
510.968	96
511.184	81
511.401	77
511.617	81
511.833	87
512.049	84
512.265	85
512.481	85
512.698	79
512.914	85
513.13	82
513.346	76
513.562	94
513.778	84
513.994	95
514.21	76
514.426	81
514.642	81
514.858	85
515.074	83
515.29	96
515.506	81
515.721	78
515.937	91
516.153	82
516.369	101
516.585	89
516.801	68
517.016	81
517.232	93
517.448	72
517.664	84
517.879	84
518.095	91
518.311	85
518.527	101
518.742	83
518.958	83
519.173	111
519.389	90
519.605	90
519.82	89
520.036	85
520.251	80
520.467	97
520.682	77
520.898	87
521.113	73
521.329	92
521.544	79
521.76	70
521.975	83
522.19	82
522.406	96
522.621	87
522.836	89
523.052	95
523.267	101
523.482	93
523.698	73
523.913	92
524.128	105
524.343	89
524.559	94
524.774	92
524.989	100
525.204	79
525.419	98
525.634	91
525.849	90
526.064	90
526.28	88
526.495	92
526.71	87
526.925	88
527.14	83
527.355	77
527.57	71
527.785	98
527.999	71
528.214	87
528.429	94
528.644	93
528.859	108
529.074	107
529.289	114
529.503	98
529.718	103
529.933	96
530.148	91
530.363	100
530.577	84
530.792	99
531.007	81
531.221	74
531.436	96
531.651	67
531.865	76
532.08	99
532.295	81
532.509	82
532.724	79
532.938	95
533.153	89
533.367	92
533.582	99
533.796	113
534.011	94
534.225	96
534.44	95
534.654	97
534.868	87
535.083	97
535.297	88
535.511	105
535.726	97
535.94	90
536.154	98
536.369	81
536.583	95
536.797	87
537.011	86
537.225	88
537.44	76
537.654	89
537.868	75
538.082	90
538.296	88
538.51	85
538.724	98
538.938	100
539.153	88
539.367	101
539.581	102
539.795	93
540.009	83
540.222	96
540.436	96
540.65	79
540.864	103
541.078	107
541.292	101
541.506	95
541.72	95
541.934	127
542.147	118
542.361	107
542.575	103
542.789	104
543.002	99
543.216	104
543.43	101
543.644	114
543.857	117
544.071	108
544.285	112
544.498	103
544.712	111
544.925	104
545.139	104
545.352	108
545.566	104
545.779	111
545.993	107
546.206	108
546.42	115
546.633	107
546.847	104
547.06	100
547.274	116
547.487	109
547.7	117
547.914	113
548.127	114
548.34	100
548.554	110
548.767	116
548.98	86
549.193	91
549.407	118
549.62	113
549.833	98
550.046	113
550.259	100
550.473	107
550.686	99
550.899	113
551.112	88
551.325	97
551.538	104
551.751	97
551.964	96
552.177	96
552.39	108
552.603	84
552.816	105
553.029	95
553.242	117
553.455	109
553.667	98
553.88	115
554.093	101
554.306	109
554.519	106
554.732	110
554.944	104
555.157	96
555.37	109
555.583	116
555.795	100
556.008	105
556.221	103
556.433	108
556.646	101
556.859	82
557.071	98
557.284	100
557.496	104
557.709	102
557.921	93
558.134	94
558.346	103
558.559	111
558.771	92
558.984	109
559.196	101
559.409	86
559.621	98
559.833	88
560.046	92
560.258	102
560.47	109
560.683	93
560.895	106
561.107	100
561.32	115
561.532	99
561.744	89
561.956	96
562.168	98
562.381	104
562.593	106
562.805	95
563.017	86
563.229	98
563.441	87
563.653	100
563.865	94
564.077	91
564.289	101
564.501	101
564.713	95
564.925	91
565.137	96
565.349	95
565.561	114
565.773	94
565.985	86
566.197	104
566.408	96
566.62	97
566.832	105
567.044	107
567.255	113
567.467	89
567.679	104
567.891	88
568.102	97
568.314	87
568.526	87
568.737	88
568.949	80
569.161	85
569.372	83
569.584	76
569.795	85
570.007	89
570.218	88
570.43	81
570.641	90
570.853	84
571.064	82
571.276	108
571.487	94
571.698	106
571.91	86
572.121	84
572.333	86
572.544	97
572.755	83
572.966	100
573.178	83
573.389	111
573.6	87
573.811	85
574.023	89
574.234	74
574.445	87
574.656	86
574.867	84
575.078	84
575.289	93
575.501	93
575.712	86
575.923	89
576.134	86
576.345	83
576.556	83
576.767	87
576.978	85
577.188	86
577.399	99
577.61	83
577.821	100
578.032	83
578.243	95
578.454	90
578.665	90
578.875	89
579.086	91
579.297	85
579.508	77
579.718	87
579.929	90
580.14	87
580.35	90
580.561	96
580.772	92
580.982	99
581.193	88
581.403	88
581.614	82
581.825	95
582.035	85
582.246	80
582.456	67
582.667	83
582.877	98
583.087	85
583.298	81
583.508	89
583.719	71
583.929	91
584.139	81
584.35	87
584.56	105
584.77	82
584.981	79
585.191	80
585.401	83
585.611	88
585.821	100
586.032	80
586.242	85
586.452	78
586.662	75
586.872	86
587.082	71
587.292	79
587.502	73
587.713	97
587.923	75
588.133	75
588.343	80
588.553	85
588.762	98
588.972	88
589.182	91
589.392	86
589.602	79
589.812	81
590.022	88
590.232	99
590.441	96
590.651	88
590.861	83
591.071	93
591.281	104
591.49	86
591.7	84
591.91	84
592.119	96
592.329	92
592.539	81
592.748	87
592.958	91
593.167	83
593.377	84
593.587	92
593.796	87
594.006	89
594.215	75
594.424	70
594.634	88
594.843	90
595.053	84
595.262	89
595.472	85
595.681	95
595.89	84
596.1	88
596.309	82
596.518	75
596.727	101
596.937	107
597.146	94
597.355	81
597.564	88
597.774	83
597.983	81
598.192	83
598.401	91
598.61	88
598.819	87
599.028	75
599.237	73
599.446	97
599.655	99
599.864	88
600.073	85
600.282	97
600.491	84
600.7	90
600.909	100
601.118	87
601.327	79
601.536	93
601.745	91
601.953	97
602.162	91
602.371	94
602.58	99
602.789	91
602.997	98
603.206	101
603.415	100
603.623	85
603.832	91
604.041	103
604.249	88
604.458	91
604.666	87
604.875	102
605.084	85
605.292	83
605.501	99
605.709	96
605.918	92
606.126	83
606.334	78
606.543	90
606.751	107
606.96	99
607.168	101
607.376	102
607.585	81
607.793	93
608.001	90
608.21	93
608.418	94
608.626	83
608.834	93
609.043	91
609.251	98
609.459	103
609.667	100
609.875	87
610.083	94
610.291	95
610.499	95
610.707	96
610.916	100
611.124	98
611.332	85
611.54	85
611.748	98
611.955	94
612.163	83
612.371	88
612.579	90
612.787	88
612.995	94
613.203	92
613.411	100
613.618	96
613.826	84
614.034	80
614.242	95
614.449	94
614.657	99
614.865	87
615.072	90
615.28	94
615.488	110
615.695	86
615.903	92
616.111	105
616.318	106
616.526	91
616.733	99
616.941	92
617.148	90
617.356	104
617.563	91
617.771	98
617.978	87
618.185	88
618.393	85
618.6	89
618.807	81
619.015	92
619.222	92
619.429	75
619.637	88
619.844	95
620.051	91
620.258	91
620.466	92
620.673	93
620.88	89
621.087	96
621.294	89
621.501	89
621.708	86
621.915	80
622.122	82
622.329	101
622.536	90
622.743	77
622.95	93
623.157	85
623.364	86
623.571	77
623.778	93
623.985	95
624.192	86
624.399	96
624.606	105
624.812	101
625.019	84
625.226	96
625.433	92
625.639	81
625.846	88
626.053	75
626.259	76
626.466	99
626.673	81
626.879	90
627.086	80
627.293	108
627.499	95
627.706	96
627.912	64
628.119	89
628.325	85
628.532	67
628.738	83
628.945	87
629.151	101
629.357	96
629.564	86
629.77	92
629.976	90
630.183	89
630.389	89
630.595	86
630.802	98
631.008	85
631.214	89
631.42	83
631.627	78
631.833	91
632.039	79
632.245	88
632.451	98
632.657	95
632.863	103
633.069	80
633.275	81
633.481	84
633.688	91
633.893	88
634.099	93
634.305	76
634.511	92
634.717	85
634.923	85
635.129	76
635.335	101
635.541	82
635.747	86
635.952	86
636.158	90
636.364	77
636.57	79
636.775	88
636.981	92
637.187	87
637.392	77
637.598	81
637.804	86
638.009	81
638.215	75
638.421	81
638.626	86
638.832	86
639.037	85
639.243	86
639.448	92
639.654	88
639.859	95
640.065	88
640.27	102
640.475	94
640.681	91
640.886	97
641.091	87
641.297	81
641.502	95
641.707	85
641.913	82
642.118	72
642.323	74
642.528	87
642.733	82
642.939	92
643.144	81
643.349	101
643.554	72
643.759	77
643.964	76
644.169	85
644.374	73
644.579	85
644.784	102
644.989	101
645.194	97
645.399	83
645.604	88
645.809	87
646.014	71
646.219	83
646.423	92
646.628	96
646.833	87
647.038	92
647.243	88
647.447	99
647.652	92
647.857	87
648.062	90
648.266	82
648.471	80
648.676	77
648.88	83
649.085	84
649.289	83
649.494	85
649.698	91
649.903	100
650.107	98
650.312	84
650.516	90
650.721	85
650.925	91
651.13	85
651.334	78
651.539	73
651.743	81
651.947	93
652.152	93
652.356	89
652.56	92
652.764	73
652.969	83
653.173	88
653.377	87
653.581	102
653.785	83
653.99	84
654.194	81
654.398	76
654.602	79
654.806	90
655.01	96
655.214	76
655.418	93
655.622	69
655.826	85
656.03	72
656.234	79
656.438	82
656.642	84
656.846	75
657.049	76
657.253	74
657.457	80
657.661	96
657.865	83
658.068	82
658.272	80
658.476	96
658.68	79
658.883	77
659.087	85
659.291	104
659.494	92
659.698	83
659.901	84
660.105	78
660.309	64
660.512	74
660.716	86
660.919	77
661.123	101
661.326	92
661.53	88
661.733	86
661.936	91
662.14	86
662.343	70
662.546	90
662.75	88
662.953	87
663.156	85
663.36	98
663.563	84
663.766	95
663.969	71
664.173	94
664.376	82
664.579	75
664.782	83
664.985	76
665.188	87
665.391	102
665.594	84
665.797	81
666	87
666.203	88
666.406	90
666.609	83
666.812	73
667.015	86
667.218	95
667.421	88
667.624	82
667.827	83
668.03	99
668.232	86
668.435	78
668.638	83
668.841	81
669.043	68
669.246	87
669.449	86
669.651	85
669.854	83
670.057	77
670.259	80
670.462	87
670.665	91
670.867	82
671.07	89
671.272	76
671.475	99
671.677	95
671.88	82
672.082	81
672.284	98
672.487	77
672.689	80
672.892	89
