Data from Location4.07152019.Energy5.Lamp.07192019.3%Agarose_HRD10591_15-25-35-579.txt Node
Date: Fri Jul 19 15:25:35 EDT 2019
User: cochatt
Spectrometer: HR+D1059
Trigger mode: 1
Integration Time (sec): 1.000000E-1
Scans to average: 1
Electric dark correction enabled: true
Nonlinearity correction enabled: false
Boxcar width: 0
XAxis mode: Wavelengths
Number of Pixels in Spectrum: 2048
>>>>>Begin Spectral Data<<<<<
223.165	-14
223.4	-14
223.635	-14
223.869	-15
224.104	-19
224.338	-23
224.573	-20
224.808	-6
225.042	-12
225.277	-4
225.511	0
225.746	-4
225.98	10
226.215	9
226.449	21
226.683	24
226.918	26
227.152	27
227.387	31
227.621	41
227.856	33
228.09	46
228.324	61
228.559	56
228.793	49
229.027	65
229.262	61
229.496	68
229.73	78
229.964	78
230.199	69
230.433	77
230.667	82
230.901	67
231.136	78
231.37	81
231.604	74
231.838	80
232.072	71
232.306	79
232.541	85
232.775	68
233.009	92
233.243	92
233.477	68
233.711	91
233.945	78
234.179	84
234.413	80
234.647	74
234.881	79
235.115	80
235.349	79
235.583	68
235.817	58
236.051	65
236.285	72
236.519	96
236.753	66
236.987	63
237.221	69
237.455	84
237.689	80
237.922	76
238.156	78
238.39	71
238.624	82
238.858	80
239.091	64
239.325	76
239.559	77
239.793	76
240.027	76
240.26	66
240.494	72
240.728	71
240.961	80
241.195	82
241.429	77
241.662	92
241.896	73
242.13	59
242.363	64
242.597	73
242.83	84
243.064	67
243.298	84
243.531	83
243.765	62
243.998	87
244.232	84
244.465	58
244.699	69
244.932	68
245.166	67
245.399	87
245.633	73
245.866	72
246.099	67
246.333	67
246.566	78
246.8	69
247.033	71
247.266	79
247.5	75
247.733	81
247.966	82
248.2	80
248.433	80
248.666	77
248.899	75
249.133	74
249.366	82
249.599	73
249.832	82
250.066	73
250.299	85
250.532	68
250.765	77
250.998	68
251.231	69
251.465	66
251.698	77
251.931	82
252.164	82
252.397	70
252.63	78
252.863	72
253.096	76
253.329	91
253.562	82
253.795	79
254.028	97
254.261	66
254.494	78
254.727	72
254.96	67
255.193	79
255.426	88
255.659	75
255.892	75
256.124	77
256.357	83
256.59	60
256.823	79
257.056	77
257.289	84
257.521	79
257.754	76
257.987	82
258.22	78
258.452	71
258.685	82
258.918	78
259.151	87
259.383	65
259.616	85
259.849	73
260.081	63
260.314	64
260.547	75
260.779	77
261.012	66
261.244	84
261.477	98
261.71	89
261.942	76
262.175	78
262.407	77
262.64	86
262.872	68
263.105	71
263.337	75
263.57	87
263.802	78
264.035	74
264.267	78
264.499	89
264.732	78
264.964	73
265.197	83
265.429	78
265.661	85
265.894	83
266.126	85
266.358	84
266.591	86
266.823	100
267.055	81
267.287	82
267.52	75
267.752	69
267.984	72
268.216	75
268.448	83
268.681	68
268.913	79
269.145	84
269.377	77
269.609	84
269.841	83
270.073	80
270.306	84
270.538	61
270.77	80
271.002	78
271.234	76
271.466	86
271.698	83
271.93	96
272.162	79
272.394	83
272.626	80
272.858	87
273.09	77
273.322	90
273.553	82
273.785	72
274.017	80
274.249	87
274.481	60
274.713	81
274.945	75
275.176	77
275.408	64
275.64	67
275.872	77
276.104	82
276.335	80
276.567	75
276.799	85
277.031	82
277.262	72
277.494	79
277.726	87
277.957	82
278.189	77
278.421	76
278.652	85
278.884	72
279.115	71
279.347	85
279.579	84
279.81	63
280.042	80
280.273	91
280.505	81
280.736	74
280.968	72
281.199	81
281.431	102
281.662	96
281.894	84
282.125	88
282.356	76
282.588	77
282.819	83
283.051	81
283.282	86
283.513	70
283.745	74
283.976	78
284.207	83
284.439	81
284.67	86
284.901	80
285.132	79
285.364	65
285.595	83
285.826	61
286.057	86
286.288	68
286.52	81
286.751	74
286.982	80
287.213	77
287.444	87
287.675	84
287.906	89
288.138	72
288.369	67
288.6	92
288.831	76
289.062	84
289.293	93
289.524	79
289.755	99
289.986	91
290.217	77
290.448	95
290.679	81
290.91	73
291.141	75
291.371	75
291.602	83
291.833	77
292.064	72
292.295	77
292.526	77
292.757	72
292.987	83
293.218	79
293.449	89
293.68	80
293.91	79
294.141	78
294.372	78
294.603	79
294.833	99
295.064	65
295.295	78
295.525	62
295.756	87
295.987	77
296.217	84
296.448	69
296.679	75
296.909	84
297.14	81
297.37	79
297.601	63
297.831	79
298.062	76
298.292	70
298.523	78
298.753	92
298.984	88
299.214	83
299.445	102
299.675	96
299.905	70
300.136	82
300.366	77
300.597	95
300.827	87
301.057	77
301.288	83
301.518	85
301.748	72
301.979	79
302.209	93
302.439	73
302.669	77
302.9	102
303.13	83
303.36	92
303.59	79
303.82	92
304.051	87
304.281	91
304.511	83
304.741	82
304.971	91
305.201	108
305.431	93
305.661	79
305.891	87
306.121	78
306.352	90
306.582	79
306.812	73
307.042	75
307.272	85
307.502	83
307.731	92
307.961	91
308.191	94
308.421	87
308.651	72
308.881	83
309.111	85
309.341	86
309.571	87
309.8	95
310.03	73
310.26	78
310.49	68
310.72	81
310.949	75
311.179	91
311.409	82
311.639	69
311.868	81
312.098	88
312.328	86
312.557	88
312.787	83
313.017	75
313.246	79
313.476	75
313.706	80
313.935	83
314.165	85
314.394	83
314.624	95
314.853	75
315.083	83
315.312	84
315.542	76
315.771	84
316.001	72
316.23	81
316.46	77
316.689	87
316.919	83
317.148	78
317.377	76
317.607	82
317.836	83
318.065	77
318.295	80
318.524	80
318.753	83
318.983	92
319.212	87
319.441	91
319.67	87
319.9	79
320.129	73
320.358	78
320.587	89
320.816	88
321.046	71
321.275	83
321.504	96
321.733	94
321.962	82
322.191	72
322.42	77
322.649	73
322.878	87
323.108	86
323.337	87
323.566	85
323.795	78
324.024	90
324.253	85
324.482	82
324.71	68
324.939	80
325.168	84
325.397	97
325.626	82
325.855	70
326.084	69
326.313	71
326.542	69
326.77	79
326.999	74
327.228	91
327.457	90
327.686	78
327.914	78
328.143	77
328.372	65
328.6	85
328.829	89
329.058	82
329.287	91
329.515	80
329.744	87
329.972	83
330.201	85
330.43	91
330.658	85
330.887	80
331.115	71
331.344	88
331.572	77
331.801	80
332.03	72
332.258	88
332.486	84
332.715	89
332.943	86
333.172	97
333.4	77
333.629	92
333.857	86
334.085	81
334.314	91
334.542	77
334.771	93
334.999	68
335.227	91
335.455	83
335.684	77
335.912	91
336.14	92
336.369	77
336.597	73
336.825	96
337.053	83
337.281	73
337.51	96
337.738	88
337.966	83
338.194	80
338.422	71
338.65	72
338.878	88
339.106	78
339.334	80
339.562	87
339.79	73
340.018	76
340.246	84
340.474	79
340.702	72
340.93	78
341.158	85
341.386	69
341.614	87
341.842	76
342.07	89
342.298	90
342.526	87
342.754	75
342.981	80
343.209	76
343.437	88
343.665	85
343.893	86
344.12	100
344.348	76
344.576	73
344.804	82
345.031	81
345.259	80
345.487	85
345.714	80
345.942	76
346.17	99
346.397	94
346.625	83
346.853	91
347.08	70
347.308	81
347.535	88
347.763	72
347.99	79
348.218	79
348.445	85
348.673	73
348.9	91
349.128	84
349.355	79
349.583	72
349.81	77
350.037	94
350.265	84
350.492	81
350.72	91
350.947	68
351.174	82
351.402	87
351.629	87
351.856	79
352.083	72
352.311	84
352.538	76
352.765	92
352.992	87
353.22	81
353.447	76
353.674	86
353.901	77
354.128	74
354.355	80
354.583	87
354.81	83
355.037	80
355.264	84
355.491	78
355.718	87
355.945	83
356.172	61
356.399	81
356.626	72
356.853	72
357.08	85
357.307	94
357.534	83
357.761	85
357.988	79
358.215	83
358.441	87
358.668	73
358.895	91
359.122	85
359.349	75
359.576	86
359.802	73
360.029	85
360.256	88
360.483	84
360.709	75
360.936	83
361.163	80
361.39	97
361.616	73
361.843	75
362.07	89
362.296	97
362.523	81
362.749	55
362.976	80
363.203	80
363.429	80
363.656	85
363.882	87
364.109	83
364.335	93
364.562	81
364.788	82
365.015	70
365.241	68
365.468	64
365.694	77
365.92	77
366.147	71
366.373	78
366.599	83
366.826	89
367.052	91
367.278	86
367.505	79
367.731	85
367.957	82
368.184	88
368.41	82
368.636	80
368.862	86
369.089	91
369.315	88
369.541	62
369.767	76
369.993	87
370.219	92
370.445	68
370.672	80
370.898	81
371.124	88
371.35	72
371.576	77
371.802	64
372.028	70
372.254	79
372.48	95
372.706	90
372.932	83
373.158	85
373.384	90
373.61	94
373.835	78
374.061	67
374.287	76
374.513	90
374.739	83
374.965	82
375.191	93
375.416	91
375.642	83
375.868	88
376.094	84
376.319	93
376.545	75
376.771	80
376.997	72
377.222	83
377.448	80
377.674	92
377.899	99
378.125	90
378.35	94
378.576	92
378.802	70
379.027	77
379.253	92
379.478	72
379.704	83
379.929	69
380.155	94
380.38	67
380.606	55
380.831	57
381.057	90
381.282	88
381.507	80
381.733	80
381.958	96
382.184	86
382.409	80
382.634	89
382.86	83
383.085	79
383.31	80
383.535	80
383.761	76
383.986	82
384.211	81
384.436	81
384.662	85
384.887	68
385.112	77
385.337	69
385.562	86
385.787	84
386.013	87
386.238	80
386.463	69
386.688	77
386.913	71
387.138	77
387.363	74
387.588	92
387.813	77
388.038	80
388.263	80
388.488	96
388.713	85
388.938	67
389.163	73
389.387	91
389.612	79
389.837	87
390.062	82
390.287	77
390.512	71
390.736	85
390.961	91
391.186	72
391.411	87
391.636	86
391.86	71
392.085	73
392.31	79
392.534	80
392.759	93
392.984	88
393.208	92
393.433	94
393.658	102
393.882	72
394.107	82
394.331	78
394.556	78
394.78	65
395.005	78
395.229	86
395.454	88
395.678	68
395.903	84
396.127	73
396.352	81
396.576	74
396.801	78
397.025	78
397.249	89
397.474	86
397.698	79
397.922	84
398.147	83
398.371	78
398.595	94
398.82	81
399.044	78
399.268	91
399.492	95
399.717	88
399.941	90
400.165	88
400.389	90
400.613	91
400.837	77
401.062	91
401.286	88
401.51	81
401.734	88
401.958	81
402.182	84
402.406	85
402.63	85
402.854	82
403.078	75
403.302	75
403.526	78
403.75	90
403.974	85
404.198	87
404.422	75
404.645	86
404.869	87
405.093	82
405.317	86
405.541	88
405.765	96
405.988	80
406.212	88
406.436	83
406.66	95
406.883	73
407.107	85
407.331	105
407.555	91
407.778	79
408.002	81
408.226	84
408.449	83
408.673	73
408.896	97
409.12	96
409.344	77
409.567	79
409.791	83
410.014	99
410.238	92
410.461	82
410.685	90
410.908	80
411.132	74
411.355	69
411.578	80
411.802	99
412.025	73
412.249	87
412.472	94
412.695	84
412.919	94
413.142	83
413.365	84
413.589	103
413.812	98
414.035	95
414.258	75
414.482	93
414.705	92
414.928	109
415.151	77
415.374	96
415.597	102
415.821	91
416.044	95
416.267	91
416.49	77
416.713	113
416.936	92
417.159	101
417.382	89
417.605	101
417.828	78
418.051	85
418.274	94
418.497	78
418.72	89
418.943	90
419.166	90
419.389	97
419.611	97
419.834	73
420.057	100
420.28	79
420.503	75
420.726	80
420.948	83
421.171	85
421.394	93
421.617	94
421.839	97
422.062	78
422.285	85
422.507	91
422.73	79
422.953	93
423.175	88
423.398	85
423.621	82
423.843	96
424.066	101
424.288	88
424.511	82
424.733	81
424.956	95
425.178	89
425.401	73
425.623	89
425.846	102
426.068	97
426.291	93
426.513	84
426.735	93
426.958	101
427.18	89
427.402	72
427.625	99
427.847	91
428.069	89
428.292	83
428.514	92
428.736	80
428.958	104
429.181	93
429.403	95
429.625	95
429.847	83
430.069	78
430.292	95
430.514	105
430.736	95
430.958	103
431.18	79
431.402	104
431.624	79
431.846	84
432.068	88
432.29	79
432.512	77
432.734	94
432.956	98
433.178	111
433.4	93
433.622	101
433.844	81
434.066	97
434.287	80
434.509	83
434.731	86
434.953	91
435.175	95
435.397	99
435.618	85
435.84	78
436.062	100
436.284	76
436.505	92
436.727	87
436.949	104
437.17	93
437.392	90
437.614	94
437.835	71
438.057	81
438.278	81
438.5	98
438.721	84
438.943	93
439.165	109
439.386	92
439.608	111
439.829	102
440.05	85
440.272	89
440.493	93
440.715	95
440.936	91
441.158	98
441.379	99
441.6	85
441.822	103
442.043	102
442.264	85
442.486	87
442.707	92
442.928	87
443.149	89
443.371	89
443.592	88
443.813	69
444.034	102
444.255	91
444.476	79
444.698	100
444.919	76
445.14	218
445.361	149
445.582	113
445.803	86
446.024	101
446.245	73
446.466	110
446.687	96
446.908	93
447.129	105
447.35	103
447.571	92
447.792	93
448.013	97
448.234	100
448.455	98
448.675	92
448.896	80
449.117	106
449.338	99
449.559	95
449.779	105
450	80
450.221	83
450.442	90
450.662	112
450.883	98
451.104	95
451.324	77
451.545	108
451.766	83
451.986	81
452.207	83
452.428	81
452.648	83
452.869	97
453.089	99
453.31	93
453.53	79
453.751	98
453.971	88
454.192	109
454.412	79
454.633	93
454.853	91
455.073	96
455.294	94
455.514	95
455.734	98
455.955	83
456.175	86
456.395	79
456.616	84
456.836	91
457.056	66
457.276	86
457.497	89
457.717	68
457.937	84
458.157	88
458.377	89
458.598	73
458.818	83
459.038	91
459.258	67
459.478	78
459.698	85
459.918	68
460.138	76
460.358	76
460.578	95
460.798	104
461.018	93
461.238	83
461.458	84
461.678	74
461.898	95
462.118	78
462.338	92
462.558	92
462.777	98
462.997	84
463.217	90
463.437	84
463.657	79
463.876	86
464.096	74
464.316	73
464.536	89
464.755	87
464.975	91
465.195	79
465.414	85
465.634	84
465.854	88
466.073	77
466.293	86
466.512	109
466.732	104
466.951	104
467.171	110
467.391	85
467.61	100
467.829	96
468.049	90
468.268	84
468.488	87
468.707	88
468.927	95
469.146	96
469.365	101
469.585	92
469.804	92
470.023	95
470.243	100
470.462	90
470.681	87
470.901	80
471.12	96
471.339	95
471.558	82
471.777	88
471.997	92
472.216	87
472.435	87
472.654	90
472.873	77
473.092	99
473.311	87
473.53	100
473.749	97
473.968	96
474.187	87
474.406	80
474.625	76
474.844	86
475.063	89
475.282	100
475.501	87
475.72	88
475.939	91
476.158	107
476.377	109
476.596	94
476.814	97
477.033	81
477.252	96
477.471	89
477.69	81
477.908	102
478.127	82
478.346	99
478.564	86
478.783	104
479.002	96
479.22	93
479.439	99
479.658	80
479.876	95
480.095	101
480.313	91
480.532	84
480.751	97
480.969	80
481.188	94
481.406	89
481.624	77
481.843	94
482.061	77
482.28	97
482.498	97
482.717	100
482.935	94
483.153	100
483.372	95
483.59	92
483.808	92
484.027	95
484.245	97
484.463	99
484.681	99
484.9	107
485.118	99
485.336	93
485.554	98
485.772	84
485.99	77
486.209	88
486.427	91
486.645	72
486.863	82
487.081	111
487.299	96
487.517	104
487.735	81
487.953	97
488.171	111
488.389	90
488.607	95
488.825	96
489.043	87
489.261	91
489.479	104
489.696	96
489.914	78
490.132	93
490.35	88
490.568	93
490.786	89
491.003	101
491.221	125
491.439	127
491.657	105
491.874	125
492.092	123
492.31	129
492.527	104
492.745	104
492.963	107
493.18	111
493.398	109
493.615	111
493.833	113
494.05	109
494.268	96
494.485	103
494.703	106
494.92	114
495.138	108
495.355	101
495.573	115
495.79	98
496.008	111
496.225	98
496.442	103
496.66	124
496.877	115
497.094	99
497.312	101
497.529	94
497.746	94
497.963	89
498.181	113
498.398	88
498.615	94
498.832	102
499.049	85
499.267	93
499.484	82
499.701	95
499.918	82
500.135	86
500.352	80
500.569	95
500.786	94
501.003	95
501.22	100
501.437	86
501.654	111
501.871	78
502.088	100
502.305	92
502.522	96
502.739	70
502.956	80
503.172	78
503.389	80
503.606	91
503.823	101
504.04	104
504.256	95
504.473	101
504.69	91
504.907	76
505.123	91
505.34	80
505.557	89
505.773	85
505.99	88
506.207	101
506.423	101
506.64	89
506.856	89
507.073	96
507.289	91
507.506	91
507.722	102
507.939	72
508.155	77
508.372	85
508.588	81
508.805	97
509.021	93
509.238	90
509.454	96
509.67	86
509.887	76
510.103	77
510.319	87
510.536	86
510.752	95
510.968	87
511.184	86
511.401	84
511.617	71
511.833	80
512.049	89
512.265	77
512.481	84
512.698	77
512.914	91
513.13	92
513.346	83
513.562	74
513.778	83
513.994	85
514.21	82
514.426	74
514.642	76
514.858	80
515.074	79
515.29	85
515.506	87
515.721	76
515.937	85
516.153	73
516.369	96
516.585	86
516.801	85
517.016	91
517.232	63
517.448	80
517.664	88
517.879	83
518.095	75
518.311	83
518.527	95
518.742	88
518.958	98
519.173	89
519.389	85
519.605	88
519.82	88
520.036	83
520.251	74
520.467	83
520.682	77
520.898	82
521.113	80
521.329	77
521.544	78
521.76	109
521.975	92
522.19	86
522.406	82
522.621	78
522.836	73
523.052	80
523.267	91
523.482	96
523.698	86
523.913	94
524.128	78
524.343	85
524.559	90
524.774	89
524.989	80
525.204	96
525.419	72
525.634	85
525.849	102
526.064	92
526.28	83
526.495	78
526.71	85
526.925	72
527.14	81
527.355	77
527.57	74
527.785	78
527.999	79
528.214	88
528.429	71
528.644	99
528.859	92
529.074	117
529.289	112
529.503	100
529.718	95
529.933	101
530.148	85
530.363	81
530.577	88
530.792	82
531.007	71
531.221	85
531.436	90
531.651	94
531.865	72
532.08	87
532.295	66
532.509	64
532.724	71
532.938	81
533.153	84
533.367	93
533.582	91
533.796	93
534.011	97
534.225	79
534.44	92
534.654	97
534.868	81
535.083	80
535.297	81
535.511	95
535.726	77
535.94	80
536.154	95
536.369	97
536.583	72
536.797	78
537.011	77
537.225	64
537.44	78
537.654	78
537.868	85
538.082	103
538.296	86
538.51	87
538.724	85
538.938	86
539.153	91
539.367	102
539.581	89
539.795	96
540.009	100
540.222	82
540.436	87
540.65	78
540.864	81
541.078	105
541.292	94
541.506	109
541.72	100
541.934	114
542.147	112
542.361	120
542.575	94
542.789	99
543.002	94
543.216	102
543.43	105
543.644	90
543.857	95
544.071	96
544.285	112
544.498	107
544.712	109
544.925	110
545.139	94
545.352	107
545.566	107
545.779	117
545.993	100
546.206	113
546.42	110
546.633	108
546.847	102
547.06	102
547.274	105
547.487	111
547.7	93
547.914	99
548.127	110
548.34	111
548.554	102
548.767	95
548.98	112
549.193	112
549.407	94
549.62	94
549.833	105
550.046	112
550.259	109
550.473	88
550.686	93
550.899	95
551.112	96
551.325	97
551.538	104
551.751	81
551.964	101
552.177	104
552.39	123
552.603	104
552.816	109
553.029	103
553.242	103
553.455	110
553.667	95
553.88	99
554.093	114
554.306	98
554.519	111
554.732	104
554.944	99
555.157	95
555.37	101
555.583	101
555.795	110
556.008	89
556.221	96
556.433	94
556.646	96
556.859	93
557.071	87
557.284	86
557.496	101
557.709	93
557.921	100
558.134	94
558.346	93
558.559	103
558.771	89
558.984	102
559.196	97
559.409	99
559.621	89
559.833	93
560.046	93
560.258	89
560.47	101
560.683	109
560.895	83
561.107	88
561.32	89
561.532	88
561.744	93
561.956	98
562.168	90
562.381	95
562.593	91
562.805	99
563.017	94
563.229	88
563.441	88
563.653	85
563.865	88
564.077	101
564.289	89
564.501	97
564.713	86
564.925	78
565.137	100
565.349	83
565.561	100
565.773	96
565.985	90
566.197	87
566.408	99
566.62	94
566.832	88
567.044	100
567.255	81
567.467	76
567.679	94
567.891	86
568.102	94
568.314	85
568.526	81
568.737	84
568.949	89
569.161	102
569.372	82
569.584	73
569.795	88
570.007	89
570.218	84
570.43	92
570.641	78
570.853	86
571.064	91
571.276	92
571.487	86
571.698	80
571.91	87
572.121	84
572.333	95
572.544	79
572.755	88
572.966	79
573.178	63
573.389	88
573.6	86
573.811	72
574.023	84
574.234	73
574.445	96
574.656	87
574.867	96
575.078	80
575.289	86
575.501	78
575.712	75
575.923	88
576.134	96
576.345	80
576.556	90
576.767	89
576.978	83
577.188	91
577.399	89
577.61	74
577.821	71
578.032	81
578.243	89
578.454	93
578.665	96
578.875	82
579.086	86
579.297	94
579.508	92
579.718	88
579.929	103
580.14	89
580.35	87
580.561	92
580.772	83
580.982	76
581.193	100
581.403	79
581.614	87
581.825	84
582.035	87
582.246	93
582.456	87
582.667	79
582.877	91
583.087	73
583.298	85
583.508	79
583.719	76
583.929	77
584.139	80
584.35	83
584.56	98
584.77	97
584.981	91
585.191	68
585.401	75
585.611	79
585.821	81
586.032	94
586.242	87
586.452	75
586.662	87
586.872	70
587.082	78
587.292	88
587.502	63
587.713	83
587.923	71
588.133	85
588.343	80
588.553	78
588.762	95
588.972	100
589.182	88
589.392	86
589.602	77
589.812	77
590.022	88
590.232	92
590.441	89
590.651	65
590.861	80
591.071	88
591.281	84
591.49	81
591.7	81
591.91	83
592.119	81
592.329	78
592.539	80
592.748	89
592.958	84
593.167	85
593.377	84
593.587	84
593.796	81
594.006	89
594.215	82
594.424	93
594.634	80
594.843	88
595.053	104
595.262	80
595.472	88
595.681	94
595.89	78
596.1	71
596.309	98
596.518	89
596.727	94
596.937	77
597.146	88
597.355	77
597.564	73
597.774	82
597.983	82
598.192	86
598.401	84
598.61	85
598.819	78
599.028	78
599.237	74
599.446	94
599.655	72
599.864	79
600.073	80
600.282	78
600.491	84
600.7	83
600.909	83
601.118	80
601.327	79
601.536	82
601.745	89
601.953	80
602.162	86
602.371	80
602.58	83
602.789	77
602.997	96
603.206	87
603.415	95
603.623	93
603.832	89
604.041	79
604.249	78
604.458	93
604.666	86
604.875	71
605.084	100
605.292	76
605.501	87
605.709	83
605.918	94
606.126	85
606.334	90
606.543	89
606.751	88
606.96	81
607.168	102
607.376	88
607.585	96
607.793	87
608.001	90
608.21	91
608.418	80
608.626	87
608.834	98
609.043	96
609.251	96
609.459	88
609.667	104
609.875	84
610.083	91
610.291	90
610.499	76
610.707	96
610.916	85
611.124	88
611.332	106
611.54	85
611.748	85
611.955	80
612.163	86
612.371	87
612.579	79
612.787	87
612.995	86
613.203	113
613.411	99
613.618	78
613.826	79
614.034	88
614.242	92
614.449	86
614.657	87
614.865	95
615.072	87
615.28	77
615.488	88
615.695	92
615.903	81
616.111	85
616.318	92
616.526	97
616.733	91
616.941	91
617.148	88
617.356	89
617.563	95
617.771	86
617.978	86
618.185	85
618.393	97
618.6	93
618.807	90
619.015	91
619.222	78
619.429	90
619.637	93
619.844	85
620.051	93
620.258	86
620.466	83
620.673	87
620.88	74
621.087	103
621.294	86
621.501	88
621.708	85
621.915	87
622.122	93
622.329	89
622.536	98
622.743	91
622.95	87
623.157	83
623.364	96
623.571	84
623.778	93
623.985	98
624.192	81
624.399	101
624.606	94
624.812	75
625.019	88
625.226	81
625.433	86
625.639	96
625.846	91
626.053	79
626.259	86
626.466	81
626.673	77
626.879	73
627.086	92
627.293	85
627.499	92
627.706	96
627.912	95
628.119	87
628.325	96
628.532	82
628.738	78
628.945	81
629.151	85
629.357	86
629.564	98
629.77	99
629.976	91
630.183	84
630.389	93
630.595	80
630.802	79
631.008	98
631.214	86
631.42	83
631.627	89
631.833	89
632.039	82
632.245	97
632.451	68
632.657	77
632.863	89
633.069	72
633.275	72
633.481	91
633.688	87
633.893	94
634.099	91
634.305	81
634.511	100
634.717	96
634.923	84
635.129	71
635.335	71
635.541	81
635.747	85
635.952	90
636.158	90
636.364	92
636.57	65
636.775	84
636.981	81
637.187	96
637.392	99
637.598	84
637.804	83
638.009	86
638.215	96
638.421	84
638.626	73
638.832	82
639.037	98
639.243	84
639.448	94
639.654	80
639.859	82
640.065	81
640.27	107
640.475	87
640.681	80
640.886	84
641.091	83
641.297	89
641.502	89
641.707	73
641.913	72
642.118	72
642.323	82
642.528	78
642.733	95
642.939	80
643.144	83
643.349	83
643.554	84
643.759	67
643.964	95
644.169	96
644.374	91
644.579	92
644.784	86
644.989	94
645.194	83
645.399	82
645.604	97
645.809	87
646.014	87
646.219	84
646.423	79
646.628	103
646.833	84
647.038	80
647.243	91
647.447	95
647.652	85
647.857	73
648.062	89
648.266	92
648.471	70
648.676	96
648.88	87
649.085	89
649.289	78
649.494	79
649.698	91
649.903	81
650.107	85
650.312	88
650.516	76
650.721	72
650.925	81
651.13	69
651.334	84
651.539	86
651.743	86
651.947	77
652.152	84
652.356	74
652.56	82
652.764	83
652.969	70
653.173	67
653.377	92
653.581	86
653.785	78
653.99	76
654.194	89
654.398	64
654.602	89
654.806	88
655.01	91
655.214	88
655.418	84
655.622	64
655.826	80
656.03	82
656.234	71
656.438	75
656.642	78
656.846	86
657.049	93
657.253	95
657.457	76
657.661	81
657.865	75
658.068	93
658.272	76
658.476	89
658.68	91
658.883	68
659.087	87
659.291	93
659.494	75
659.698	82
659.901	80
660.105	85
660.309	96
660.512	77
660.716	78
660.919	84
661.123	75
661.326	79
661.53	89
661.733	88
661.936	70
662.14	79
662.343	71
662.546	84
662.75	82
662.953	91
663.156	72
663.36	93
663.563	86
663.766	79
663.969	87
664.173	86
664.376	77
664.579	71
664.782	65
664.985	83
665.188	65
665.391	78
665.594	85
665.797	81
666	77
666.203	70
666.406	81
666.609	78
666.812	72
667.015	82
667.218	75
667.421	82
667.624	79
667.827	88
668.03	88
668.232	77
668.435	77
668.638	81
668.841	86
669.043	88
669.246	81
669.449	85
669.651	81
669.854	78
670.057	86
670.259	87
670.462	84
670.665	82
670.867	88
671.07	72
671.272	91
671.475	72
671.677	80
671.88	73
672.082	75
672.284	82
672.487	81
672.689	84
672.892	50
