Data from Location4.07152019.Energy5.Lamp.07192019.3%Agarose_HRD10591_15-23-39-576.txt Node
Date: Fri Jul 19 15:23:39 EDT 2019
User: cochatt
Spectrometer: HR+D1059
Trigger mode: 1
Integration Time (sec): 1.000000E-1
Scans to average: 1
Electric dark correction enabled: true
Nonlinearity correction enabled: false
Boxcar width: 0
XAxis mode: Wavelengths
Number of Pixels in Spectrum: 2048
>>>>>Begin Spectral Data<<<<<
223.165	-16
223.4	-16
223.635	-16
223.869	-9
224.104	-5
224.338	-3
224.573	-20
224.808	-12
225.042	2
225.277	-2
225.511	-5
225.746	-6
225.98	13
226.215	2
226.449	6
226.683	10
226.918	22
227.152	23
227.387	27
227.621	31
227.856	34
228.09	35
228.324	56
228.559	44
228.793	59
229.027	61
229.262	64
229.496	69
229.73	58
229.964	69
230.199	63
230.433	65
230.667	76
230.901	74
231.136	55
231.37	88
231.604	88
231.838	77
232.072	73
232.306	68
232.541	83
232.775	77
233.009	71
233.243	78
233.477	68
233.711	80
233.945	74
234.179	71
234.413	74
234.647	79
234.881	74
235.115	69
235.349	80
235.583	72
235.817	76
236.051	77
236.285	79
236.519	69
236.753	72
236.987	79
237.221	72
237.455	67
237.689	72
237.922	66
238.156	71
238.39	66
238.624	72
238.858	70
239.091	85
239.325	75
239.559	76
239.793	65
240.027	87
240.26	72
240.494	69
240.728	82
240.961	80
241.195	85
241.429	64
241.662	70
241.896	70
242.13	60
242.363	55
242.597	66
242.83	71
243.064	70
243.298	72
243.531	78
243.765	70
243.998	66
244.232	72
244.465	63
244.699	62
244.932	66
245.166	85
245.399	83
245.633	74
245.866	67
246.099	70
246.333	69
246.566	77
246.8	64
247.033	70
247.266	60
247.5	69
247.733	71
247.966	80
248.2	75
248.433	67
248.666	57
248.899	74
249.133	77
249.366	73
249.599	71
249.832	75
250.066	64
250.299	83
250.532	71
250.765	65
250.998	63
251.231	61
251.465	80
251.698	64
251.931	69
252.164	72
252.397	84
252.63	68
252.863	79
253.096	64
253.329	76
253.562	71
253.795	79
254.028	83
254.261	83
254.494	69
254.727	69
254.96	77
255.193	70
255.426	69
255.659	66
255.892	84
256.124	81
256.357	72
256.59	77
256.823	71
257.056	79
257.289	88
257.521	83
257.754	77
257.987	61
258.22	82
258.452	71
258.685	68
258.918	81
259.151	76
259.383	78
259.616	75
259.849	76
260.081	82
260.314	77
260.547	82
260.779	73
261.012	82
261.244	80
261.477	82
261.71	85
261.942	72
262.175	63
262.407	71
262.64	71
262.872	77
263.105	80
263.337	78
263.57	83
263.802	80
264.035	71
264.267	75
264.499	79
264.732	77
264.964	93
265.197	68
265.429	67
265.661	64
265.894	82
266.126	80
266.358	75
266.591	80
266.823	79
267.055	79
267.287	79
267.52	79
267.752	79
267.984	79
268.216	77
268.448	79
268.681	78
268.913	84
269.145	71
269.377	70
269.609	87
269.841	77
270.073	61
270.306	68
270.538	71
270.77	78
271.002	79
271.234	71
271.466	91
271.698	79
271.93	77
272.162	78
272.394	77
272.626	65
272.858	70
273.09	83
273.322	66
273.553	73
273.785	75
274.017	65
274.249	85
274.481	79
274.713	76
274.945	87
275.176	78
275.408	77
275.64	80
275.872	87
276.104	91
276.335	76
276.567	78
276.799	71
277.031	82
277.262	64
277.494	83
277.726	88
277.957	79
278.189	74
278.421	80
278.652	87
278.884	81
279.115	70
279.347	85
279.579	84
279.81	79
280.042	91
280.273	85
280.505	73
280.736	86
280.968	88
281.199	79
281.431	92
281.662	85
281.894	93
282.125	82
282.356	72
282.588	78
282.819	64
283.051	78
283.282	85
283.513	82
283.745	83
283.976	87
284.207	78
284.439	82
284.67	72
284.901	75
285.132	87
285.364	69
285.595	86
285.826	75
286.057	99
286.288	75
286.52	79
286.751	77
286.982	88
287.213	79
287.444	85
287.675	83
287.906	67
288.138	73
288.369	72
288.6	84
288.831	71
289.062	78
289.293	70
289.524	77
289.755	72
289.986	89
290.217	94
290.448	91
290.679	78
290.91	76
291.141	82
291.371	76
291.602	78
291.833	66
292.064	70
292.295	85
292.526	85
292.757	74
292.987	86
293.218	79
293.449	95
293.68	83
293.91	76
294.141	80
294.372	80
294.603	67
294.833	92
295.064	80
295.295	71
295.525	96
295.756	75
295.987	93
296.217	79
296.448	82
296.679	71
296.909	79
297.14	83
297.37	84
297.601	81
297.831	73
298.062	70
298.292	83
298.523	65
298.753	82
298.984	86
299.214	82
299.445	83
299.675	85
299.905	66
300.136	87
300.366	76
300.597	75
300.827	76
301.057	78
301.288	78
301.518	72
301.748	76
301.979	74
302.209	69
302.439	86
302.669	77
302.9	87
303.13	84
303.36	69
303.59	84
303.82	81
304.051	89
304.281	75
304.511	83
304.741	83
304.971	80
305.201	83
305.431	87
305.661	87
305.891	77
306.121	71
306.352	91
306.582	82
306.812	78
307.042	76
307.272	77
307.502	87
307.731	69
307.961	97
308.191	80
308.421	81
308.651	79
308.881	90
309.111	88
309.341	83
309.571	73
309.8	78
310.03	82
310.26	84
310.49	79
310.72	76
310.949	82
311.179	87
311.409	70
311.639	71
311.868	65
312.098	76
312.328	84
312.557	74
312.787	79
313.017	78
313.246	80
313.476	72
313.706	69
313.935	77
314.165	84
314.394	71
314.624	90
314.853	83
315.083	69
315.312	71
315.542	69
315.771	72
316.001	84
316.23	78
316.46	85
316.689	89
316.919	77
317.148	80
317.377	83
317.607	79
317.836	80
318.065	98
318.295	76
318.524	84
318.753	77
318.983	92
319.212	84
319.441	92
319.67	84
319.9	79
320.129	66
320.358	80
320.587	80
320.816	85
321.046	92
321.275	86
321.504	77
321.733	72
321.962	91
322.191	81
322.42	89
322.649	89
322.878	90
323.108	79
323.337	70
323.566	92
323.795	77
324.024	75
324.253	77
324.482	85
324.71	87
324.939	75
325.168	96
325.397	89
325.626	83
325.855	77
326.084	74
326.313	71
326.542	74
326.77	81
326.999	79
327.228	82
327.457	84
327.686	73
327.914	86
328.143	83
328.372	78
328.6	79
328.829	67
329.058	79
329.287	88
329.515	87
329.744	89
329.972	76
330.201	67
330.43	76
330.658	78
330.887	78
331.115	75
331.344	83
331.572	84
331.801	86
332.03	68
332.258	72
332.486	83
332.715	82
332.943	75
333.172	80
333.4	72
333.629	80
333.857	80
334.085	72
334.314	80
334.542	85
334.771	82
334.999	72
335.227	85
335.455	86
335.684	88
335.912	78
336.14	82
336.369	68
336.597	79
336.825	85
337.053	101
337.281	84
337.51	98
337.738	72
337.966	74
338.194	83
338.422	81
338.65	74
338.878	72
339.106	70
339.334	77
339.562	66
339.79	71
340.018	73
340.246	83
340.474	83
340.702	81
340.93	90
341.158	83
341.386	85
341.614	84
341.842	80
342.07	73
342.298	79
342.526	81
342.754	84
342.981	82
343.209	84
343.437	80
343.665	84
343.893	72
344.12	78
344.348	85
344.576	72
344.804	67
345.031	81
345.259	71
345.487	80
345.714	78
345.942	70
346.17	74
346.397	85
346.625	75
346.853	70
347.08	80
347.308	80
347.535	86
347.763	81
347.99	78
348.218	93
348.445	90
348.673	71
348.9	82
349.128	72
349.355	66
349.583	80
349.81	90
350.037	70
350.265	78
350.492	79
350.72	69
350.947	71
351.174	68
351.402	63
351.629	78
351.856	69
352.083	69
352.311	85
352.538	77
352.765	77
352.992	82
353.22	78
353.447	77
353.674	76
353.901	80
354.128	72
354.355	94
354.583	87
354.81	83
355.037	92
355.264	89
355.491	80
355.718	84
355.945	72
356.172	94
356.399	77
356.626	77
356.853	92
357.08	69
357.307	98
357.534	77
357.761	85
357.988	81
358.215	82
358.441	77
358.668	82
358.895	79
359.122	65
359.349	76
359.576	83
359.802	68
360.029	66
360.256	73
360.483	69
360.709	85
360.936	91
361.163	93
361.39	79
361.616	76
361.843	77
362.07	84
362.296	76
362.523	80
362.749	79
362.976	81
363.203	85
363.429	87
363.656	96
363.882	90
364.109	82
364.335	71
364.562	78
364.788	77
365.015	80
365.241	67
365.468	78
365.694	78
365.92	87
366.147	77
366.373	66
366.599	83
366.826	83
367.052	85
367.278	77
367.505	81
367.731	77
367.957	92
368.184	85
368.41	78
368.636	71
368.862	71
369.089	79
369.315	74
369.541	86
369.767	85
369.993	77
370.219	67
370.445	88
370.672	85
370.898	73
371.124	81
371.35	68
371.576	81
371.802	77
372.028	70
372.254	84
372.48	80
372.706	84
372.932	70
373.158	84
373.384	87
373.61	89
373.835	84
374.061	76
374.287	79
374.513	93
374.739	78
374.965	76
375.191	70
375.416	68
375.642	70
375.868	70
376.094	84
376.319	77
376.545	76
376.771	81
376.997	77
377.222	79
377.448	79
377.674	80
377.899	73
378.125	64
378.35	83
378.576	69
378.802	63
379.027	73
379.253	72
379.478	87
379.704	80
379.929	85
380.155	83
380.38	76
380.606	83
380.831	90
381.057	84
381.282	84
381.507	80
381.733	83
381.958	79
382.184	79
382.409	86
382.634	76
382.86	81
383.085	79
383.31	70
383.535	83
383.761	89
383.986	87
384.211	85
384.436	70
384.662	80
384.887	78
385.112	81
385.337	78
385.562	79
385.787	70
386.013	86
386.238	84
386.463	89
386.688	82
386.913	73
387.138	82
387.363	84
387.588	84
387.813	82
388.038	79
388.263	87
388.488	72
388.713	80
388.938	62
389.163	94
389.387	82
389.612	87
389.837	77
390.062	87
390.287	81
390.512	85
390.736	78
390.961	72
391.186	78
391.411	78
391.636	92
391.86	68
392.085	78
392.31	86
392.534	94
392.759	81
392.984	77
393.208	73
393.433	84
393.658	77
393.882	86
394.107	88
394.331	85
394.556	86
394.78	78
395.005	82
395.229	83
395.454	77
395.678	73
395.903	88
396.127	80
396.352	81
396.576	76
396.801	83
397.025	95
397.249	80
397.474	84
397.698	90
397.922	76
398.147	86
398.371	89
398.595	70
398.82	69
399.044	82
399.268	85
399.492	84
399.717	88
399.941	90
400.165	83
400.389	83
400.613	70
400.837	77
401.062	76
401.286	73
401.51	92
401.734	85
401.958	83
402.182	80
402.406	84
402.63	88
402.854	81
403.078	84
403.302	77
403.526	82
403.75	90
403.974	75
404.198	93
404.422	89
404.645	80
404.869	82
405.093	80
405.317	88
405.541	102
405.765	90
405.988	92
406.212	78
406.436	80
406.66	82
406.883	86
407.107	88
407.331	99
407.555	87
407.778	84
408.002	92
408.226	94
408.449	81
408.673	77
408.896	72
409.12	95
409.344	76
409.567	78
409.791	82
410.014	88
410.238	83
410.461	84
410.685	92
410.908	81
411.132	78
411.355	89
411.578	85
411.802	87
412.025	91
412.249	83
412.472	91
412.695	86
412.919	92
413.142	82
413.365	73
413.589	91
413.812	99
414.035	86
414.258	90
414.482	96
414.705	83
414.928	78
415.151	83
415.374	78
415.597	79
415.821	87
416.044	99
416.267	91
416.49	76
416.713	86
416.936	95
417.159	92
417.382	92
417.605	80
417.828	77
418.051	89
418.274	93
418.497	90
418.72	84
418.943	82
419.166	93
419.389	71
419.611	84
419.834	83
420.057	91
420.28	92
420.503	90
420.726	81
420.948	81
421.171	95
421.394	79
421.617	92
421.839	81
422.062	94
422.285	79
422.507	84
422.73	92
422.953	87
423.175	90
423.398	91
423.621	82
423.843	106
424.066	89
424.288	90
424.511	91
424.733	83
424.956	93
425.178	102
425.401	88
425.623	91
425.846	91
426.068	81
426.291	88
426.513	95
426.735	84
426.958	78
427.18	72
427.402	84
427.625	101
427.847	90
428.069	94
428.292	89
428.514	84
428.736	96
428.958	82
429.181	79
429.403	99
429.625	94
429.847	91
430.069	92
430.292	88
430.514	77
430.736	73
430.958	84
431.18	83
431.402	97
431.624	96
431.846	83
432.068	88
432.29	77
432.512	83
432.734	81
432.956	86
433.178	91
433.4	81
433.622	100
433.844	93
434.066	84
434.287	95
434.509	68
434.731	81
434.953	96
435.175	89
435.397	91
435.618	88
435.84	66
436.062	85
436.284	98
436.505	76
436.727	88
436.949	97
437.17	94
437.392	91
437.614	76
437.835	73
438.057	85
438.278	79
438.5	83
438.721	87
438.943	78
439.165	90
439.386	98
439.608	82
439.829	84
440.05	99
440.272	103
440.493	100
440.715	90
440.936	97
441.158	108
441.379	103
441.6	100
441.822	94
442.043	97
442.264	89
442.486	79
442.707	84
442.928	90
443.149	90
443.371	84
443.592	103
443.813	91
444.034	87
444.255	100
444.476	94
444.698	90
444.919	95
445.14	174
445.361	132
445.582	87
445.803	85
446.024	93
446.245	90
446.466	81
446.687	122
446.908	104
447.129	105
447.35	105
447.571	108
447.792	95
448.013	95
448.234	99
448.455	96
448.675	80
448.896	83
449.117	87
449.338	96
449.559	72
449.779	92
450	88
450.221	80
450.442	90
450.662	99
450.883	89
451.104	100
451.324	78
451.545	85
451.766	99
451.986	81
452.207	97
452.428	81
452.648	91
452.869	84
453.089	98
453.31	90
453.53	88
453.751	65
453.971	88
454.192	86
454.412	79
454.633	86
454.853	78
455.073	75
455.294	74
455.514	92
455.734	95
455.955	83
456.175	71
456.395	85
456.616	73
456.836	86
457.056	92
457.276	85
457.497	98
457.717	83
457.937	64
458.157	93
458.377	87
458.598	82
458.818	84
459.038	66
459.258	62
459.478	92
459.698	63
459.918	74
460.138	68
460.358	95
460.578	97
460.798	92
461.018	103
461.238	94
461.458	86
461.678	91
461.898	84
462.118	75
462.338	78
462.558	84
462.777	77
462.997	84
463.217	72
463.437	79
463.657	90
463.876	93
464.096	86
464.316	83
464.536	77
464.755	77
464.975	74
465.195	83
465.414	78
465.634	82
465.854	90
466.073	95
466.293	88
466.512	102
466.732	79
466.951	102
467.171	87
467.391	88
467.61	95
467.829	94
468.049	83
468.268	96
468.488	93
468.707	91
468.927	90
469.146	97
469.365	84
469.585	110
469.804	89
470.023	88
470.243	101
470.462	98
470.681	93
470.901	104
471.12	94
471.339	83
471.558	88
471.777	89
471.997	84
472.216	87
472.435	78
472.654	91
472.873	79
473.092	88
473.311	87
473.53	93
473.749	93
473.968	90
474.187	96
474.406	87
474.625	94
474.844	88
475.063	90
475.282	82
475.501	90
475.72	86
475.939	89
476.158	90
476.377	91
476.596	85
476.814	89
477.033	82
477.252	90
477.471	82
477.69	81
477.908	109
478.127	106
478.346	86
478.564	98
478.783	90
479.002	91
479.22	84
479.439	96
479.658	78
479.876	73
480.095	84
480.313	84
480.532	76
480.751	74
480.969	85
481.188	73
481.406	80
481.624	82
481.843	61
482.061	92
482.28	81
482.498	67
482.717	80
482.935	83
483.153	96
483.372	109
483.59	97
483.808	87
484.027	91
484.245	96
484.463	97
484.681	110
484.9	94
485.118	91
485.336	94
485.554	83
485.772	88
485.99	83
486.209	81
486.427	86
486.645	96
486.863	97
487.081	86
487.299	84
487.517	93
487.735	95
487.953	114
488.171	106
488.389	89
488.607	99
488.825	89
489.043	88
489.261	109
489.479	83
489.696	111
489.914	101
490.132	94
490.35	100
490.568	95
490.786	107
491.003	105
491.221	92
491.439	116
491.657	104
491.874	122
492.092	118
492.31	118
492.527	109
492.745	110
492.963	111
493.18	103
493.398	91
493.615	108
493.833	99
494.05	94
494.268	111
494.485	100
494.703	126
494.92	117
495.138	106
495.355	92
495.573	96
495.79	93
496.008	98
496.225	106
496.442	107
496.66	116
496.877	104
497.094	115
497.312	100
497.529	96
497.746	107
497.963	80
498.181	85
498.398	96
498.615	88
498.832	90
499.049	96
499.267	93
499.484	92
499.701	87
499.918	85
500.135	98
500.352	94
500.569	104
500.786	96
501.003	100
501.22	99
501.437	102
501.654	112
501.871	98
502.088	86
502.305	91
502.522	72
502.739	88
502.956	91
503.172	87
503.389	78
503.606	87
503.823	97
504.04	102
504.256	83
504.473	85
504.69	95
504.907	86
505.123	93
505.34	89
505.557	98
505.773	102
505.99	86
506.207	80
506.423	92
506.64	68
506.856	91
507.073	83
507.289	96
507.506	81
507.722	75
507.939	83
508.155	91
508.372	100
508.588	87
508.805	88
509.021	91
509.238	93
509.454	86
509.67	92
509.887	81
510.103	81
510.319	75
510.536	88
510.752	82
510.968	99
511.184	66
511.401	74
511.617	73
511.833	67
512.049	80
512.265	88
512.481	77
512.698	76
512.914	86
513.13	87
513.346	81
513.562	85
513.778	83
513.994	88
514.21	93
514.426	71
514.642	95
514.858	74
515.074	61
515.29	77
515.506	78
515.721	88
515.937	87
516.153	71
516.369	87
516.585	85
516.801	77
517.016	75
517.232	72
517.448	86
517.664	91
517.879	93
518.095	77
518.311	80
518.527	97
518.742	90
518.958	93
519.173	82
519.389	85
519.605	83
519.82	84
520.036	87
520.251	98
520.467	75
520.682	77
520.898	80
521.113	93
521.329	70
521.544	66
521.76	89
521.975	92
522.19	82
522.406	88
522.621	78
522.836	88
523.052	83
523.267	75
523.482	79
523.698	67
523.913	90
524.128	88
524.343	87
524.559	93
524.774	85
524.989	89
525.204	90
525.419	90
525.634	82
525.849	87
526.064	81
526.28	80
526.495	94
526.71	80
526.925	79
527.14	75
527.355	86
527.57	74
527.785	90
527.999	92
528.214	86
528.429	76
528.644	82
528.859	95
529.074	107
529.289	110
529.503	100
529.718	99
529.933	97
530.148	96
530.363	81
530.577	78
530.792	94
531.007	78
531.221	86
531.436	78
531.651	93
531.865	92
532.08	79
532.295	85
532.509	84
532.724	76
532.938	84
533.153	84
533.367	93
533.582	91
533.796	82
534.011	96
534.225	87
534.44	79
534.654	106
534.868	86
535.083	81
535.297	87
535.511	91
535.726	99
535.94	85
536.154	79
536.369	76
536.583	84
536.797	87
537.011	87
537.225	73
537.44	76
537.654	82
537.868	85
538.082	82
538.296	90
538.51	76
538.724	82
538.938	82
539.153	80
539.367	88
539.581	82
539.795	77
540.009	71
540.222	86
540.436	91
540.65	84
540.864	90
541.078	98
541.292	96
541.506	97
541.72	98
541.934	109
542.147	105
542.361	107
542.575	100
542.789	94
543.002	97
543.216	91
543.43	110
543.644	87
543.857	106
544.071	97
544.285	95
544.498	111
544.712	114
544.925	108
545.139	102
545.352	104
545.566	107
545.779	105
545.993	92
546.206	108
546.42	114
546.633	115
546.847	119
547.06	102
547.274	98
547.487	127
547.7	100
547.914	100
548.127	119
548.34	107
548.554	114
548.767	92
548.98	94
549.193	96
549.407	86
549.62	98
549.833	102
550.046	102
550.259	88
550.473	102
550.686	106
550.899	85
551.112	90
551.325	85
551.538	94
551.751	96
551.964	90
552.177	88
552.39	101
552.603	103
552.816	104
553.029	103
553.242	89
553.455	102
553.667	94
553.88	108
554.093	101
554.306	97
554.519	107
554.732	100
554.944	80
555.157	99
555.37	90
555.583	104
555.795	110
556.008	91
556.221	91
556.433	106
556.646	102
556.859	101
557.071	83
557.284	104
557.496	109
557.709	96
557.921	102
558.134	97
558.346	99
558.559	109
558.771	103
558.984	92
559.196	103
559.409	104
559.621	101
559.833	92
560.046	87
560.258	111
560.47	92
560.683	104
560.895	99
561.107	92
561.32	98
561.532	86
561.744	90
561.956	100
562.168	103
562.381	93
562.593	93
562.805	87
563.017	88
563.229	84
563.441	89
563.653	96
563.865	91
564.077	85
564.289	110
564.501	94
564.713	78
564.925	88
565.137	99
565.349	85
565.561	82
565.773	89
565.985	91
566.197	88
566.408	77
566.62	76
566.832	90
567.044	82
567.255	85
567.467	86
567.679	101
567.891	97
568.102	88
568.314	85
568.526	90
568.737	78
568.949	86
569.161	71
569.372	88
569.584	79
569.795	79
570.007	81
570.218	73
570.43	83
570.641	76
570.853	88
571.064	98
571.276	79
571.487	85
571.698	96
571.91	83
572.121	80
572.333	94
572.544	78
572.755	89
572.966	80
573.178	72
573.389	73
573.6	75
573.811	75
574.023	81
574.234	85
574.445	88
574.656	95
574.867	86
575.078	74
575.289	102
575.501	83
575.712	70
575.923	81
576.134	84
576.345	85
576.556	88
576.767	79
576.978	94
577.188	82
577.399	95
577.61	82
577.821	94
578.032	74
578.243	71
578.454	77
578.665	91
578.875	82
579.086	76
579.297	84
579.508	72
579.718	92
579.929	87
580.14	70
580.35	87
580.561	93
580.772	82
580.982	79
581.193	76
581.403	79
581.614	86
581.825	90
582.035	81
582.246	80
582.456	67
582.667	58
582.877	76
583.087	82
583.298	72
583.508	69
583.719	73
583.929	80
584.139	79
584.35	85
584.56	93
584.77	83
584.981	81
585.191	68
585.401	82
585.611	82
585.821	79
586.032	78
586.242	86
586.452	65
586.662	86
586.872	83
587.082	88
587.292	77
587.502	79
587.713	77
587.923	82
588.133	83
588.343	87
588.553	70
588.762	81
588.972	80
589.182	78
589.392	86
589.602	80
589.812	71
590.022	92
590.232	63
590.441	77
590.651	82
590.861	70
591.071	74
591.281	88
591.49	75
591.7	78
591.91	91
592.119	84
592.329	89
592.539	74
592.748	83
592.958	79
593.167	66
593.377	90
593.587	96
593.796	75
594.006	85
594.215	83
594.424	92
594.634	88
594.843	81
595.053	89
595.262	81
595.472	75
595.681	83
595.89	78
596.1	85
596.309	72
596.518	82
596.727	71
596.937	83
597.146	76
597.355	85
597.564	84
597.774	83
597.983	79
598.192	81
598.401	78
598.61	74
598.819	78
599.028	70
599.237	86
599.446	75
599.655	86
599.864	81
600.073	79
600.282	90
600.491	80
600.7	72
600.909	93
601.118	80
601.327	75
601.536	83
601.745	94
601.953	80
602.162	67
602.371	94
602.58	85
602.789	84
602.997	90
603.206	87
603.415	83
603.623	75
603.832	83
604.041	91
604.249	74
604.458	94
604.666	83
604.875	77
605.084	76
605.292	98
605.501	90
605.709	80
605.918	90
606.126	94
606.334	85
606.543	88
606.751	100
606.96	105
607.168	83
607.376	76
607.585	80
607.793	97
608.001	81
608.21	103
608.418	80
608.626	95
608.834	86
609.043	83
609.251	91
609.459	85
609.667	95
609.875	88
610.083	92
610.291	92
610.499	102
610.707	97
610.916	87
611.124	79
611.332	82
611.54	92
611.748	86
611.955	81
612.163	91
612.371	92
612.579	91
612.787	93
612.995	83
613.203	93
613.411	80
613.618	81
613.826	108
614.034	92
614.242	89
614.449	87
614.657	98
614.865	76
615.072	76
615.28	82
615.488	85
615.695	87
615.903	84
616.111	80
616.318	93
616.526	83
616.733	92
616.941	100
617.148	94
617.356	83
617.563	90
617.771	86
617.978	71
618.185	94
618.393	93
618.6	77
618.807	88
619.015	82
619.222	84
619.429	85
619.637	87
619.844	85
620.051	67
620.258	83
620.466	84
620.673	82
620.88	82
621.087	85
621.294	67
621.501	88
621.708	83
621.915	90
622.122	99
622.329	106
622.536	86
622.743	84
622.95	90
623.157	87
623.364	84
623.571	81
623.778	88
623.985	81
624.192	76
624.399	85
624.606	79
624.812	90
625.019	79
625.226	91
625.433	100
625.639	72
625.846	75
626.053	72
626.259	71
626.466	80
626.673	90
626.879	75
627.086	77
627.293	76
627.499	83
627.706	83
627.912	81
628.119	83
628.325	84
628.532	72
628.738	95
628.945	77
629.151	84
629.357	78
629.564	77
629.77	84
629.976	83
630.183	83
630.389	95
630.595	85
630.802	89
631.008	89
631.214	99
631.42	85
631.627	80
631.833	84
632.039	80
632.245	84
632.451	93
632.657	91
632.863	68
633.069	79
633.275	88
633.481	78
633.688	102
633.893	96
634.099	89
634.305	80
634.511	78
634.717	91
634.923	79
635.129	71
635.335	78
635.541	69
635.747	75
635.952	80
636.158	88
636.364	95
636.57	97
636.775	75
636.981	97
637.187	95
637.392	92
637.598	86
637.804	87
638.009	82
638.215	94
638.421	84
638.626	73
638.832	78
639.037	75
639.243	93
639.448	82
639.654	84
639.859	82
640.065	81
640.27	87
640.475	76
640.681	76
640.886	85
641.091	82
641.297	78
641.502	72
641.707	84
641.913	77
642.118	91
642.323	81
642.528	84
642.733	86
642.939	83
643.144	80
643.349	91
643.554	92
643.759	84
643.964	69
644.169	78
644.374	87
644.579	79
644.784	80
644.989	74
645.194	67
645.399	83
645.604	68
645.809	84
646.014	97
646.219	79
646.423	87
646.628	68
646.833	76
647.038	79
647.243	95
647.447	89
647.652	86
647.857	92
648.062	78
648.266	79
648.471	86
648.676	100
648.88	82
649.085	78
649.289	81
649.494	78
649.698	87
649.903	71
650.107	77
650.312	87
650.516	79
650.721	81
650.925	90
651.13	91
651.334	70
651.539	84
651.743	74
651.947	84
652.152	83
652.356	76
652.56	85
652.764	86
652.969	85
653.173	83
653.377	78
653.581	71
653.785	76
653.99	77
654.194	73
654.398	77
654.602	79
654.806	90
655.01	70
655.214	79
655.418	73
655.622	74
655.826	80
656.03	85
656.234	70
656.438	67
656.642	83
656.846	80
657.049	74
657.253	85
657.457	79
657.661	91
657.865	81
658.068	71
658.272	76
658.476	87
658.68	78
658.883	63
659.087	85
659.291	80
659.494	91
659.698	86
659.901	72
660.105	78
660.309	70
660.512	82
660.716	78
660.919	76
661.123	78
661.326	76
661.53	88
661.733	86
661.936	85
662.14	96
662.343	80
662.546	88
662.75	86
662.953	86
663.156	77
663.36	83
663.563	82
663.766	77
663.969	76
664.173	81
664.376	67
664.579	63
664.782	85
664.985	76
665.188	70
665.391	87
665.594	78
665.797	63
666	80
666.203	83
666.406	84
666.609	85
666.812	82
667.015	68
667.218	65
667.421	81
667.624	72
667.827	86
668.03	83
668.232	74
668.435	71
668.638	79
668.841	76
669.043	70
669.246	69
669.449	50
669.651	78
669.854	59
670.057	74
670.259	85
670.462	80
670.665	72
670.867	52
671.07	70
671.272	97
671.475	71
671.677	80
671.88	75
672.082	64
672.284	67
672.487	81
672.689	72
672.892	87
