Data from Location4.07152019.Energy5.Lamp.07192019.3%Agarose_HRD10591_15-23-20-576.txt Node
Date: Fri Jul 19 15:23:20 EDT 2019
User: cochatt
Spectrometer: HR+D1059
Trigger mode: 1
Integration Time (sec): 1.000000E-1
Scans to average: 1
Electric dark correction enabled: true
Nonlinearity correction enabled: false
Boxcar width: 0
XAxis mode: Wavelengths
Number of Pixels in Spectrum: 2048
>>>>>Begin Spectral Data<<<<<
223.165	6
223.4	6
223.635	6
223.869	-15
224.104	-17
224.338	-16
224.573	-9
224.808	-13
225.042	-6
225.277	-13
225.511	-8
225.746	-11
225.98	4
226.215	10
226.449	11
226.683	30
226.918	24
227.152	23
227.387	28
227.621	42
227.856	45
228.09	46
228.324	54
228.559	61
228.793	55
229.027	57
229.262	64
229.496	70
229.73	72
229.964	64
230.199	76
230.433	80
230.667	83
230.901	82
231.136	73
231.37	77
231.604	89
231.838	84
232.072	79
232.306	88
232.541	82
232.775	87
233.009	84
233.243	82
233.477	79
233.711	76
233.945	74
234.179	97
234.413	70
234.647	84
234.881	75
235.115	74
235.349	84
235.583	79
235.817	77
236.051	86
236.285	76
236.519	75
236.753	73
236.987	70
237.221	79
237.455	73
237.689	76
237.922	76
238.156	88
238.39	67
238.624	79
238.858	85
239.091	74
239.325	75
239.559	88
239.793	75
240.027	76
240.26	82
240.494	83
240.728	78
240.961	80
241.195	76
241.429	80
241.662	71
241.896	70
242.13	75
242.363	73
242.597	71
242.83	75
243.064	76
243.298	90
243.531	70
243.765	74
243.998	67
244.232	74
244.465	66
244.699	76
244.932	80
245.166	70
245.399	81
245.633	71
245.866	81
246.099	82
246.333	73
246.566	90
246.8	81
247.033	70
247.266	70
247.5	76
247.733	77
247.966	82
248.2	79
248.433	79
248.666	90
248.899	77
249.133	86
249.366	85
249.599	80
249.832	72
250.066	64
250.299	81
250.532	86
250.765	73
250.998	75
251.231	80
251.465	70
251.698	76
251.931	84
252.164	84
252.397	95
252.63	77
252.863	72
253.096	80
253.329	99
253.562	97
253.795	86
254.028	74
254.261	87
254.494	74
254.727	102
254.96	87
255.193	70
255.426	75
255.659	75
255.892	88
256.124	77
256.357	87
256.59	74
256.823	71
257.056	77
257.289	72
257.521	79
257.754	78
257.987	68
258.22	74
258.452	71
258.685	84
258.918	82
259.151	71
259.383	69
259.616	68
259.849	77
260.081	79
260.314	87
260.547	91
260.779	81
261.012	82
261.244	74
261.477	82
261.71	76
261.942	71
262.175	82
262.407	82
262.64	79
262.872	90
263.105	81
263.337	65
263.57	88
263.802	92
264.035	88
264.267	74
264.499	82
264.732	72
264.964	79
265.197	92
265.429	87
265.661	87
265.894	80
266.126	89
266.358	93
266.591	75
266.823	81
267.055	75
267.287	85
267.52	73
267.752	86
267.984	84
268.216	80
268.448	87
268.681	69
268.913	78
269.145	80
269.377	95
269.609	97
269.841	96
270.073	73
270.306	88
270.538	74
270.77	79
271.002	71
271.234	78
271.466	73
271.698	80
271.93	76
272.162	90
272.394	86
272.626	77
272.858	76
273.09	96
273.322	71
273.553	90
273.785	73
274.017	84
274.249	78
274.481	88
274.713	94
274.945	98
275.176	79
275.408	84
275.64	83
275.872	75
276.104	90
276.335	80
276.567	76
276.799	63
277.031	86
277.262	78
277.494	84
277.726	81
277.957	83
278.189	98
278.421	95
278.652	79
278.884	95
279.115	92
279.347	73
279.579	86
279.81	88
280.042	76
280.273	102
280.505	66
280.736	66
280.968	94
281.199	84
281.431	79
281.662	97
281.894	94
282.125	76
282.356	79
282.588	90
282.819	78
283.051	89
283.282	74
283.513	91
283.745	82
283.976	70
284.207	66
284.439	74
284.67	90
284.901	95
285.132	86
285.364	84
285.595	71
285.826	87
286.057	80
286.288	89
286.52	80
286.751	81
286.982	81
287.213	81
287.444	94
287.675	94
287.906	87
288.138	87
288.369	92
288.6	92
288.831	89
289.062	100
289.293	78
289.524	82
289.755	100
289.986	81
290.217	78
290.448	76
290.679	84
290.91	89
291.141	73
291.371	88
291.602	98
291.833	103
292.064	78
292.295	81
292.526	81
292.757	78
292.987	92
293.218	84
293.449	82
293.68	73
293.91	64
294.141	101
294.372	98
294.603	94
294.833	87
295.064	87
295.295	84
295.525	81
295.756	82
295.987	77
296.217	82
296.448	87
296.679	87
296.909	92
297.14	99
297.37	88
297.601	85
297.831	83
298.062	82
298.292	84
298.523	88
298.753	82
298.984	83
299.214	96
299.445	86
299.675	94
299.905	84
300.136	99
300.366	96
300.597	75
300.827	84
301.057	85
301.288	91
301.518	82
301.748	77
301.979	98
302.209	93
302.439	92
302.669	86
302.9	82
303.13	95
303.36	90
303.59	86
303.82	89
304.051	91
304.281	88
304.511	82
304.741	84
304.971	88
305.201	86
305.431	90
305.661	96
305.891	92
306.121	92
306.352	95
306.582	88
306.812	79
307.042	77
307.272	84
307.502	86
307.731	67
307.961	82
308.191	88
308.421	83
308.651	86
308.881	80
309.111	74
309.341	87
309.571	103
309.8	75
310.03	73
310.26	84
310.49	65
310.72	74
310.949	88
311.179	75
311.409	74
311.639	77
311.868	91
312.098	74
312.328	80
312.557	88
312.787	75
313.017	66
313.246	88
313.476	85
313.706	95
313.935	70
314.165	81
314.394	91
314.624	92
314.853	86
315.083	78
315.312	88
315.542	84
315.771	80
316.001	86
316.23	78
316.46	72
316.689	87
316.919	89
317.148	90
317.377	78
317.607	80
317.836	74
318.065	74
318.295	75
318.524	76
318.753	84
318.983	82
319.212	86
319.441	74
319.67	91
319.9	86
320.129	93
320.358	80
320.587	86
320.816	84
321.046	74
321.275	79
321.504	94
321.733	78
321.962	100
322.191	94
322.42	88
322.649	90
322.878	79
323.108	84
323.337	79
323.566	81
323.795	82
324.024	83
324.253	83
324.482	88
324.71	89
324.939	75
325.168	88
325.397	76
325.626	82
325.855	88
326.084	90
326.313	90
326.542	96
326.77	80
326.999	90
327.228	82
327.457	78
327.686	82
327.914	92
328.143	95
328.372	76
328.6	86
328.829	78
329.058	88
329.287	96
329.515	91
329.744	70
329.972	85
330.201	97
330.43	87
330.658	89
330.887	77
331.115	67
331.344	77
331.572	91
331.801	95
332.03	96
332.258	80
332.486	82
332.715	94
332.943	89
333.172	93
333.4	76
333.629	84
333.857	84
334.085	87
334.314	99
334.542	78
334.771	101
334.999	93
335.227	95
335.455	71
335.684	82
335.912	76
336.14	80
336.369	87
336.597	92
336.825	84
337.053	79
337.281	89
337.51	88
337.738	92
337.966	87
338.194	90
338.422	85
338.65	92
338.878	85
339.106	87
339.334	98
339.562	93
339.79	79
340.018	79
340.246	72
340.474	80
340.702	95
340.93	82
341.158	84
341.386	77
341.614	94
341.842	89
342.07	78
342.298	81
342.526	87
342.754	78
342.981	88
343.209	85
343.437	79
343.665	82
343.893	86
344.12	91
344.348	91
344.576	86
344.804	89
345.031	83
345.259	85
345.487	74
345.714	87
345.942	76
346.17	88
346.397	83
346.625	80
346.853	94
347.08	76
347.308	89
347.535	79
347.763	83
347.99	86
348.218	100
348.445	88
348.673	90
348.9	76
349.128	73
349.355	82
349.583	76
349.81	90
350.037	79
350.265	87
350.492	80
350.72	79
350.947	87
351.174	83
351.402	78
351.629	94
351.856	76
352.083	80
352.311	73
352.538	81
352.765	80
352.992	95
353.22	94
353.447	87
353.674	79
353.901	83
354.128	95
354.355	83
354.583	82
354.81	79
355.037	87
355.264	82
355.491	81
355.718	80
355.945	98
356.172	88
356.399	86
356.626	85
356.853	84
357.08	87
357.307	80
357.534	80
357.761	84
357.988	103
358.215	80
358.441	73
358.668	93
358.895	92
359.122	82
359.349	73
359.576	74
359.802	83
360.029	103
360.256	88
360.483	87
360.709	94
360.936	83
361.163	82
361.39	86
361.616	80
361.843	83
362.07	74
362.296	93
362.523	90
362.749	91
362.976	85
363.203	88
363.429	65
363.656	82
363.882	83
364.109	68
364.335	79
364.562	81
364.788	81
365.015	84
365.241	78
365.468	80
365.694	95
365.92	86
366.147	83
366.373	74
366.599	75
366.826	98
367.052	90
367.278	87
367.505	81
367.731	80
367.957	84
368.184	74
368.41	85
368.636	81
368.862	75
369.089	72
369.315	74
369.541	93
369.767	72
369.993	84
370.219	59
370.445	91
370.672	93
370.898	80
371.124	90
371.35	83
371.576	83
371.802	90
372.028	81
372.254	81
372.48	88
372.706	88
372.932	83
373.158	91
373.384	86
373.61	81
373.835	92
374.061	78
374.287	82
374.513	90
374.739	92
374.965	86
375.191	90
375.416	84
375.642	97
375.868	82
376.094	92
376.319	88
376.545	90
376.771	82
376.997	89
377.222	87
377.448	77
377.674	82
377.899	85
378.125	84
378.35	86
378.576	85
378.802	83
379.027	71
379.253	66
379.478	88
379.704	88
379.929	84
380.155	99
380.38	95
380.606	82
380.831	89
381.057	77
381.282	105
381.507	76
381.733	77
381.958	91
382.184	82
382.409	87
382.634	70
382.86	81
383.085	76
383.31	87
383.535	78
383.761	87
383.986	94
384.211	84
384.436	86
384.662	85
384.887	86
385.112	74
385.337	78
385.562	81
385.787	82
386.013	82
386.238	88
386.463	80
386.688	79
386.913	72
387.138	86
387.363	83
387.588	77
387.813	86
388.038	87
388.263	96
388.488	101
388.713	87
388.938	99
389.163	105
389.387	85
389.612	86
389.837	91
390.062	88
390.287	81
390.512	89
390.736	77
390.961	94
391.186	74
391.411	80
391.636	99
391.86	88
392.085	91
392.31	79
392.534	82
392.759	83
392.984	91
393.208	95
393.433	83
393.658	104
393.882	86
394.107	88
394.331	79
394.556	87
394.78	82
395.005	83
395.229	83
395.454	81
395.678	94
395.903	90
396.127	73
396.352	80
396.576	85
396.801	82
397.025	73
397.249	73
397.474	102
397.698	83
397.922	91
398.147	91
398.371	80
398.595	86
398.82	90
399.044	79
399.268	89
399.492	87
399.717	87
399.941	68
400.165	79
400.389	88
400.613	78
400.837	93
401.062	82
401.286	94
401.51	86
401.734	87
401.958	95
402.182	88
402.406	77
402.63	98
402.854	83
403.078	86
403.302	103
403.526	91
403.75	85
403.974	84
404.198	93
404.422	83
404.645	84
404.869	82
405.093	84
405.317	68
405.541	95
405.765	90
405.988	84
406.212	97
406.436	90
406.66	98
406.883	84
407.107	84
407.331	101
407.555	82
407.778	82
408.002	87
408.226	81
408.449	81
408.673	93
408.896	85
409.12	91
409.344	84
409.567	91
409.791	97
410.014	82
410.238	91
410.461	73
410.685	85
410.908	95
411.132	108
411.355	88
411.578	94
411.802	87
412.025	101
412.249	109
412.472	89
412.695	89
412.919	87
413.142	90
413.365	89
413.589	99
413.812	96
414.035	89
414.258	87
414.482	87
414.705	91
414.928	92
415.151	89
415.374	82
415.597	90
415.821	104
416.044	89
416.267	86
416.49	96
416.713	99
416.936	107
417.159	99
417.382	76
417.605	89
417.828	91
418.051	86
418.274	97
418.497	87
418.72	82
418.943	100
419.166	90
419.389	88
419.611	96
419.834	95
420.057	83
420.28	89
420.503	97
420.726	98
420.948	94
421.171	89
421.394	86
421.617	85
421.839	84
422.062	99
422.285	75
422.507	107
422.73	96
422.953	91
423.175	83
423.398	87
423.621	105
423.843	98
424.066	93
424.288	109
424.511	86
424.733	102
424.956	99
425.178	92
425.401	106
425.623	101
425.846	90
426.068	91
426.291	99
426.513	96
426.735	92
426.958	96
427.18	105
427.402	91
427.625	88
427.847	100
428.069	74
428.292	97
428.514	80
428.736	86
428.958	94
429.181	95
429.403	95
429.625	102
429.847	104
430.069	79
430.292	95
430.514	86
430.736	92
430.958	91
431.18	83
431.402	93
431.624	91
431.846	86
432.068	90
432.29	76
432.512	83
432.734	96
432.956	93
433.178	104
433.4	105
433.622	85
433.844	105
434.066	98
434.287	90
434.509	75
434.731	85
434.953	77
435.175	91
435.397	92
435.618	102
435.84	105
436.062	88
436.284	80
436.505	81
436.727	78
436.949	86
437.17	89
437.392	90
437.614	93
437.835	85
438.057	110
438.278	84
438.5	91
438.721	94
438.943	96
439.165	100
439.386	100
439.608	113
439.829	99
440.05	103
440.272	96
440.493	97
440.715	92
440.936	103
441.158	101
441.379	96
441.6	97
441.822	93
442.043	95
442.264	90
442.486	97
442.707	115
442.928	99
443.149	98
443.371	89
443.592	97
443.813	86
444.034	105
444.255	100
444.476	90
444.698	86
444.919	88
445.14	190
445.361	146
445.582	103
445.803	100
446.024	90
446.245	97
446.466	95
446.687	96
446.908	109
447.129	101
447.35	97
447.571	101
447.792	120
448.013	100
448.234	107
448.455	99
448.675	110
448.896	98
449.117	95
449.338	95
449.559	87
449.779	95
450	89
450.221	104
450.442	96
450.662	100
450.883	101
451.104	90
451.324	110
451.545	102
451.766	101
451.986	94
452.207	90
452.428	103
452.648	100
452.869	101
453.089	96
453.31	93
453.53	87
453.751	83
453.971	83
454.192	81
454.412	92
454.633	95
454.853	99
455.073	95
455.294	89
455.514	94
455.734	83
455.955	85
456.175	90
456.395	80
456.616	93
456.836	83
457.056	99
457.276	85
457.497	75
457.717	86
457.937	103
458.157	94
458.377	91
458.598	84
458.818	88
459.038	76
459.258	82
459.478	87
459.698	86
459.918	92
460.138	100
460.358	94
460.578	92
460.798	74
461.018	90
461.238	83
461.458	88
461.678	85
461.898	93
462.118	88
462.338	71
462.558	91
462.777	91
462.997	87
463.217	86
463.437	99
463.657	79
463.876	99
464.096	92
464.316	89
464.536	93
464.755	79
464.975	84
465.195	90
465.414	98
465.634	100
465.854	80
466.073	87
466.293	85
466.512	94
466.732	92
466.951	93
467.171	87
467.391	82
467.61	93
467.829	105
468.049	91
468.268	98
468.488	104
468.707	84
468.927	80
469.146	99
469.365	78
469.585	104
469.804	94
470.023	107
470.243	89
470.462	97
470.681	102
470.901	100
471.12	102
471.339	93
471.558	105
471.777	93
471.997	94
472.216	94
472.435	90
472.654	100
472.873	98
473.092	91
473.311	84
473.53	94
473.749	103
473.968	95
474.187	85
474.406	84
474.625	99
474.844	95
475.063	113
475.282	101
475.501	81
475.72	92
475.939	98
476.158	84
476.377	99
476.596	76
476.814	81
477.033	88
477.252	92
477.471	91
477.69	88
477.908	91
478.127	104
478.346	90
478.564	92
478.783	92
479.002	115
479.22	88
479.439	103
479.658	97
479.876	99
480.095	80
480.313	103
480.532	83
480.751	100
480.969	100
481.188	91
481.406	68
481.624	87
481.843	86
482.061	88
482.28	87
482.498	83
482.717	91
482.935	87
483.153	96
483.372	113
483.59	110
483.808	107
484.027	101
484.245	96
484.463	107
484.681	102
484.9	103
485.118	89
485.336	87
485.554	76
485.772	76
485.99	86
486.209	81
486.427	92
486.645	97
486.863	95
487.081	106
487.299	115
487.517	99
487.735	100
487.953	122
488.171	113
488.389	117
488.607	99
488.825	100
489.043	93
489.261	110
489.479	96
489.696	115
489.914	107
490.132	114
490.35	105
490.568	113
490.786	101
491.003	112
491.221	104
491.439	100
491.657	117
491.874	127
492.092	135
492.31	126
492.527	127
492.745	122
492.963	126
493.18	131
493.398	119
493.615	111
493.833	100
494.05	103
494.268	107
494.485	118
494.703	110
494.92	105
495.138	116
495.355	116
495.573	103
495.79	98
496.008	102
496.225	118
496.442	84
496.66	118
496.877	96
497.094	111
497.312	85
497.529	119
497.746	100
497.963	100
498.181	99
498.398	101
498.615	88
498.832	94
499.049	94
499.267	97
499.484	89
499.701	114
499.918	99
500.135	102
500.352	90
500.569	111
500.786	114
501.003	101
501.22	101
501.437	93
501.654	105
501.871	116
502.088	96
502.305	103
502.522	92
502.739	103
502.956	107
503.172	90
503.389	108
503.606	100
503.823	92
504.04	86
504.256	88
504.473	94
504.69	96
504.907	89
505.123	107
505.34	100
505.557	86
505.773	101
505.99	100
506.207	90
506.423	82
506.64	99
506.856	80
507.073	97
507.289	103
507.506	90
507.722	98
507.939	96
508.155	101
508.372	87
508.588	83
508.805	96
509.021	110
509.238	82
509.454	86
509.67	94
509.887	93
510.103	82
510.319	98
510.536	73
510.752	79
510.968	72
511.184	82
511.401	91
511.617	94
511.833	75
512.049	86
512.265	71
512.481	74
512.698	87
512.914	80
513.13	89
513.346	93
513.562	88
513.778	87
513.994	98
514.21	92
514.426	95
514.642	92
514.858	90
515.074	95
515.29	83
515.506	84
515.721	103
515.937	97
516.153	74
516.369	90
516.585	63
516.801	88
517.016	85
517.232	76
517.448	99
517.664	91
517.879	92
518.095	101
518.311	88
518.527	82
518.742	87
518.958	80
519.173	84
519.389	82
519.605	106
519.82	83
520.036	84
520.251	84
520.467	69
520.682	88
520.898	88
521.113	83
521.329	86
521.544	89
521.76	73
521.975	86
522.19	88
522.406	86
522.621	96
522.836	102
523.052	82
523.267	106
523.482	82
523.698	82
523.913	94
524.128	91
524.343	100
524.559	84
524.774	94
524.989	107
525.204	98
525.419	92
525.634	95
525.849	91
526.064	96
526.28	84
526.495	94
526.71	88
526.925	93
527.14	80
527.355	82
527.57	88
527.785	93
527.999	83
528.214	83
528.429	96
528.644	115
528.859	89
529.074	98
529.289	110
529.503	121
529.718	104
529.933	94
530.148	98
530.363	91
530.577	95
530.792	79
531.007	86
531.221	88
531.436	85
531.651	90
531.865	91
532.08	86
532.295	87
532.509	89
532.724	81
532.938	91
533.153	93
533.367	86
533.582	91
533.796	90
534.011	85
534.225	86
534.44	87
534.654	90
534.868	87
535.083	93
535.297	94
535.511	101
535.726	87
535.94	78
536.154	82
536.369	84
536.583	100
536.797	87
537.011	80
537.225	80
537.44	94
537.654	80
537.868	87
538.082	79
538.296	101
538.51	87
538.724	90
538.938	103
539.153	101
539.367	91
539.581	89
539.795	94
540.009	99
540.222	95
540.436	90
540.65	86
540.864	80
541.078	103
541.292	117
541.506	116
541.72	92
541.934	119
542.147	123
542.361	126
542.575	118
542.789	113
543.002	102
543.216	101
543.43	111
543.644	101
543.857	102
544.071	101
544.285	109
544.498	100
544.712	118
544.925	105
545.139	124
545.352	93
545.566	101
545.779	98
545.993	115
546.206	116
546.42	102
546.633	115
546.847	102
547.06	87
547.274	118
547.487	122
547.7	107
547.914	106
548.127	98
548.34	116
548.554	104
548.767	100
548.98	107
549.193	105
549.407	103
549.62	115
549.833	114
550.046	100
550.259	102
550.473	107
550.686	93
550.899	108
551.112	106
551.325	98
551.538	101
551.751	92
551.964	94
552.177	113
552.39	91
552.603	105
552.816	95
553.029	112
553.242	111
553.455	107
553.667	102
553.88	107
554.093	111
554.306	90
554.519	101
554.732	109
554.944	94
555.157	100
555.37	103
555.583	112
555.795	104
556.008	97
556.221	116
556.433	105
556.646	98
556.859	96
557.071	105
557.284	100
557.496	104
557.709	86
557.921	111
558.134	106
558.346	113
558.559	108
558.771	94
558.984	95
559.196	115
559.409	94
559.621	96
559.833	110
560.046	96
560.258	107
560.47	99
560.683	91
560.895	100
561.107	88
561.32	107
561.532	89
561.744	101
561.956	98
562.168	103
562.381	94
562.593	101
562.805	94
563.017	91
563.229	97
563.441	105
563.653	97
563.865	101
564.077	98
564.289	106
564.501	108
564.713	95
564.925	97
565.137	87
565.349	90
565.561	100
565.773	96
565.985	84
566.197	98
566.408	93
566.62	97
566.832	90
567.044	101
567.255	105
567.467	95
567.679	90
567.891	78
568.102	96
568.314	87
568.526	87
568.737	90
568.949	71
569.161	86
569.372	80
569.584	80
569.795	92
570.007	87
570.218	82
570.43	97
570.641	87
570.853	83
571.064	96
571.276	97
571.487	76
571.698	96
571.91	97
572.121	71
572.333	91
572.544	81
572.755	83
572.966	67
573.178	92
573.389	85
573.6	74
573.811	80
574.023	82
574.234	81
574.445	85
574.656	89
574.867	83
575.078	73
575.289	85
575.501	72
575.712	84
575.923	94
576.134	90
576.345	85
576.556	100
576.767	91
576.978	87
577.188	99
577.399	89
577.61	92
577.821	96
578.032	91
578.243	92
578.454	73
578.665	91
578.875	81
579.086	95
579.297	102
579.508	78
579.718	87
579.929	93
580.14	80
580.35	82
580.561	91
580.772	77
580.982	73
581.193	83
581.403	85
581.614	93
581.825	94
582.035	93
582.246	96
582.456	75
582.667	88
582.877	88
583.087	92
583.298	87
583.508	82
583.719	98
583.929	90
584.139	81
584.35	79
584.56	82
584.77	84
584.981	82
585.191	87
585.401	85
585.611	85
585.821	66
586.032	82
586.242	84
586.452	88
586.662	87
586.872	73
587.082	92
587.292	82
587.502	102
587.713	79
587.923	78
588.133	104
588.343	72
588.553	86
588.762	92
588.972	90
589.182	79
589.392	90
589.602	91
589.812	88
590.022	80
590.232	97
590.441	80
590.651	86
590.861	85
591.071	87
591.281	96
591.49	82
591.7	75
591.91	98
592.119	83
592.329	89
592.539	82
592.748	94
592.958	98
593.167	82
593.377	92
593.587	96
593.796	87
594.006	78
594.215	82
594.424	79
594.634	83
594.843	99
595.053	85
595.262	91
595.472	81
595.681	102
595.89	89
596.1	92
596.309	79
596.518	91
596.727	87
596.937	88
597.146	81
597.355	69
597.564	89
597.774	84
597.983	99
598.192	92
598.401	76
598.61	91
598.819	83
599.028	91
599.237	89
599.446	91
599.655	88
599.864	94
600.073	74
600.282	73
600.491	90
600.7	103
600.909	99
601.118	114
601.327	99
601.536	104
601.745	91
601.953	99
602.162	111
602.371	95
602.58	84
602.789	100
602.997	111
603.206	94
603.415	91
603.623	91
603.832	88
604.041	101
604.249	95
604.458	87
604.666	88
604.875	90
605.084	81
605.292	90
605.501	103
605.709	93
605.918	88
606.126	94
606.334	106
606.543	88
606.751	110
606.96	85
607.168	92
607.376	92
607.585	95
607.793	82
608.001	84
608.21	91
608.418	104
608.626	107
608.834	88
609.043	88
609.251	77
609.459	102
609.667	103
609.875	98
610.083	100
610.291	91
610.499	92
610.707	92
610.916	90
611.124	105
611.332	102
611.54	98
611.748	103
611.955	96
612.163	95
612.371	108
612.579	101
612.787	98
612.995	92
613.203	89
613.411	95
613.618	96
613.826	81
614.034	115
614.242	84
614.449	117
614.657	83
614.865	83
615.072	104
615.28	98
615.488	91
615.695	97
615.903	76
616.111	83
616.318	100
616.526	100
616.733	89
616.941	101
617.148	96
617.356	93
617.563	103
617.771	95
617.978	95
618.185	99
618.393	92
618.6	104
618.807	105
619.015	89
619.222	92
619.429	92
619.637	95
619.844	89
620.051	86
620.258	90
620.466	93
620.673	86
620.88	92
621.087	91
621.294	84
621.501	74
621.708	90
621.915	85
622.122	92
622.329	102
622.536	91
622.743	90
622.95	93
623.157	89
623.364	94
623.571	88
623.778	93
623.985	96
624.192	90
624.399	70
624.606	94
624.812	95
625.019	82
625.226	92
625.433	84
625.639	81
625.846	83
626.053	89
626.259	86
626.466	87
626.673	89
626.879	89
627.086	83
627.293	87
627.499	99
627.706	97
627.912	92
628.119	86
628.325	87
628.532	96
628.738	80
628.945	90
629.151	85
629.357	76
629.564	96
629.77	99
629.976	81
630.183	78
630.389	80
630.595	88
630.802	98
631.008	92
631.214	76
631.42	98
631.627	98
631.833	67
632.039	79
632.245	72
632.451	101
632.657	95
632.863	85
633.069	91
633.275	82
633.481	90
633.688	94
633.893	84
634.099	95
634.305	87
634.511	90
634.717	101
634.923	91
635.129	86
635.335	97
635.541	82
635.747	88
635.952	81
636.158	79
636.364	81
636.57	86
636.775	88
636.981	79
637.187	77
637.392	82
637.598	88
637.804	83
638.009	85
638.215	95
638.421	102
638.626	97
638.832	101
639.037	92
639.243	96
639.448	95
639.654	102
639.859	89
640.065	82
640.27	98
640.475	84
640.681	95
640.886	86
641.091	87
641.297	93
641.502	76
641.707	81
641.913	95
642.118	76
642.323	94
642.528	102
642.733	89
642.939	94
643.144	89
643.349	99
643.554	86
643.759	80
643.964	89
644.169	85
644.374	87
644.579	78
644.784	92
644.989	96
645.194	84
645.399	84
645.604	72
645.809	84
646.014	79
646.219	93
646.423	86
646.628	79
646.833	84
647.038	84
647.243	80
647.447	95
647.652	84
647.857	99
648.062	102
648.266	95
648.471	86
648.676	95
648.88	110
649.085	78
649.289	83
649.494	71
649.698	98
649.903	90
650.107	84
650.312	73
650.516	94
650.721	86
650.925	92
651.13	87
651.334	90
651.539	87
651.743	87
651.947	85
652.152	82
652.356	96
652.56	88
652.764	90
652.969	86
653.173	81
653.377	88
653.581	92
653.785	100
653.99	80
654.194	77
654.398	90
654.602	82
654.806	92
655.01	83
655.214	86
655.418	80
655.622	86
655.826	77
656.03	92
656.234	75
656.438	82
656.642	77
656.846	89
657.049	87
657.253	87
657.457	65
657.661	77
657.865	91
658.068	80
658.272	93
658.476	87
658.68	81
658.883	79
659.087	92
659.291	82
659.494	76
659.698	82
659.901	77
660.105	86
660.309	86
660.512	94
660.716	96
660.919	81
661.123	87
661.326	89
661.53	91
661.733	78
661.936	88
662.14	71
662.343	86
662.546	74
662.75	88
662.953	95
663.156	88
663.36	66
663.563	88
663.766	87
663.969	76
664.173	74
664.376	83
664.579	72
664.782	94
664.985	67
665.188	70
665.391	90
665.594	84
665.797	78
666	83
666.203	87
666.406	76
666.609	84
666.812	79
667.015	76
667.218	81
667.421	80
667.624	83
667.827	77
668.03	81
668.232	97
668.435	85
668.638	85
668.841	72
669.043	89
669.246	87
669.449	78
669.651	86
669.854	67
670.057	89
670.259	71
670.462	81
670.665	88
670.867	92
671.07	92
671.272	102
671.475	70
671.677	95
671.88	76
672.082	86
672.284	80
672.487	90
672.689	78
672.892	77
