Data from Location4.07152019.Energy5.Lamp.07192019.3%Agarose_HRD10591_15-23-21-576.txt Node
Date: Fri Jul 19 15:23:21 EDT 2019
User: cochatt
Spectrometer: HR+D1059
Trigger mode: 1
Integration Time (sec): 1.000000E-1
Scans to average: 1
Electric dark correction enabled: true
Nonlinearity correction enabled: false
Boxcar width: 0
XAxis mode: Wavelengths
Number of Pixels in Spectrum: 2048
>>>>>Begin Spectral Data<<<<<
223.165	-27
223.4	-27
223.635	-27
223.869	-27
224.104	-7
224.338	-29
224.573	-16
224.808	2
225.042	-14
225.277	-12
225.511	2
225.746	-6
225.98	6
226.215	16
226.449	25
226.683	13
226.918	50
227.152	24
227.387	38
227.621	35
227.856	46
228.09	55
228.324	56
228.559	54
228.793	54
229.027	69
229.262	62
229.496	62
229.73	66
229.964	67
230.199	76
230.433	93
230.667	69
230.901	70
231.136	74
231.37	74
231.604	86
231.838	85
232.072	79
232.306	78
232.541	64
232.775	85
233.009	90
233.243	97
233.477	92
233.711	87
233.945	75
234.179	76
234.413	86
234.647	77
234.881	80
235.115	75
235.349	77
235.583	82
235.817	93
236.051	75
236.285	68
236.519	80
236.753	66
236.987	88
237.221	87
237.455	81
237.689	79
237.922	81
238.156	79
238.39	68
238.624	76
238.858	74
239.091	77
239.325	88
239.559	97
239.793	78
240.027	74
240.26	70
240.494	83
240.728	72
240.961	88
241.195	77
241.429	70
241.662	71
241.896	68
242.13	86
242.363	77
242.597	82
242.83	76
243.064	78
243.298	74
243.531	68
243.765	68
243.998	80
244.232	77
244.465	66
244.699	85
244.932	70
245.166	68
245.399	84
245.633	75
245.866	83
246.099	72
246.333	73
246.566	84
246.8	71
247.033	75
247.266	85
247.5	90
247.733	76
247.966	79
248.2	76
248.433	72
248.666	80
248.899	69
249.133	81
249.366	82
249.599	85
249.832	78
250.066	78
250.299	83
250.532	79
250.765	76
250.998	78
251.231	78
251.465	59
251.698	75
251.931	89
252.164	74
252.397	83
252.63	82
252.863	81
253.096	76
253.329	84
253.562	75
253.795	76
254.028	78
254.261	90
254.494	89
254.727	78
254.96	76
255.193	90
255.426	75
255.659	77
255.892	84
256.124	77
256.357	70
256.59	84
256.823	80
257.056	83
257.289	87
257.521	88
257.754	80
257.987	87
258.22	86
258.452	85
258.685	70
258.918	78
259.151	73
259.383	78
259.616	76
259.849	77
260.081	90
260.314	76
260.547	90
260.779	84
261.012	86
261.244	89
261.477	84
261.71	78
261.942	69
262.175	75
262.407	85
262.64	94
262.872	84
263.105	74
263.337	94
263.57	88
263.802	85
264.035	83
264.267	86
264.499	86
264.732	71
264.964	75
265.197	77
265.429	82
265.661	73
265.894	75
266.126	74
266.358	85
266.591	87
266.823	79
267.055	65
267.287	70
267.52	83
267.752	76
267.984	80
268.216	94
268.448	94
268.681	84
268.913	90
269.145	76
269.377	101
269.609	85
269.841	78
270.073	75
270.306	88
270.538	80
270.77	85
271.002	72
271.234	85
271.466	93
271.698	91
271.93	88
272.162	97
272.394	100
272.626	92
272.858	93
273.09	86
273.322	87
273.553	94
273.785	74
274.017	78
274.249	88
274.481	91
274.713	73
274.945	70
275.176	88
275.408	95
275.64	85
275.872	90
276.104	77
276.335	73
276.567	85
276.799	76
277.031	84
277.262	91
277.494	82
277.726	86
277.957	90
278.189	82
278.421	78
278.652	102
278.884	100
279.115	89
279.347	92
279.579	76
279.81	83
280.042	92
280.273	68
280.505	71
280.736	74
280.968	90
281.199	96
281.431	88
281.662	81
281.894	75
282.125	73
282.356	77
282.588	91
282.819	91
283.051	85
283.282	73
283.513	84
283.745	90
283.976	89
284.207	80
284.439	86
284.67	87
284.901	83
285.132	79
285.364	85
285.595	91
285.826	91
286.057	81
286.288	89
286.52	89
286.751	100
286.982	86
287.213	75
287.444	89
287.675	72
287.906	81
288.138	90
288.369	89
288.6	86
288.831	88
289.062	98
289.293	76
289.524	87
289.755	94
289.986	86
290.217	75
290.448	83
290.679	89
290.91	77
291.141	77
291.371	91
291.602	89
291.833	88
292.064	84
292.295	92
292.526	78
292.757	73
292.987	82
293.218	90
293.449	85
293.68	81
293.91	92
294.141	86
294.372	95
294.603	77
294.833	82
295.064	72
295.295	91
295.525	80
295.756	84
295.987	91
296.217	78
296.448	89
296.679	87
296.909	84
297.14	91
297.37	93
297.601	84
297.831	76
298.062	94
298.292	86
298.523	80
298.753	89
298.984	73
299.214	92
299.445	76
299.675	88
299.905	84
300.136	88
300.366	72
300.597	101
300.827	82
301.057	79
301.288	89
301.518	76
301.748	80
301.979	78
302.209	94
302.439	87
302.669	95
302.9	82
303.13	77
303.36	78
303.59	87
303.82	84
304.051	90
304.281	91
304.511	88
304.741	78
304.971	92
305.201	85
305.431	78
305.661	75
305.891	86
306.121	84
306.352	81
306.582	92
306.812	92
307.042	87
307.272	93
307.502	84
307.731	83
307.961	80
308.191	86
308.421	78
308.651	81
308.881	73
309.111	93
309.341	84
309.571	68
309.8	89
310.03	78
310.26	77
310.49	82
310.72	92
310.949	94
311.179	102
311.409	79
311.639	92
311.868	87
312.098	87
312.328	78
312.557	96
312.787	91
313.017	79
313.246	83
313.476	92
313.706	69
313.935	82
314.165	85
314.394	92
314.624	92
314.853	64
315.083	74
315.312	78
315.542	81
315.771	90
316.001	90
316.23	84
316.46	82
316.689	82
316.919	80
317.148	89
317.377	89
317.607	90
317.836	82
318.065	82
318.295	108
318.524	88
318.753	94
318.983	88
319.212	78
319.441	76
319.67	82
319.9	85
320.129	63
320.358	85
320.587	84
320.816	85
321.046	81
321.275	97
321.504	85
321.733	77
321.962	73
322.191	88
322.42	84
322.649	86
322.878	89
323.108	92
323.337	86
323.566	73
323.795	84
324.024	88
324.253	86
324.482	78
324.71	74
324.939	103
325.168	91
325.397	93
325.626	93
325.855	87
326.084	76
326.313	87
326.542	86
326.77	68
326.999	105
327.228	100
327.457	84
327.686	98
327.914	96
328.143	85
328.372	80
328.6	82
328.829	83
329.058	84
329.287	84
329.515	87
329.744	77
329.972	92
330.201	82
330.43	86
330.658	65
330.887	91
331.115	82
331.344	87
331.572	89
331.801	86
332.03	82
332.258	76
332.486	94
332.715	92
332.943	86
333.172	81
333.4	68
333.629	87
333.857	79
334.085	89
334.314	80
334.542	82
334.771	81
334.999	91
335.227	86
335.455	89
335.684	89
335.912	100
336.14	76
336.369	79
336.597	82
336.825	84
337.053	88
337.281	79
337.51	81
337.738	84
337.966	80
338.194	96
338.422	84
338.65	83
338.878	94
339.106	74
339.334	82
339.562	84
339.79	88
340.018	87
340.246	93
340.474	79
340.702	80
340.93	93
341.158	84
341.386	92
341.614	84
341.842	75
342.07	84
342.298	79
342.526	89
342.754	83
342.981	79
343.209	97
343.437	85
343.665	76
343.893	95
344.12	99
344.348	84
344.576	88
344.804	78
345.031	84
345.259	86
345.487	85
345.714	97
345.942	93
346.17	86
346.397	61
346.625	81
346.853	92
347.08	97
347.308	97
347.535	77
347.763	80
347.99	88
348.218	90
348.445	81
348.673	101
348.9	93
349.128	76
349.355	84
349.583	83
349.81	91
350.037	88
350.265	89
350.492	80
350.72	88
350.947	79
351.174	83
351.402	68
351.629	87
351.856	93
352.083	90
352.311	88
352.538	79
352.765	98
352.992	85
353.22	84
353.447	70
353.674	92
353.901	85
354.128	81
354.355	82
354.583	80
354.81	77
355.037	92
355.264	84
355.491	69
355.718	74
355.945	78
356.172	83
356.399	87
356.626	82
356.853	93
357.08	84
357.307	89
357.534	95
357.761	76
357.988	81
358.215	77
358.441	79
358.668	87
358.895	82
359.122	75
359.349	78
359.576	81
359.802	88
360.029	72
360.256	104
360.483	88
360.709	92
360.936	82
361.163	92
361.39	85
361.616	77
361.843	77
362.07	84
362.296	84
362.523	84
362.749	84
362.976	76
363.203	87
363.429	81
363.656	85
363.882	78
364.109	82
364.335	91
364.562	79
364.788	81
365.015	79
365.241	90
365.468	77
365.694	81
365.92	87
366.147	93
366.373	100
366.599	81
366.826	91
367.052	89
367.278	70
367.505	86
367.731	92
367.957	73
368.184	92
368.41	105
368.636	80
368.862	78
369.089	74
369.315	83
369.541	74
369.767	76
369.993	89
370.219	71
370.445	79
370.672	80
370.898	81
371.124	79
371.35	80
371.576	95
371.802	85
372.028	80
372.254	72
372.48	77
372.706	100
372.932	72
373.158	90
373.384	97
373.61	78
373.835	79
374.061	99
374.287	92
374.513	99
374.739	71
374.965	83
375.191	78
375.416	89
375.642	84
375.868	95
376.094	93
376.319	77
376.545	80
376.771	87
376.997	87
377.222	87
377.448	105
377.674	89
377.899	75
378.125	79
378.35	98
378.576	100
378.802	83
379.027	82
379.253	80
379.478	88
379.704	88
379.929	77
380.155	72
380.38	71
380.606	83
380.831	87
381.057	92
381.282	86
381.507	99
381.733	97
381.958	96
382.184	82
382.409	84
382.634	75
382.86	88
383.085	90
383.31	91
383.535	80
383.761	71
383.986	74
384.211	79
384.436	89
384.662	81
384.887	103
385.112	83
385.337	79
385.562	87
385.787	98
386.013	101
386.238	86
386.463	90
386.688	80
386.913	84
387.138	72
387.363	74
387.588	88
387.813	95
388.038	85
388.263	89
388.488	80
388.713	97
388.938	97
389.163	81
389.387	81
389.612	79
389.837	78
390.062	82
390.287	96
390.512	84
390.736	83
390.961	84
391.186	92
391.411	84
391.636	71
391.86	92
392.085	86
392.31	101
392.534	90
392.759	106
392.984	89
393.208	82
393.433	88
393.658	88
393.882	93
394.107	101
394.331	98
394.556	82
394.78	87
395.005	90
395.229	81
395.454	97
395.678	80
395.903	78
396.127	91
396.352	96
396.576	88
396.801	88
397.025	98
397.249	92
397.474	78
397.698	92
397.922	95
398.147	81
398.371	80
398.595	98
398.82	94
399.044	79
399.268	83
399.492	85
399.717	95
399.941	98
400.165	87
400.389	69
400.613	87
400.837	85
401.062	85
401.286	93
401.51	89
401.734	97
401.958	86
402.182	89
402.406	92
402.63	94
402.854	89
403.078	96
403.302	100
403.526	82
403.75	77
403.974	91
404.198	95
404.422	94
404.645	90
404.869	99
405.093	85
405.317	103
405.541	99
405.765	77
405.988	98
406.212	95
406.436	96
406.66	100
406.883	86
407.107	99
407.331	92
407.555	88
407.778	83
408.002	87
408.226	89
408.449	93
408.673	85
408.896	99
409.12	81
409.344	98
409.567	112
409.791	77
410.014	109
410.238	102
410.461	80
410.685	102
410.908	113
411.132	74
411.355	91
411.578	97
411.802	88
412.025	78
412.249	90
412.472	92
412.695	88
412.919	84
413.142	98
413.365	86
413.589	86
413.812	85
414.035	97
414.258	100
414.482	103
414.705	101
414.928	101
415.151	83
415.374	88
415.597	95
415.821	86
416.044	98
416.267	86
416.49	96
416.713	95
416.936	89
417.159	82
417.382	91
417.605	100
417.828	101
418.051	100
418.274	98
418.497	94
418.72	94
418.943	93
419.166	99
419.389	99
419.611	101
419.834	96
420.057	97
420.28	91
420.503	95
420.726	90
420.948	99
421.171	100
421.394	91
421.617	84
421.839	98
422.062	109
422.285	104
422.507	92
422.73	99
422.953	103
423.175	88
423.398	99
423.621	92
423.843	93
424.066	87
424.288	89
424.511	90
424.733	95
424.956	97
425.178	91
425.401	98
425.623	92
425.846	102
426.068	95
426.291	94
426.513	85
426.735	94
426.958	94
427.18	90
427.402	98
427.625	86
427.847	82
428.069	113
428.292	85
428.514	91
428.736	89
428.958	88
429.181	95
429.403	97
429.625	91
429.847	108
430.069	101
430.292	109
430.514	109
430.736	76
430.958	100
431.18	93
431.402	90
431.624	88
431.846	82
432.068	88
432.29	84
432.512	102
432.734	99
432.956	104
433.178	103
433.4	97
433.622	90
433.844	84
434.066	102
434.287	91
434.509	86
434.731	96
434.953	83
435.175	88
435.397	100
435.618	85
435.84	89
436.062	85
436.284	108
436.505	82
436.727	93
436.949	84
437.17	78
437.392	100
437.614	97
437.835	87
438.057	88
438.278	104
438.5	95
438.721	99
438.943	96
439.165	101
439.386	92
439.608	93
439.829	102
440.05	99
440.272	86
440.493	93
440.715	105
440.936	107
441.158	101
441.379	116
441.6	101
441.822	108
442.043	99
442.264	86
442.486	95
442.707	86
442.928	98
443.149	109
443.371	88
443.592	98
443.813	94
444.034	97
444.255	102
444.476	93
444.698	88
444.919	96
445.14	205
445.361	140
445.582	97
445.803	92
446.024	98
446.245	94
446.466	110
446.687	92
446.908	103
447.129	100
447.35	105
447.571	109
447.792	100
448.013	95
448.234	86
448.455	106
448.675	97
448.896	106
449.117	101
449.338	99
449.559	107
449.779	105
450	103
450.221	91
450.442	104
450.662	90
450.883	92
451.104	97
451.324	94
451.545	109
451.766	104
451.986	98
452.207	108
452.428	104
452.648	84
452.869	102
453.089	99
453.31	84
453.53	88
453.751	93
453.971	79
454.192	92
454.412	80
454.633	89
454.853	97
455.073	100
455.294	96
455.514	101
455.734	96
455.955	91
456.175	94
456.395	99
456.616	90
456.836	78
457.056	96
457.276	78
457.497	92
457.717	88
457.937	95
458.157	91
458.377	84
458.598	104
458.818	89
459.038	99
459.258	92
459.478	78
459.698	85
459.918	80
460.138	81
460.358	84
460.578	89
460.798	97
461.018	89
461.238	104
461.458	84
461.678	85
461.898	85
462.118	83
462.338	92
462.558	92
462.777	84
462.997	85
463.217	78
463.437	84
463.657	102
463.876	87
464.096	91
464.316	100
464.536	99
464.755	104
464.975	102
465.195	91
465.414	78
465.634	102
465.854	89
466.073	84
466.293	94
466.512	102
466.732	102
466.951	96
467.171	85
467.391	90
467.61	90
467.829	90
468.049	109
468.268	110
468.488	92
468.707	92
468.927	88
469.146	102
469.365	102
469.585	113
469.804	99
470.023	82
470.243	96
470.462	88
470.681	87
470.901	102
471.12	104
471.339	104
471.558	98
471.777	110
471.997	97
472.216	89
472.435	97
472.654	89
472.873	100
473.092	89
473.311	86
473.53	88
473.749	80
473.968	92
474.187	96
474.406	86
474.625	98
474.844	97
475.063	98
475.282	107
475.501	93
475.72	108
475.939	75
476.158	88
476.377	94
476.596	99
476.814	86
477.033	85
477.252	91
477.471	101
477.69	94
477.908	94
478.127	100
478.346	104
478.564	94
478.783	105
479.002	93
479.22	105
479.439	107
479.658	113
479.876	79
480.095	96
480.313	101
480.532	98
480.751	93
480.969	72
481.188	85
481.406	93
481.624	92
481.843	83
482.061	80
482.28	92
482.498	100
482.717	95
482.935	90
483.153	86
483.372	92
483.59	102
483.808	100
484.027	102
484.245	93
484.463	98
484.681	112
484.9	99
485.118	107
485.336	89
485.554	87
485.772	93
485.99	93
486.209	107
486.427	92
486.645	90
486.863	88
487.081	103
487.299	97
487.517	95
487.735	84
487.953	102
488.171	112
488.389	109
488.607	88
488.825	109
489.043	88
489.261	99
489.479	102
489.696	76
489.914	94
490.132	89
490.35	106
490.568	108
490.786	92
491.003	106
491.221	109
491.439	121
491.657	110
491.874	114
492.092	112
492.31	129
492.527	125
492.745	114
492.963	115
493.18	130
493.398	114
493.615	118
493.833	105
494.05	112
494.268	104
494.485	107
494.703	108
494.92	113
495.138	97
495.355	110
495.573	102
495.79	101
496.008	95
496.225	104
496.442	107
496.66	118
496.877	121
497.094	112
497.312	99
497.529	105
497.746	116
497.963	110
498.181	100
498.398	85
498.615	99
498.832	91
499.049	106
499.267	98
499.484	93
499.701	96
499.918	91
500.135	110
500.352	84
500.569	100
500.786	103
501.003	110
501.22	110
501.437	108
501.654	109
501.871	88
502.088	90
502.305	94
502.522	93
502.739	88
502.956	91
503.172	103
503.389	110
503.606	95
503.823	93
504.04	100
504.256	90
504.473	95
504.69	91
504.907	83
505.123	83
505.34	100
505.557	95
505.773	96
505.99	105
506.207	100
506.423	95
506.64	101
506.856	88
507.073	101
507.289	80
507.506	100
507.722	72
507.939	93
508.155	101
508.372	88
508.588	90
508.805	102
509.021	79
509.238	86
509.454	88
509.67	92
509.887	83
510.103	86
510.319	82
510.536	71
510.752	84
510.968	77
511.184	97
511.401	82
511.617	84
511.833	86
512.049	91
512.265	89
512.481	95
512.698	96
512.914	87
513.13	87
513.346	95
513.562	77
513.778	91
513.994	96
514.21	96
514.426	87
514.642	83
514.858	90
515.074	94
515.29	86
515.506	81
515.721	89
515.937	74
516.153	77
516.369	81
516.585	79
516.801	80
517.016	91
517.232	83
517.448	72
517.664	92
517.879	82
518.095	92
518.311	69
518.527	83
518.742	85
518.958	96
519.173	96
519.389	98
519.605	91
519.82	82
520.036	78
520.251	86
520.467	106
520.682	80
520.898	75
521.113	78
521.329	87
521.544	81
521.76	85
521.975	67
522.19	86
522.406	84
522.621	86
522.836	95
523.052	85
523.267	84
523.482	91
523.698	88
523.913	92
524.128	97
524.343	93
524.559	100
524.774	93
524.989	97
525.204	92
525.419	83
525.634	85
525.849	103
526.064	96
526.28	100
526.495	94
526.71	84
526.925	88
527.14	85
527.355	95
527.57	78
527.785	85
527.999	87
528.214	99
528.429	100
528.644	87
528.859	96
529.074	94
529.289	94
529.503	102
529.718	104
529.933	96
530.148	100
530.363	92
530.577	74
530.792	82
531.007	81
531.221	87
531.436	89
531.651	92
531.865	77
532.08	74
532.295	89
532.509	78
532.724	96
532.938	82
533.153	91
533.367	92
533.582	101
533.796	94
534.011	90
534.225	88
534.44	69
534.654	94
534.868	99
535.083	88
535.297	83
535.511	96
535.726	88
535.94	102
536.154	97
536.369	91
536.583	90
536.797	80
537.011	82
537.225	78
537.44	96
537.654	97
537.868	96
538.082	93
538.296	93
538.51	91
538.724	103
538.938	96
539.153	99
539.367	99
539.581	99
539.795	87
540.009	101
540.222	85
540.436	86
540.65	87
540.864	105
541.078	98
541.292	109
541.506	93
541.72	118
541.934	106
542.147	124
542.361	106
542.575	92
542.789	114
543.002	100
543.216	101
543.43	95
543.644	96
543.857	102
544.071	112
544.285	105
544.498	91
544.712	121
544.925	107
545.139	115
545.352	106
545.566	108
545.779	109
545.993	109
546.206	115
546.42	106
546.633	117
546.847	105
547.06	107
547.274	102
547.487	117
547.7	111
547.914	104
548.127	111
548.34	112
548.554	91
548.767	110
548.98	101
549.193	102
549.407	104
549.62	92
549.833	108
550.046	110
550.259	106
550.473	94
550.686	102
550.899	102
551.112	99
551.325	100
551.538	100
551.751	117
551.964	106
552.177	96
552.39	105
552.603	98
552.816	108
553.029	96
553.242	101
553.455	108
553.667	126
553.88	96
554.093	112
554.306	106
554.519	88
554.732	110
554.944	94
555.157	92
555.37	100
555.583	101
555.795	86
556.008	94
556.221	92
556.433	117
556.646	99
556.859	102
557.071	100
557.284	105
557.496	106
557.709	86
557.921	93
558.134	88
558.346	100
558.559	91
558.771	96
558.984	80
559.196	98
559.409	98
559.621	99
559.833	99
560.046	98
560.258	90
560.47	89
560.683	105
560.895	102
561.107	96
561.32	104
561.532	94
561.744	100
561.956	97
562.168	109
562.381	95
562.593	107
562.805	112
563.017	96
563.229	98
563.441	83
563.653	98
563.865	84
564.077	84
564.289	95
564.501	88
564.713	91
564.925	104
565.137	96
565.349	74
565.561	102
565.773	93
565.985	89
566.197	81
566.408	90
566.62	100
566.832	102
567.044	94
567.255	100
567.467	98
567.679	98
567.891	85
568.102	89
568.314	90
568.526	96
568.737	78
568.949	88
569.161	89
569.372	78
569.584	89
569.795	77
570.007	94
570.218	83
570.43	81
570.641	73
570.853	85
571.064	74
571.276	78
571.487	89
571.698	93
571.91	77
572.121	98
572.333	61
572.544	95
572.755	77
572.966	91
573.178	81
573.389	87
573.6	90
573.811	92
574.023	75
574.234	69
574.445	80
574.656	86
574.867	83
575.078	105
575.289	91
575.501	82
575.712	91
575.923	90
576.134	86
576.345	94
576.556	98
576.767	90
576.978	84
577.188	83
577.399	80
577.61	97
577.821	90
578.032	88
578.243	83
578.454	70
578.665	93
578.875	88
579.086	83
579.297	79
579.508	88
579.718	84
579.929	94
580.14	87
580.35	85
580.561	93
580.772	89
580.982	82
581.193	92
581.403	70
581.614	82
581.825	95
582.035	92
582.246	85
582.456	84
582.667	83
582.877	103
583.087	64
583.298	75
583.508	87
583.719	81
583.929	79
584.139	81
584.35	77
584.56	89
584.77	91
584.981	78
585.191	87
585.401	91
585.611	94
585.821	98
586.032	87
586.242	89
586.452	85
586.662	90
586.872	84
587.082	92
587.292	89
587.502	77
587.713	78
587.923	84
588.133	91
588.343	81
588.553	83
588.762	84
588.972	86
589.182	82
589.392	89
589.602	98
589.812	67
590.022	77
590.232	90
590.441	91
590.651	77
590.861	82
591.071	94
591.281	82
591.49	87
591.7	74
591.91	75
592.119	99
592.329	89
592.539	82
592.748	87
592.958	85
593.167	78
593.377	78
593.587	92
593.796	85
594.006	81
594.215	78
594.424	94
594.634	94
594.843	92
595.053	84
595.262	70
595.472	87
595.681	61
595.89	85
596.1	91
596.309	77
596.518	75
596.727	71
596.937	73
597.146	73
597.355	87
597.564	83
597.774	88
597.983	90
598.192	98
598.401	93
598.61	78
598.819	96
599.028	90
599.237	88
599.446	78
599.655	85
599.864	76
600.073	81
600.282	80
600.491	85
600.7	99
600.909	90
601.118	86
601.327	79
601.536	98
601.745	106
601.953	97
602.162	91
602.371	86
602.58	82
602.789	103
602.997	88
603.206	86
603.415	102
603.623	96
603.832	84
604.041	94
604.249	96
604.458	101
604.666	80
604.875	82
605.084	89
605.292	91
605.501	99
605.709	91
605.918	75
606.126	97
606.334	95
606.543	93
606.751	104
606.96	113
607.168	99
607.376	86
607.585	97
607.793	87
608.001	96
608.21	87
608.418	88
608.626	87
608.834	98
609.043	91
609.251	94
609.459	85
609.667	61
609.875	89
610.083	96
610.291	86
610.499	90
610.707	84
610.916	81
611.124	84
611.332	102
611.54	106
611.748	102
611.955	92
612.163	76
612.371	92
612.579	97
612.787	105
612.995	90
613.203	100
613.411	86
613.618	84
613.826	100
614.034	85
614.242	92
614.449	91
614.657	95
614.865	98
615.072	97
615.28	84
615.488	88
615.695	88
615.903	85
616.111	84
616.318	95
616.526	95
616.733	92
616.941	97
617.148	100
617.356	81
617.563	100
617.771	88
617.978	72
618.185	91
618.393	88
618.6	102
618.807	107
619.015	97
619.222	84
619.429	96
619.637	78
619.844	84
620.051	84
620.258	77
620.466	87
620.673	102
620.88	106
621.087	106
621.294	102
621.501	83
621.708	88
621.915	79
622.122	93
622.329	84
622.536	92
622.743	93
622.95	77
623.157	77
623.364	91
623.571	95
623.778	90
623.985	75
624.192	93
624.399	91
624.606	114
624.812	95
625.019	74
625.226	96
625.433	104
625.639	90
625.846	87
626.053	84
626.259	80
626.466	85
626.673	91
626.879	86
627.086	82
627.293	84
627.499	86
627.706	95
627.912	91
628.119	85
628.325	93
628.532	89
628.738	74
628.945	100
629.151	88
629.357	92
629.564	97
629.77	96
629.976	82
630.183	90
630.389	86
630.595	86
630.802	91
631.008	97
631.214	91
631.42	79
631.627	86
631.833	70
632.039	83
632.245	69
632.451	95
632.657	97
632.863	94
633.069	92
633.275	91
633.481	89
633.688	84
633.893	101
634.099	87
634.305	94
634.511	87
634.717	93
634.923	90
635.129	91
635.335	81
635.541	99
635.747	94
635.952	77
636.158	85
636.364	91
636.57	87
636.775	94
636.981	84
637.187	103
637.392	89
637.598	85
637.804	76
638.009	89
638.215	75
638.421	91
638.626	98
638.832	89
639.037	87
639.243	94
639.448	83
639.654	99
639.859	90
640.065	94
640.27	106
640.475	86
640.681	96
640.886	72
641.091	88
641.297	82
641.502	102
641.707	89
641.913	88
642.118	93
642.323	81
642.528	97
642.733	92
642.939	87
643.144	100
643.349	97
643.554	86
643.759	95
643.964	86
644.169	86
644.374	75
644.579	81
644.784	99
644.989	96
645.194	87
645.399	81
645.604	92
645.809	76
646.014	72
646.219	88
646.423	72
646.628	87
646.833	76
647.038	78
647.243	83
647.447	95
647.652	80
647.857	97
648.062	93
648.266	83
648.471	82
648.676	89
648.88	86
649.085	99
649.289	94
649.494	98
649.698	88
649.903	80
650.107	76
650.312	88
650.516	91
650.721	83
650.925	84
651.13	83
651.334	74
651.539	90
651.743	90
651.947	86
652.152	79
652.356	74
652.56	88
652.764	100
652.969	91
653.173	81
653.377	75
653.581	68
653.785	84
653.99	92
654.194	81
654.398	82
654.602	87
654.806	93
655.01	80
655.214	69
655.418	86
655.622	86
655.826	81
656.03	88
656.234	70
656.438	85
656.642	89
656.846	71
657.049	83
657.253	88
657.457	83
657.661	87
657.865	84
658.068	79
658.272	80
658.476	77
658.68	87
658.883	70
659.087	88
659.291	65
659.494	75
659.698	85
659.901	83
660.105	79
660.309	83
660.512	74
660.716	65
660.919	86
661.123	90
661.326	83
661.53	82
661.733	75
661.936	81
662.14	76
662.343	79
662.546	99
662.75	97
662.953	78
663.156	72
663.36	90
663.563	88
663.766	89
663.969	86
664.173	87
664.376	78
664.579	88
664.782	76
664.985	90
665.188	77
665.391	84
665.594	90
665.797	96
666	83
666.203	89
666.406	65
666.609	92
666.812	77
667.015	96
667.218	87
667.421	81
667.624	80
667.827	89
668.03	75
668.232	77
668.435	76
668.638	72
668.841	71
669.043	93
669.246	85
669.449	88
669.651	76
669.854	77
670.057	95
670.259	81
670.462	83
670.665	65
670.867	84
671.07	80
671.272	94
671.475	83
671.677	84
671.88	97
672.082	82
672.284	84
672.487	81
672.689	89
672.892	83
