Data from Location4.07152019.Energy5.Lamp.07192019.3%Agarose_HRD10591_15-23-58-577.txt Node
Date: Fri Jul 19 15:23:58 EDT 2019
User: cochatt
Spectrometer: HR+D1059
Trigger mode: 1
Integration Time (sec): 1.000000E-1
Scans to average: 1
Electric dark correction enabled: true
Nonlinearity correction enabled: false
Boxcar width: 0
XAxis mode: Wavelengths
Number of Pixels in Spectrum: 2048
>>>>>Begin Spectral Data<<<<<
223.165	-17
223.4	-17
223.635	-17
223.869	-24
224.104	-18
224.338	-11
224.573	-6
224.808	-35
225.042	6
225.277	-9
225.511	-11
225.746	4
225.98	13
226.215	17
226.449	21
226.683	23
226.918	14
227.152	33
227.387	35
227.621	43
227.856	46
228.09	41
228.324	57
228.559	63
228.793	37
229.027	51
229.262	61
229.496	58
229.73	61
229.964	69
230.199	63
230.433	70
230.667	63
230.901	68
231.136	74
231.37	91
231.604	76
231.838	79
232.072	88
232.306	73
232.541	86
232.775	89
233.009	79
233.243	92
233.477	82
233.711	87
233.945	87
234.179	81
234.413	98
234.647	79
234.881	87
235.115	76
235.349	78
235.583	91
235.817	69
236.051	61
236.285	85
236.519	80
236.753	84
236.987	73
237.221	74
237.455	83
237.689	66
237.922	82
238.156	65
238.39	77
238.624	66
238.858	75
239.091	74
239.325	66
239.559	69
239.793	92
240.027	94
240.26	88
240.494	79
240.728	76
240.961	75
241.195	79
241.429	76
241.662	78
241.896	69
242.13	72
242.363	89
242.597	82
242.83	74
243.064	69
243.298	78
243.531	76
243.765	77
243.998	91
244.232	81
244.465	64
244.699	72
244.932	70
245.166	69
245.399	75
245.633	74
245.866	91
246.099	85
246.333	80
246.566	67
246.8	73
247.033	93
247.266	86
247.5	63
247.733	71
247.966	84
248.2	87
248.433	83
248.666	75
248.899	65
249.133	86
249.366	79
249.599	60
249.832	81
250.066	87
250.299	69
250.532	80
250.765	72
250.998	79
251.231	94
251.465	71
251.698	75
251.931	69
252.164	83
252.397	77
252.63	81
252.863	80
253.096	93
253.329	89
253.562	75
253.795	78
254.028	74
254.261	75
254.494	75
254.727	75
254.96	95
255.193	78
255.426	77
255.659	62
255.892	75
256.124	69
256.357	86
256.59	82
256.823	79
257.056	72
257.289	81
257.521	90
257.754	80
257.987	73
258.22	81
258.452	96
258.685	78
258.918	73
259.151	78
259.383	89
259.616	73
259.849	81
260.081	83
260.314	76
260.547	82
260.779	91
261.012	73
261.244	83
261.477	88
261.71	86
261.942	86
262.175	70
262.407	74
262.64	84
262.872	72
263.105	80
263.337	89
263.57	82
263.802	87
264.035	77
264.267	75
264.499	79
264.732	74
264.964	65
265.197	78
265.429	83
265.661	84
265.894	80
266.126	74
266.358	75
266.591	79
266.823	79
267.055	77
267.287	74
267.52	87
267.752	83
267.984	80
268.216	69
268.448	88
268.681	91
268.913	82
269.145	79
269.377	83
269.609	86
269.841	80
270.073	81
270.306	81
270.538	82
270.77	64
271.002	78
271.234	80
271.466	81
271.698	75
271.93	88
272.162	76
272.394	73
272.626	69
272.858	77
273.09	73
273.322	82
273.553	89
273.785	75
274.017	84
274.249	79
274.481	87
274.713	78
274.945	77
275.176	78
275.408	78
275.64	81
275.872	91
276.104	83
276.335	87
276.567	88
276.799	87
277.031	87
277.262	76
277.494	66
277.726	85
277.957	90
278.189	82
278.421	78
278.652	76
278.884	73
279.115	88
279.347	68
279.579	71
279.81	77
280.042	71
280.273	86
280.505	81
280.736	77
280.968	80
281.199	80
281.431	78
281.662	75
281.894	90
282.125	81
282.356	75
282.588	75
282.819	85
283.051	96
283.282	78
283.513	78
283.745	74
283.976	80
284.207	87
284.439	72
284.67	91
284.901	79
285.132	84
285.364	70
285.595	76
285.826	74
286.057	82
286.288	72
286.52	86
286.751	88
286.982	84
287.213	77
287.444	87
287.675	85
287.906	91
288.138	92
288.369	99
288.6	76
288.831	91
289.062	78
289.293	93
289.524	87
289.755	73
289.986	84
290.217	77
290.448	77
290.679	75
290.91	94
291.141	79
291.371	86
291.602	68
291.833	74
292.064	78
292.295	86
292.526	91
292.757	68
292.987	76
293.218	76
293.449	106
293.68	94
293.91	88
294.141	80
294.372	87
294.603	87
294.833	103
295.064	95
295.295	89
295.525	83
295.756	95
295.987	86
296.217	92
296.448	81
296.679	79
296.909	85
297.14	71
297.37	86
297.601	85
297.831	83
298.062	94
298.292	79
298.523	98
298.753	95
298.984	86
299.214	84
299.445	88
299.675	84
299.905	78
300.136	84
300.366	94
300.597	71
300.827	87
301.057	94
301.288	80
301.518	84
301.748	101
301.979	86
302.209	89
302.439	101
302.669	70
302.9	78
303.13	74
303.36	87
303.59	92
303.82	89
304.051	85
304.281	80
304.511	75
304.741	90
304.971	92
305.201	88
305.431	93
305.661	85
305.891	73
306.121	74
306.352	67
306.582	81
306.812	75
307.042	86
307.272	77
307.502	86
307.731	83
307.961	91
308.191	75
308.421	83
308.651	99
308.881	65
309.111	86
309.341	76
309.571	89
309.8	88
310.03	75
310.26	87
310.49	83
310.72	84
310.949	81
311.179	87
311.409	95
311.639	90
311.868	78
312.098	85
312.328	90
312.557	79
312.787	85
313.017	88
313.246	51
313.476	82
313.706	88
313.935	80
314.165	82
314.394	85
314.624	80
314.853	81
315.083	98
315.312	67
315.542	85
315.771	85
316.001	88
316.23	84
316.46	88
316.689	79
316.919	81
317.148	81
317.377	85
317.607	79
317.836	73
318.065	76
318.295	89
318.524	72
318.753	76
318.983	83
319.212	74
319.441	79
319.67	81
319.9	82
320.129	92
320.358	74
320.587	80
320.816	81
321.046	91
321.275	85
321.504	83
321.733	87
321.962	90
322.191	79
322.42	95
322.649	88
322.878	80
323.108	88
323.337	87
323.566	87
323.795	81
324.024	81
324.253	86
324.482	79
324.71	66
324.939	79
325.168	78
325.397	85
325.626	81
325.855	82
326.084	75
326.313	86
326.542	81
326.77	86
326.999	80
327.228	77
327.457	84
327.686	91
327.914	87
328.143	91
328.372	89
328.6	73
328.829	93
329.058	79
329.287	88
329.515	77
329.744	93
329.972	86
330.201	89
330.43	86
330.658	75
330.887	86
331.115	75
331.344	75
331.572	93
331.801	83
332.03	80
332.258	91
332.486	77
332.715	95
332.943	76
333.172	87
333.4	96
333.629	73
333.857	92
334.085	75
334.314	75
334.542	85
334.771	71
334.999	81
335.227	78
335.455	85
335.684	79
335.912	98
336.14	71
336.369	55
336.597	84
336.825	86
337.053	83
337.281	77
337.51	79
337.738	87
337.966	82
338.194	93
338.422	80
338.65	82
338.878	81
339.106	81
339.334	101
339.562	82
339.79	83
340.018	74
340.246	78
340.474	82
340.702	82
340.93	79
341.158	84
341.386	77
341.614	76
341.842	76
342.07	79
342.298	77
342.526	76
342.754	82
342.981	86
343.209	78
343.437	91
343.665	79
343.893	88
344.12	79
344.348	82
344.576	70
344.804	69
345.031	98
345.259	77
345.487	72
345.714	85
345.942	85
346.17	81
346.397	78
346.625	90
346.853	82
347.08	87
347.308	78
347.535	82
347.763	82
347.99	86
348.218	79
348.445	75
348.673	84
348.9	88
349.128	92
349.355	87
349.583	96
349.81	94
350.037	69
350.265	87
350.492	76
350.72	93
350.947	75
351.174	82
351.402	89
351.629	86
351.856	72
352.083	84
352.311	79
352.538	91
352.765	96
352.992	90
353.22	79
353.447	73
353.674	67
353.901	84
354.128	79
354.355	80
354.583	89
354.81	90
355.037	101
355.264	94
355.491	74
355.718	99
355.945	87
356.172	85
356.399	80
356.626	87
356.853	97
357.08	78
357.307	83
357.534	65
357.761	76
357.988	92
358.215	90
358.441	70
358.668	78
358.895	73
359.122	76
359.349	94
359.576	76
359.802	78
360.029	77
360.256	92
360.483	80
360.709	72
360.936	79
361.163	93
361.39	91
361.616	88
361.843	88
362.07	87
362.296	93
362.523	79
362.749	82
362.976	96
363.203	78
363.429	82
363.656	85
363.882	86
364.109	99
364.335	69
364.562	83
364.788	85
365.015	83
365.241	84
365.468	88
365.694	81
365.92	75
366.147	83
366.373	86
366.599	70
366.826	83
367.052	91
367.278	77
367.505	82
367.731	65
367.957	83
368.184	70
368.41	91
368.636	77
368.862	86
369.089	104
369.315	83
369.541	91
369.767	77
369.993	92
370.219	89
370.445	95
370.672	75
370.898	72
371.124	76
371.35	92
371.576	90
371.802	82
372.028	79
372.254	81
372.48	87
372.706	75
372.932	79
373.158	84
373.384	77
373.61	83
373.835	84
374.061	94
374.287	70
374.513	92
374.739	73
374.965	80
375.191	89
375.416	78
375.642	75
375.868	91
376.094	105
376.319	95
376.545	97
376.771	81
376.997	77
377.222	82
377.448	79
377.674	80
377.899	89
378.125	80
378.35	88
378.576	80
378.802	69
379.027	74
379.253	93
379.478	88
379.704	90
379.929	88
380.155	92
380.38	89
380.606	84
380.831	88
381.057	98
381.282	69
381.507	75
381.733	77
381.958	85
382.184	81
382.409	76
382.634	87
382.86	85
383.085	85
383.31	57
383.535	94
383.761	82
383.986	90
384.211	75
384.436	87
384.662	85
384.887	85
385.112	88
385.337	82
385.562	74
385.787	72
386.013	79
386.238	79
386.463	84
386.688	93
386.913	89
387.138	64
387.363	72
387.588	83
387.813	81
388.038	83
388.263	99
388.488	92
388.713	82
388.938	75
389.163	93
389.387	85
389.612	78
389.837	79
390.062	85
390.287	93
390.512	86
390.736	101
390.961	85
391.186	86
391.411	93
391.636	96
391.86	77
392.085	87
392.31	90
392.534	78
392.759	87
392.984	96
393.208	84
393.433	85
393.658	79
393.882	83
394.107	79
394.331	80
394.556	89
394.78	83
395.005	75
395.229	82
395.454	90
395.678	87
395.903	74
396.127	86
396.352	89
396.576	88
396.801	81
397.025	85
397.249	90
397.474	86
397.698	88
397.922	98
398.147	99
398.371	86
398.595	91
398.82	87
399.044	89
399.268	91
399.492	78
399.717	85
399.941	96
400.165	95
400.389	90
400.613	90
400.837	96
401.062	87
401.286	79
401.51	85
401.734	90
401.958	84
402.182	104
402.406	91
402.63	92
402.854	92
403.078	91
403.302	81
403.526	92
403.75	90
403.974	81
404.198	87
404.422	90
404.645	88
404.869	90
405.093	87
405.317	89
405.541	89
405.765	96
405.988	93
406.212	98
406.436	96
406.66	86
406.883	77
407.107	86
407.331	78
407.555	97
407.778	77
408.002	81
408.226	77
408.449	92
408.673	96
408.896	83
409.12	81
409.344	78
409.567	91
409.791	105
410.014	99
410.238	78
410.461	89
410.685	95
410.908	82
411.132	92
411.355	99
411.578	92
411.802	98
412.025	76
412.249	75
412.472	84
412.695	76
412.919	83
413.142	97
413.365	95
413.589	87
413.812	90
414.035	88
414.258	74
414.482	89
414.705	82
414.928	91
415.151	96
415.374	108
415.597	91
415.821	86
416.044	81
416.267	98
416.49	81
416.713	80
416.936	98
417.159	89
417.382	87
417.605	85
417.828	100
418.051	97
418.274	105
418.497	90
418.72	86
418.943	86
419.166	104
419.389	100
419.611	102
419.834	109
420.057	94
420.28	87
420.503	103
420.726	96
420.948	81
421.171	94
421.394	93
421.617	102
421.839	83
422.062	97
422.285	87
422.507	89
422.73	91
422.953	110
423.175	91
423.398	94
423.621	84
423.843	97
424.066	89
424.288	86
424.511	103
424.733	112
424.956	91
425.178	89
425.401	103
425.623	90
425.846	86
426.068	86
426.291	94
426.513	98
426.735	82
426.958	87
427.18	102
427.402	89
427.625	72
427.847	86
428.069	89
428.292	87
428.514	89
428.736	83
428.958	99
429.181	87
429.403	93
429.625	91
429.847	97
430.069	94
430.292	92
430.514	94
430.736	95
430.958	105
431.18	94
431.402	85
431.624	89
431.846	80
432.068	60
432.29	82
432.512	92
432.734	95
432.956	90
433.178	102
433.4	96
433.622	96
433.844	90
434.066	96
434.287	89
434.509	72
434.731	84
434.953	88
435.175	95
435.397	114
435.618	100
435.84	113
436.062	102
436.284	98
436.505	98
436.727	97
436.949	94
437.17	106
437.392	87
437.614	98
437.835	83
438.057	92
438.278	97
438.5	76
438.721	90
438.943	96
439.165	89
439.386	95
439.608	107
439.829	92
440.05	98
440.272	99
440.493	99
440.715	102
440.936	104
441.158	99
441.379	91
441.6	73
441.822	85
442.043	97
442.264	92
442.486	95
442.707	94
442.928	101
443.149	93
443.371	99
443.592	100
443.813	97
444.034	103
444.255	87
444.476	110
444.698	96
444.919	104
445.14	183
445.361	153
445.582	104
445.803	90
446.024	101
446.245	102
446.466	92
446.687	100
446.908	97
447.129	102
447.35	81
447.571	98
447.792	93
448.013	88
448.234	83
448.455	96
448.675	83
448.896	101
449.117	95
449.338	91
449.559	91
449.779	94
450	81
450.221	89
450.442	92
450.662	90
450.883	95
451.104	85
451.324	93
451.545	83
451.766	106
451.986	95
452.207	97
452.428	95
452.648	96
452.869	98
453.089	106
453.31	81
453.53	77
453.751	82
453.971	99
454.192	82
454.412	86
454.633	87
454.853	92
455.073	89
455.294	88
455.514	98
455.734	68
455.955	87
456.175	94
456.395	77
456.616	72
456.836	89
457.056	87
457.276	105
457.497	77
457.717	88
457.937	94
458.157	98
458.377	75
458.598	86
458.818	74
459.038	83
459.258	93
459.478	85
459.698	79
459.918	87
460.138	89
460.358	96
460.578	85
460.798	89
461.018	103
461.238	86
461.458	95
461.678	93
461.898	84
462.118	69
462.338	87
462.558	68
462.777	99
462.997	96
463.217	86
463.437	90
463.657	83
463.876	90
464.096	97
464.316	92
464.536	79
464.755	87
464.975	86
465.195	98
465.414	81
465.634	91
465.854	98
466.073	97
466.293	75
466.512	85
466.732	91
466.951	103
467.171	106
467.391	84
467.61	91
467.829	109
468.049	104
468.268	83
468.488	101
468.707	95
468.927	95
469.146	90
469.365	102
469.585	93
469.804	95
470.023	94
470.243	96
470.462	90
470.681	105
470.901	95
471.12	102
471.339	103
471.558	90
471.777	116
471.997	99
472.216	107
472.435	100
472.654	104
472.873	96
473.092	114
473.311	77
473.53	96
473.749	93
473.968	90
474.187	95
474.406	100
474.625	99
474.844	86
475.063	98
475.282	89
475.501	94
475.72	101
475.939	91
476.158	106
476.377	106
476.596	89
476.814	90
477.033	100
477.252	98
477.471	97
477.69	95
477.908	99
478.127	96
478.346	82
478.564	86
478.783	93
479.002	100
479.22	84
479.439	104
479.658	102
479.876	93
480.095	80
480.313	90
480.532	72
480.751	83
480.969	72
481.188	85
481.406	76
481.624	86
481.843	81
482.061	80
482.28	102
482.498	88
482.717	84
482.935	97
483.153	105
483.372	103
483.59	101
483.808	103
484.027	98
484.245	83
484.463	95
484.681	103
484.9	93
485.118	104
485.336	103
485.554	105
485.772	95
485.99	84
486.209	90
486.427	94
486.645	104
486.863	83
487.081	103
487.299	88
487.517	93
487.735	107
487.953	118
488.171	103
488.389	87
488.607	102
488.825	86
489.043	96
489.261	111
489.479	102
489.696	100
489.914	100
490.132	116
490.35	107
490.568	103
490.786	105
491.003	111
491.221	107
491.439	107
491.657	111
491.874	116
492.092	128
492.31	137
492.527	123
492.745	109
492.963	119
493.18	123
493.398	110
493.615	115
493.833	110
494.05	91
494.268	109
494.485	100
494.703	104
494.92	103
495.138	111
495.355	104
495.573	109
495.79	118
496.008	112
496.225	95
496.442	105
496.66	102
496.877	112
497.094	104
497.312	116
497.529	106
497.746	96
497.963	106
498.181	105
498.398	95
498.615	96
498.832	87
499.049	87
499.267	95
499.484	93
499.701	90
499.918	96
500.135	103
500.352	98
500.569	92
500.786	98
501.003	93
501.22	107
501.437	88
501.654	91
501.871	84
502.088	111
502.305	111
502.522	102
502.739	95
502.956	105
503.172	101
503.389	95
503.606	93
503.823	79
504.04	97
504.256	96
504.473	95
504.69	101
504.907	94
505.123	97
505.34	102
505.557	102
505.773	87
505.99	102
506.207	100
506.423	102
506.64	102
506.856	96
507.073	88
507.289	87
507.506	81
507.722	86
507.939	84
508.155	92
508.372	81
508.588	93
508.805	83
509.021	95
509.238	85
509.454	96
509.67	80
509.887	86
510.103	86
510.319	100
510.536	86
510.752	85
510.968	84
511.184	75
511.401	71
511.617	82
511.833	74
512.049	83
512.265	81
512.481	88
512.698	81
512.914	83
513.13	98
513.346	87
513.562	84
513.778	75
513.994	84
514.21	79
514.426	90
514.642	82
514.858	85
515.074	90
515.29	93
515.506	81
515.721	83
515.937	93
516.153	95
516.369	67
516.585	70
516.801	81
517.016	80
517.232	96
517.448	86
517.664	77
517.879	77
518.095	88
518.311	87
518.527	81
518.742	90
518.958	92
519.173	100
519.389	97
519.605	95
519.82	102
520.036	85
520.251	89
520.467	96
520.682	75
520.898	80
521.113	81
521.329	84
521.544	81
521.76	88
521.975	93
522.19	98
522.406	74
522.621	87
522.836	95
523.052	90
523.267	78
523.482	101
523.698	96
523.913	90
524.128	86
524.343	90
524.559	83
524.774	75
524.989	80
525.204	75
525.419	87
525.634	84
525.849	92
526.064	90
526.28	89
526.495	81
526.71	88
526.925	80
527.14	82
527.355	81
527.57	91
527.785	94
527.999	86
528.214	84
528.429	90
528.644	94
528.859	83
529.074	102
529.289	119
529.503	99
529.718	101
529.933	93
530.148	82
530.363	84
530.577	86
530.792	101
531.007	101
531.221	84
531.436	96
531.651	93
531.865	84
532.08	84
532.295	74
532.509	77
532.724	90
532.938	75
533.153	81
533.367	80
533.582	94
533.796	85
534.011	86
534.225	79
534.44	81
534.654	102
534.868	103
535.083	92
535.297	78
535.511	73
535.726	91
535.94	82
536.154	95
536.369	82
536.583	77
536.797	104
537.011	84
537.225	99
537.44	68
537.654	82
537.868	88
538.082	81
538.296	81
538.51	81
538.724	72
538.938	84
539.153	91
539.367	99
539.581	95
539.795	73
540.009	96
540.222	88
540.436	83
540.65	95
540.864	97
541.078	98
541.292	110
541.506	103
541.72	113
541.934	117
542.147	119
542.361	109
542.575	103
542.789	99
543.002	90
543.216	113
543.43	99
543.644	106
543.857	106
544.071	123
544.285	96
544.498	100
544.712	95
544.925	98
545.139	91
545.352	105
545.566	109
545.779	97
545.993	103
546.206	99
546.42	113
546.633	103
546.847	109
547.06	100
547.274	102
547.487	119
547.7	109
547.914	111
548.127	106
548.34	111
548.554	121
548.767	104
548.98	101
549.193	106
549.407	98
549.62	103
549.833	93
550.046	104
550.259	97
550.473	101
550.686	91
550.899	104
551.112	113
551.325	110
551.538	107
551.751	97
551.964	85
552.177	83
552.39	92
552.603	116
552.816	102
553.029	115
553.242	89
553.455	90
553.667	103
553.88	104
554.093	98
554.306	89
554.519	105
554.732	94
554.944	100
555.157	119
555.37	97
555.583	111
555.795	101
556.008	93
556.221	91
556.433	107
556.646	104
556.859	95
557.071	98
557.284	90
557.496	104
557.709	100
557.921	90
558.134	92
558.346	91
558.559	95
558.771	92
558.984	103
559.196	89
559.409	102
559.621	101
559.833	96
560.046	100
560.258	104
560.47	110
560.683	89
560.895	113
561.107	96
561.32	85
561.532	92
561.744	85
561.956	99
562.168	98
562.381	103
562.593	104
562.805	91
563.017	97
563.229	105
563.441	87
563.653	94
563.865	93
564.077	83
564.289	88
564.501	94
564.713	98
564.925	97
565.137	105
565.349	90
565.561	79
565.773	97
565.985	93
566.197	103
566.408	104
566.62	103
566.832	89
567.044	114
567.255	92
567.467	93
567.679	91
567.891	89
568.102	83
568.314	81
568.526	88
568.737	83
568.949	93
569.161	71
569.372	83
569.584	74
569.795	84
570.007	79
570.218	84
570.43	97
570.641	79
570.853	75
571.064	92
571.276	96
571.487	93
571.698	104
571.91	84
572.121	86
572.333	100
572.544	92
572.755	90
572.966	81
573.178	69
573.389	97
573.6	84
573.811	83
574.023	74
574.234	84
574.445	88
574.656	93
574.867	96
575.078	87
575.289	71
575.501	89
575.712	85
575.923	83
576.134	73
576.345	90
576.556	102
576.767	82
576.978	88
577.188	89
577.399	85
577.61	71
577.821	83
578.032	79
578.243	86
578.454	101
578.665	86
578.875	87
579.086	78
579.297	80
579.508	71
579.718	74
579.929	81
580.14	90
580.35	78
580.561	88
580.772	88
580.982	93
581.193	83
581.403	77
581.614	76
581.825	85
582.035	83
582.246	82
582.456	72
582.667	73
582.877	87
583.087	88
583.298	88
583.508	90
583.719	85
583.929	76
584.139	63
584.35	88
584.56	79
584.77	70
584.981	75
585.191	75
585.401	80
585.611	76
585.821	92
586.032	87
586.242	72
586.452	82
586.662	83
586.872	76
587.082	88
587.292	84
587.502	93
587.713	81
587.923	75
588.133	88
588.343	87
588.553	71
588.762	86
588.972	78
589.182	69
589.392	82
589.602	81
589.812	76
590.022	93
590.232	83
590.441	82
590.651	85
590.861	67
591.071	74
591.281	76
591.49	85
591.7	75
591.91	83
592.119	75
592.329	78
592.539	74
592.748	87
592.958	81
593.167	78
593.377	84
593.587	77
593.796	93
594.006	82
594.215	88
594.424	79
594.634	87
594.843	75
595.053	88
595.262	83
595.472	105
595.681	97
595.89	74
596.1	82
596.309	88
596.518	78
596.727	71
596.937	93
597.146	85
597.355	94
597.564	95
597.774	102
597.983	78
598.192	93
598.401	78
598.61	78
598.819	89
599.028	90
599.237	88
599.446	88
599.655	78
599.864	93
600.073	72
600.282	89
600.491	81
600.7	85
600.909	95
601.118	80
601.327	86
601.536	86
601.745	88
601.953	94
602.162	102
602.371	101
602.58	95
602.789	85
602.997	80
603.206	94
603.415	91
603.623	78
603.832	91
604.041	83
604.249	81
604.458	82
604.666	83
604.875	85
605.084	91
605.292	90
605.501	85
605.709	99
605.918	101
606.126	84
606.334	93
606.543	79
606.751	87
606.96	95
607.168	83
607.376	85
607.585	101
607.793	80
608.001	92
608.21	86
608.418	82
608.626	97
608.834	96
609.043	87
609.251	83
609.459	95
609.667	97
609.875	87
610.083	95
610.291	102
610.499	99
610.707	86
610.916	72
611.124	82
611.332	102
611.54	83
611.748	93
611.955	95
612.163	98
612.371	93
612.579	91
612.787	88
612.995	88
613.203	97
613.411	119
613.618	94
613.826	92
614.034	96
614.242	112
614.449	89
614.657	103
614.865	83
615.072	87
615.28	98
615.488	87
615.695	90
615.903	93
616.111	99
616.318	109
616.526	98
616.733	84
616.941	103
617.148	95
617.356	85
617.563	96
617.771	84
617.978	87
618.185	90
618.393	79
618.6	90
618.807	81
619.015	93
619.222	87
619.429	91
619.637	89
619.844	89
620.051	97
620.258	86
620.466	85
620.673	91
620.88	98
621.087	85
621.294	84
621.501	79
621.708	91
621.915	94
622.122	79
622.329	89
622.536	88
622.743	95
622.95	83
623.157	73
623.364	94
623.571	91
623.778	91
623.985	89
624.192	71
624.399	90
624.606	88
624.812	83
625.019	79
625.226	100
625.433	99
625.639	78
625.846	76
626.053	71
626.259	72
626.466	91
626.673	90
626.879	70
627.086	74
627.293	79
627.499	95
627.706	96
627.912	105
628.119	88
628.325	86
628.532	93
628.738	94
628.945	89
629.151	89
629.357	90
629.564	85
629.77	94
629.976	77
630.183	81
630.389	81
630.595	86
630.802	78
631.008	95
631.214	88
631.42	89
631.627	84
631.833	70
632.039	87
632.245	77
632.451	80
632.657	91
632.863	96
633.069	88
633.275	77
633.481	96
633.688	89
633.893	86
634.099	93
634.305	81
634.511	89
634.717	78
634.923	90
635.129	73
635.335	80
635.541	89
635.747	94
635.952	89
636.158	96
636.364	84
636.57	100
636.775	96
636.981	79
637.187	81
637.392	73
637.598	90
637.804	100
638.009	90
638.215	91
638.421	99
638.626	84
638.832	91
639.037	85
639.243	69
639.448	92
639.654	95
639.859	84
640.065	100
640.27	80
640.475	88
640.681	84
640.886	78
641.091	92
641.297	94
641.502	87
641.707	94
641.913	95
642.118	91
642.323	75
642.528	91
642.733	93
642.939	98
643.144	86
643.349	84
643.554	84
643.759	91
643.964	82
644.169	83
644.374	90
644.579	71
644.784	94
644.989	99
645.194	91
645.399	74
645.604	102
645.809	89
646.014	78
646.219	81
646.423	100
646.628	81
646.833	85
647.038	97
647.243	89
647.447	75
647.652	89
647.857	80
648.062	88
648.266	83
648.471	90
648.676	91
648.88	81
649.085	73
649.289	89
649.494	83
649.698	79
649.903	81
650.107	81
650.312	92
650.516	87
650.721	73
650.925	80
651.13	90
651.334	88
651.539	73
651.743	83
651.947	78
652.152	104
652.356	78
652.56	89
652.764	86
652.969	79
653.173	84
653.377	89
653.581	89
653.785	83
653.99	73
654.194	95
654.398	71
654.602	87
654.806	99
655.01	93
655.214	83
655.418	77
655.622	91
655.826	86
656.03	87
656.234	79
656.438	84
656.642	77
656.846	92
657.049	86
657.253	68
657.457	95
657.661	86
657.865	83
658.068	74
658.272	86
658.476	70
658.68	73
658.883	84
659.087	99
659.291	88
659.494	94
659.698	81
659.901	79
660.105	80
660.309	72
660.512	89
660.716	81
660.919	79
661.123	95
661.326	87
661.53	92
661.733	86
661.936	83
662.14	78
662.343	89
662.546	87
662.75	99
662.953	97
663.156	93
663.36	75
663.563	84
663.766	87
663.969	81
664.173	79
664.376	87
664.579	71
664.782	84
664.985	92
665.188	81
665.391	81
665.594	73
665.797	81
666	62
666.203	85
666.406	88
666.609	84
666.812	76
667.015	82
667.218	94
667.421	67
667.624	88
667.827	99
668.03	85
668.232	78
668.435	69
668.638	73
668.841	83
669.043	81
669.246	84
669.449	81
669.651	90
669.854	85
670.057	88
670.259	72
670.462	84
670.665	92
670.867	93
671.07	85
671.272	82
671.475	95
671.677	82
671.88	81
672.082	99
672.284	90
672.487	91
672.689	75
672.892	74
