Data from Location4.07152019.Energy5.Lamp.07192019.3%Agarose_HRD10591_15-23-53-576.txt Node
Date: Fri Jul 19 15:23:53 EDT 2019
User: cochatt
Spectrometer: HR+D1059
Trigger mode: 1
Integration Time (sec): 1.000000E-1
Scans to average: 1
Electric dark correction enabled: true
Nonlinearity correction enabled: false
Boxcar width: 0
XAxis mode: Wavelengths
Number of Pixels in Spectrum: 2048
>>>>>Begin Spectral Data<<<<<
223.165	-1
223.4	-1
223.635	-1
223.869	-8
224.104	-17
224.338	-34
224.573	-22
224.808	-23
225.042	-12
225.277	-4
225.511	-7
225.746	8
225.98	8
226.215	5
226.449	18
226.683	14
226.918	34
227.152	41
227.387	28
227.621	39
227.856	44
228.09	41
228.324	53
228.559	67
228.793	46
229.027	60
229.262	67
229.496	68
229.73	78
229.964	72
230.199	77
230.433	74
230.667	85
230.901	77
231.136	83
231.37	80
231.604	76
231.838	86
232.072	80
232.306	81
232.541	88
232.775	72
233.009	84
233.243	84
233.477	71
233.711	83
233.945	76
234.179	81
234.413	82
234.647	64
234.881	74
235.115	82
235.349	91
235.583	91
235.817	76
236.051	75
236.285	83
236.519	81
236.753	86
236.987	75
237.221	78
237.455	88
237.689	86
237.922	82
238.156	76
238.39	77
238.624	76
238.858	84
239.091	75
239.325	72
239.559	74
239.793	71
240.027	77
240.26	82
240.494	73
240.728	97
240.961	87
241.195	92
241.429	79
241.662	74
241.896	72
242.13	82
242.363	79
242.597	86
242.83	75
243.064	81
243.298	66
243.531	72
243.765	77
243.998	68
244.232	87
244.465	78
244.699	88
244.932	91
245.166	72
245.399	60
245.633	73
245.866	88
246.099	69
246.333	73
246.566	67
246.8	83
247.033	67
247.266	76
247.5	77
247.733	89
247.966	79
248.2	80
248.433	84
248.666	72
248.899	73
249.133	77
249.366	94
249.599	74
249.832	85
250.066	82
250.299	79
250.532	76
250.765	85
250.998	86
251.231	86
251.465	84
251.698	84
251.931	70
252.164	87
252.397	91
252.63	93
252.863	83
253.096	85
253.329	89
253.562	76
253.795	84
254.028	74
254.261	79
254.494	95
254.727	77
254.96	71
255.193	77
255.426	75
255.659	72
255.892	77
256.124	84
256.357	92
256.59	68
256.823	85
257.056	86
257.289	77
257.521	87
257.754	81
257.987	86
258.22	94
258.452	76
258.685	66
258.918	90
259.151	80
259.383	81
259.616	82
259.849	76
260.081	87
260.314	88
260.547	89
260.779	88
261.012	86
261.244	84
261.477	90
261.71	72
261.942	93
262.175	79
262.407	81
262.64	88
262.872	75
263.105	81
263.337	92
263.57	69
263.802	79
264.035	71
264.267	84
264.499	74
264.732	78
264.964	75
265.197	85
265.429	80
265.661	78
265.894	88
266.126	87
266.358	78
266.591	84
266.823	86
267.055	81
267.287	78
267.52	85
267.752	64
267.984	84
268.216	99
268.448	88
268.681	84
268.913	83
269.145	81
269.377	78
269.609	88
269.841	89
270.073	84
270.306	92
270.538	88
270.77	91
271.002	72
271.234	94
271.466	72
271.698	88
271.93	86
272.162	77
272.394	78
272.626	82
272.858	79
273.09	82
273.322	82
273.553	87
273.785	83
274.017	84
274.249	99
274.481	74
274.713	83
274.945	98
275.176	79
275.408	84
275.64	82
275.872	93
276.104	90
276.335	89
276.567	78
276.799	91
277.031	84
277.262	66
277.494	87
277.726	85
277.957	91
278.189	103
278.421	95
278.652	80
278.884	70
279.115	72
279.347	94
279.579	86
279.81	86
280.042	78
280.273	62
280.505	94
280.736	82
280.968	96
281.199	91
281.431	83
281.662	84
281.894	77
282.125	80
282.356	82
282.588	90
282.819	82
283.051	81
283.282	91
283.513	103
283.745	93
283.976	84
284.207	88
284.439	69
284.67	90
284.901	86
285.132	81
285.364	85
285.595	85
285.826	84
286.057	83
286.288	75
286.52	69
286.751	86
286.982	84
287.213	85
287.444	85
287.675	75
287.906	78
288.138	89
288.369	83
288.6	81
288.831	86
289.062	94
289.293	80
289.524	85
289.755	90
289.986	86
290.217	100
290.448	61
290.679	78
290.91	90
291.141	92
291.371	89
291.602	81
291.833	86
292.064	82
292.295	82
292.526	76
292.757	88
292.987	83
293.218	75
293.449	85
293.68	74
293.91	87
294.141	84
294.372	82
294.603	88
294.833	98
295.064	74
295.295	78
295.525	95
295.756	78
295.987	94
296.217	85
296.448	77
296.679	92
296.909	99
297.14	93
297.37	91
297.601	82
297.831	87
298.062	89
298.292	87
298.523	81
298.753	91
298.984	68
299.214	104
299.445	88
299.675	75
299.905	93
300.136	88
300.366	85
300.597	95
300.827	80
301.057	88
301.288	78
301.518	93
301.748	85
301.979	90
302.209	89
302.439	72
302.669	103
302.9	83
303.13	84
303.36	98
303.59	77
303.82	101
304.051	94
304.281	88
304.511	79
304.741	92
304.971	71
305.201	83
305.431	88
305.661	91
305.891	85
306.121	88
306.352	83
306.582	90
306.812	79
307.042	86
307.272	78
307.502	82
307.731	79
307.961	96
308.191	97
308.421	108
308.651	85
308.881	85
309.111	70
309.341	75
309.571	83
309.8	94
310.03	100
310.26	77
310.49	77
310.72	101
310.949	78
311.179	76
311.409	92
311.639	79
311.868	90
312.098	88
312.328	88
312.557	77
312.787	90
313.017	81
313.246	94
313.476	80
313.706	82
313.935	76
314.165	88
314.394	89
314.624	93
314.853	88
315.083	85
315.312	82
315.542	83
315.771	69
316.001	88
316.23	90
316.46	86
316.689	89
316.919	79
317.148	89
317.377	84
317.607	91
317.836	85
318.065	85
318.295	75
318.524	89
318.753	74
318.983	86
319.212	87
319.441	73
319.67	95
319.9	84
320.129	99
320.358	86
320.587	102
320.816	91
321.046	83
321.275	82
321.504	99
321.733	75
321.962	89
322.191	87
322.42	91
322.649	97
322.878	82
323.108	83
323.337	82
323.566	89
323.795	93
324.024	91
324.253	80
324.482	84
324.71	102
324.939	87
325.168	82
325.397	80
325.626	97
325.855	85
326.084	96
326.313	80
326.542	94
326.77	87
326.999	88
327.228	96
327.457	68
327.686	90
327.914	76
328.143	97
328.372	78
328.6	86
328.829	85
329.058	74
329.287	69
329.515	94
329.744	93
329.972	77
330.201	77
330.43	93
330.658	92
330.887	90
331.115	82
331.344	81
331.572	77
331.801	90
332.03	80
332.258	91
332.486	78
332.715	74
332.943	85
333.172	84
333.4	89
333.629	107
333.857	87
334.085	82
334.314	71
334.542	79
334.771	95
334.999	89
335.227	91
335.455	72
335.684	98
335.912	101
336.14	65
336.369	97
336.597	90
336.825	91
337.053	87
337.281	77
337.51	77
337.738	92
337.966	76
338.194	87
338.422	90
338.65	83
338.878	98
339.106	95
339.334	91
339.562	89
339.79	82
340.018	92
340.246	81
340.474	96
340.702	88
340.93	91
341.158	74
341.386	94
341.614	93
341.842	89
342.07	94
342.298	85
342.526	81
342.754	78
342.981	85
343.209	86
343.437	74
343.665	92
343.893	103
344.12	98
344.348	94
344.576	92
344.804	89
345.031	87
345.259	91
345.487	93
345.714	74
345.942	83
346.17	87
346.397	82
346.625	81
346.853	72
347.08	90
347.308	92
347.535	94
347.763	85
347.99	99
348.218	91
348.445	99
348.673	96
348.9	92
349.128	85
349.355	90
349.583	90
349.81	90
350.037	90
350.265	91
350.492	89
350.72	84
350.947	72
351.174	90
351.402	93
351.629	75
351.856	88
352.083	91
352.311	69
352.538	88
352.765	82
352.992	90
353.22	101
353.447	79
353.674	85
353.901	90
354.128	80
354.355	78
354.583	103
354.81	86
355.037	81
355.264	98
355.491	93
355.718	77
355.945	100
356.172	83
356.399	79
356.626	76
356.853	84
357.08	82
357.307	81
357.534	86
357.761	81
357.988	88
358.215	75
358.441	84
358.668	100
358.895	74
359.122	74
359.349	88
359.576	85
359.802	83
360.029	85
360.256	93
360.483	76
360.709	81
360.936	77
361.163	87
361.39	84
361.616	92
361.843	85
362.07	90
362.296	79
362.523	82
362.749	89
362.976	88
363.203	97
363.429	92
363.656	89
363.882	80
364.109	91
364.335	99
364.562	83
364.788	73
365.015	94
365.241	91
365.468	87
365.694	90
365.92	81
366.147	84
366.373	87
366.599	91
366.826	77
367.052	90
367.278	78
367.505	89
367.731	75
367.957	88
368.184	91
368.41	94
368.636	84
368.862	96
369.089	93
369.315	91
369.541	99
369.767	96
369.993	85
370.219	83
370.445	81
370.672	72
370.898	76
371.124	84
371.35	86
371.576	86
371.802	89
372.028	90
372.254	85
372.48	74
372.706	81
372.932	77
373.158	99
373.384	84
373.61	84
373.835	75
374.061	98
374.287	77
374.513	83
374.739	74
374.965	87
375.191	81
375.416	73
375.642	83
375.868	84
376.094	92
376.319	85
376.545	82
376.771	82
376.997	112
377.222	77
377.448	98
377.674	84
377.899	92
378.125	98
378.35	82
378.576	84
378.802	93
379.027	88
379.253	82
379.478	88
379.704	86
379.929	90
380.155	87
380.38	91
380.606	90
380.831	88
381.057	91
381.282	88
381.507	86
381.733	88
381.958	97
382.184	85
382.409	98
382.634	99
382.86	92
383.085	85
383.31	83
383.535	81
383.761	84
383.986	87
384.211	83
384.436	78
384.662	77
384.887	82
385.112	87
385.337	78
385.562	85
385.787	81
386.013	98
386.238	105
386.463	95
386.688	87
386.913	95
387.138	90
387.363	102
387.588	86
387.813	88
388.038	94
388.263	84
388.488	88
388.713	94
388.938	88
389.163	92
389.387	98
389.612	92
389.837	94
390.062	94
390.287	81
390.512	85
390.736	102
390.961	106
391.186	85
391.411	88
391.636	82
391.86	78
392.085	93
392.31	76
392.534	90
392.759	92
392.984	97
393.208	98
393.433	79
393.658	86
393.882	79
394.107	79
394.331	81
394.556	90
394.78	85
395.005	92
395.229	90
395.454	92
395.678	90
395.903	77
396.127	101
396.352	92
396.576	92
396.801	86
397.025	98
397.249	98
397.474	89
397.698	92
397.922	92
398.147	92
398.371	87
398.595	96
398.82	101
399.044	69
399.268	101
399.492	92
399.717	98
399.941	104
400.165	105
400.389	89
400.613	102
400.837	77
401.062	91
401.286	91
401.51	96
401.734	91
401.958	95
402.182	99
402.406	86
402.63	97
402.854	93
403.078	86
403.302	85
403.526	110
403.75	96
403.974	89
404.198	76
404.422	96
404.645	81
404.869	93
405.093	88
405.317	94
405.541	99
405.765	107
405.988	97
406.212	97
406.436	95
406.66	83
406.883	87
407.107	88
407.331	92
407.555	86
407.778	87
408.002	92
408.226	116
408.449	91
408.673	114
408.896	91
409.12	77
409.344	96
409.567	92
409.791	90
410.014	90
410.238	106
410.461	98
410.685	98
410.908	100
411.132	98
411.355	89
411.578	101
411.802	95
412.025	91
412.249	90
412.472	106
412.695	97
412.919	94
413.142	95
413.365	100
413.589	96
413.812	97
414.035	96
414.258	102
414.482	74
414.705	100
414.928	98
415.151	96
415.374	92
415.597	87
415.821	94
416.044	93
416.267	92
416.49	99
416.713	96
416.936	89
417.159	91
417.382	88
417.605	102
417.828	99
418.051	100
418.274	93
418.497	99
418.72	84
418.943	101
419.166	89
419.389	92
419.611	94
419.834	77
420.057	90
420.28	102
420.503	95
420.726	89
420.948	80
421.171	109
421.394	105
421.617	98
421.839	93
422.062	87
422.285	86
422.507	107
422.73	95
422.953	92
423.175	101
423.398	90
423.621	76
423.843	75
424.066	94
424.288	102
424.511	103
424.733	86
424.956	105
425.178	87
425.401	85
425.623	91
425.846	94
426.068	100
426.291	89
426.513	99
426.735	96
426.958	90
427.18	101
427.402	91
427.625	98
427.847	86
428.069	115
428.292	101
428.514	86
428.736	101
428.958	107
429.181	99
429.403	87
429.625	105
429.847	90
430.069	90
430.292	101
430.514	89
430.736	99
430.958	91
431.18	102
431.402	89
431.624	92
431.846	89
432.068	85
432.29	83
432.512	87
432.734	95
432.956	98
433.178	88
433.4	89
433.622	99
433.844	96
434.066	102
434.287	99
434.509	94
434.731	94
434.953	83
435.175	95
435.397	96
435.618	100
435.84	87
436.062	95
436.284	81
436.505	80
436.727	91
436.949	96
437.17	90
437.392	100
437.614	105
437.835	101
438.057	96
438.278	84
438.5	89
438.721	100
438.943	99
439.165	104
439.386	96
439.608	100
439.829	106
440.05	106
440.272	109
440.493	103
440.715	101
440.936	98
441.158	118
441.379	104
441.6	99
441.822	101
442.043	98
442.264	102
442.486	102
442.707	93
442.928	99
443.149	93
443.371	97
443.592	94
443.813	106
444.034	106
444.255	107
444.476	91
444.698	97
444.919	100
445.14	180
445.361	140
445.582	102
445.803	79
446.024	97
446.245	77
446.466	91
446.687	107
446.908	104
447.129	112
447.35	117
447.571	106
447.792	105
448.013	89
448.234	110
448.455	102
448.675	104
448.896	83
449.117	87
449.338	99
449.559	88
449.779	98
450	96
450.221	108
450.442	92
450.662	99
450.883	100
451.104	101
451.324	97
451.545	106
451.766	97
451.986	96
452.207	88
452.428	103
452.648	93
452.869	101
453.089	82
453.31	95
453.53	87
453.751	72
453.971	87
454.192	81
454.412	85
454.633	90
454.853	100
455.073	110
455.294	89
455.514	91
455.734	98
455.955	92
456.175	110
456.395	112
456.616	90
456.836	92
457.056	98
457.276	90
457.497	88
457.717	84
457.937	92
458.157	85
458.377	76
458.598	86
458.818	83
459.038	113
459.258	94
459.478	84
459.698	87
459.918	91
460.138	80
460.358	95
460.578	96
460.798	84
461.018	97
461.238	93
461.458	84
461.678	102
461.898	108
462.118	88
462.338	100
462.558	96
462.777	89
462.997	89
463.217	91
463.437	86
463.657	101
463.876	90
464.096	92
464.316	94
464.536	97
464.755	104
464.975	93
465.195	92
465.414	95
465.634	101
465.854	106
466.073	96
466.293	89
466.512	87
466.732	90
466.951	86
467.171	93
467.391	87
467.61	97
467.829	106
468.049	99
468.268	108
468.488	91
468.707	94
468.927	101
469.146	82
469.365	96
469.585	105
469.804	97
470.023	114
470.243	105
470.462	106
470.681	90
470.901	106
471.12	97
471.339	89
471.558	103
471.777	102
471.997	97
472.216	90
472.435	105
472.654	90
472.873	91
473.092	96
473.311	93
473.53	98
473.749	101
473.968	120
474.187	88
474.406	85
474.625	120
474.844	96
475.063	91
475.282	101
475.501	75
475.72	104
475.939	96
476.158	90
476.377	93
476.596	86
476.814	99
477.033	92
477.252	100
477.471	87
477.69	78
477.908	96
478.127	101
478.346	92
478.564	99
478.783	78
479.002	107
479.22	100
479.439	91
479.658	96
479.876	97
480.095	100
480.313	92
480.532	90
480.751	105
480.969	98
481.188	87
481.406	90
481.624	86
481.843	99
482.061	98
482.28	93
482.498	85
482.717	82
482.935	105
483.153	85
483.372	109
483.59	102
483.808	126
484.027	89
484.245	94
484.463	96
484.681	106
484.9	104
485.118	101
485.336	102
485.554	96
485.772	81
485.99	94
486.209	83
486.427	91
486.645	105
486.863	101
487.081	101
487.299	103
487.517	109
487.735	99
487.953	114
488.171	109
488.389	109
488.607	103
488.825	104
489.043	103
489.261	96
489.479	95
489.696	109
489.914	101
490.132	109
490.35	105
490.568	103
490.786	119
491.003	100
491.221	113
491.439	120
491.657	116
491.874	133
492.092	122
492.31	133
492.527	135
492.745	118
492.963	112
493.18	105
493.398	126
493.615	109
493.833	111
494.05	106
494.268	106
494.485	114
494.703	116
494.92	112
495.138	121
495.355	118
495.573	104
495.79	110
496.008	107
496.225	113
496.442	105
496.66	108
496.877	94
497.094	129
497.312	112
497.529	118
497.746	105
497.963	103
498.181	96
498.398	87
498.615	96
498.832	107
499.049	106
499.267	88
499.484	100
499.701	92
499.918	115
500.135	93
500.352	108
500.569	109
500.786	94
501.003	101
501.22	92
501.437	115
501.654	89
501.871	86
502.088	107
502.305	122
502.522	96
502.739	110
502.956	112
503.172	108
503.389	99
503.606	87
503.823	98
504.04	107
504.256	87
504.473	93
504.69	82
504.907	100
505.123	94
505.34	82
505.557	83
505.773	92
505.99	100
506.207	91
506.423	112
506.64	89
506.856	100
507.073	91
507.289	87
507.506	91
507.722	88
507.939	96
508.155	99
508.372	92
508.588	88
508.805	87
509.021	102
509.238	74
509.454	93
509.67	103
509.887	96
510.103	84
510.319	86
510.536	89
510.752	80
510.968	88
511.184	91
511.401	86
511.617	76
511.833	82
512.049	90
512.265	88
512.481	88
512.698	88
512.914	88
513.13	100
513.346	94
513.562	80
513.778	90
513.994	74
514.21	77
514.426	77
514.642	88
514.858	85
515.074	79
515.29	84
515.506	84
515.721	69
515.937	97
516.153	87
516.369	94
516.585	80
516.801	79
517.016	90
517.232	83
517.448	100
517.664	95
517.879	87
518.095	87
518.311	88
518.527	80
518.742	93
518.958	84
519.173	104
519.389	98
519.605	89
519.82	87
520.036	94
520.251	84
520.467	91
520.682	89
520.898	75
521.113	90
521.329	95
521.544	82
521.76	89
521.975	94
522.19	85
522.406	98
522.621	86
522.836	62
523.052	90
523.267	96
523.482	79
523.698	108
523.913	97
524.128	77
524.343	83
524.559	114
524.774	94
524.989	92
525.204	99
525.419	98
525.634	92
525.849	82
526.064	92
526.28	85
526.495	84
526.71	100
526.925	91
527.14	87
527.355	93
527.57	87
527.785	90
527.999	85
528.214	84
528.429	90
528.644	92
528.859	93
529.074	82
529.289	99
529.503	105
529.718	96
529.933	93
530.148	102
530.363	80
530.577	87
530.792	78
531.007	77
531.221	87
531.436	74
531.651	89
531.865	80
532.08	84
532.295	89
532.509	84
532.724	92
532.938	85
533.153	100
533.367	92
533.582	103
533.796	106
534.011	93
534.225	98
534.44	87
534.654	77
534.868	96
535.083	87
535.297	78
535.511	92
535.726	96
535.94	101
536.154	103
536.369	91
536.583	83
536.797	84
537.011	78
537.225	96
537.44	94
537.654	71
537.868	82
538.082	88
538.296	95
538.51	101
538.724	101
538.938	97
539.153	93
539.367	103
539.581	90
539.795	79
540.009	84
540.222	87
540.436	92
540.65	99
540.864	94
541.078	109
541.292	110
541.506	112
541.72	113
541.934	128
542.147	119
542.361	105
542.575	100
542.789	96
543.002	96
543.216	101
543.43	98
543.644	101
543.857	112
544.071	101
544.285	121
544.498	128
544.712	112
544.925	114
545.139	124
545.352	107
545.566	112
545.779	98
545.993	112
546.206	99
546.42	108
546.633	108
546.847	114
547.06	104
547.274	107
547.487	117
547.7	108
547.914	114
548.127	115
548.34	107
548.554	109
548.767	99
548.98	104
549.193	84
549.407	114
549.62	116
549.833	114
550.046	118
550.259	115
550.473	97
550.686	116
550.899	106
551.112	104
551.325	106
551.538	102
551.751	98
551.964	98
552.177	90
552.39	96
552.603	112
552.816	80
553.029	114
553.242	108
553.455	113
553.667	104
553.88	104
554.093	106
554.306	104
554.519	106
554.732	109
554.944	106
555.157	92
555.37	95
555.583	117
555.795	101
556.008	103
556.221	101
556.433	95
556.646	96
556.859	96
557.071	97
557.284	112
557.496	101
557.709	100
557.921	96
558.134	100
558.346	97
558.559	102
558.771	108
558.984	91
559.196	94
559.409	102
559.621	112
559.833	99
560.046	86
560.258	91
560.47	90
560.683	106
560.895	95
561.107	99
561.32	114
561.532	92
561.744	116
561.956	102
562.168	100
562.381	96
562.593	89
562.805	99
563.017	98
563.229	105
563.441	101
563.653	91
563.865	90
564.077	107
564.289	95
564.501	104
564.713	92
564.925	94
565.137	87
565.349	89
565.561	112
565.773	90
565.985	104
566.197	101
566.408	101
566.62	86
566.832	93
567.044	84
567.255	107
567.467	92
567.679	103
567.891	93
568.102	96
568.314	91
568.526	85
568.737	101
568.949	85
569.161	97
569.372	92
569.584	92
569.795	87
570.007	85
570.218	100
570.43	94
570.641	78
570.853	77
571.064	89
571.276	82
571.487	85
571.698	97
571.91	82
572.121	100
572.333	93
572.544	103
572.755	75
572.966	87
573.178	70
573.389	88
573.6	82
573.811	96
574.023	92
574.234	97
574.445	91
574.656	80
574.867	91
575.078	78
575.289	98
575.501	86
575.712	101
575.923	82
576.134	92
576.345	83
576.556	94
576.767	93
576.978	97
577.188	88
577.399	99
577.61	94
577.821	78
578.032	92
578.243	88
578.454	83
578.665	79
578.875	84
579.086	82
579.297	87
579.508	96
579.718	93
579.929	89
580.14	88
580.35	93
580.561	91
580.772	85
580.982	90
581.193	91
581.403	85
581.614	83
581.825	76
582.035	82
582.246	88
582.456	92
582.667	87
582.877	67
583.087	85
583.298	82
583.508	90
583.719	89
583.929	81
584.139	87
584.35	76
584.56	84
584.77	84
584.981	104
585.191	91
585.401	90
585.611	106
585.821	95
586.032	95
586.242	89
586.452	80
586.662	86
586.872	83
587.082	92
587.292	102
587.502	88
587.713	82
587.923	77
588.133	87
588.343	97
588.553	84
588.762	69
588.972	100
589.182	87
589.392	86
589.602	91
589.812	89
590.022	88
590.232	102
590.441	77
590.651	81
590.861	94
591.071	77
591.281	93
591.49	95
591.7	93
591.91	83
592.119	93
592.329	77
592.539	86
592.748	92
592.958	87
593.167	91
593.377	92
593.587	92
593.796	92
594.006	85
594.215	96
594.424	94
594.634	91
594.843	86
595.053	103
595.262	84
595.472	71
595.681	89
595.89	81
596.1	90
596.309	84
596.518	85
596.727	99
596.937	88
597.146	93
597.355	90
597.564	77
597.774	95
597.983	91
598.192	91
598.401	84
598.61	80
598.819	94
599.028	83
599.237	90
599.446	81
599.655	75
599.864	78
600.073	99
600.282	91
600.491	84
600.7	96
600.909	97
601.118	75
601.327	79
601.536	80
601.745	93
601.953	90
602.162	83
602.371	89
602.58	102
602.789	99
602.997	94
603.206	96
603.415	88
603.623	94
603.832	93
604.041	94
604.249	99
604.458	76
604.666	84
604.875	92
605.084	81
605.292	85
605.501	98
605.709	85
605.918	91
606.126	103
606.334	108
606.543	96
606.751	89
606.96	94
607.168	87
607.376	76
607.585	101
607.793	90
608.001	86
608.21	90
608.418	87
608.626	92
608.834	117
609.043	91
609.251	100
609.459	89
609.667	99
609.875	100
610.083	100
610.291	102
610.499	93
610.707	92
610.916	103
611.124	99
611.332	103
611.54	100
611.748	84
611.955	105
612.163	87
612.371	112
612.579	100
612.787	76
612.995	99
613.203	84
613.411	94
613.618	97
613.826	100
614.034	105
614.242	101
614.449	91
614.657	98
614.865	114
615.072	83
615.28	93
615.488	85
615.695	85
615.903	100
616.111	88
616.318	89
616.526	91
616.733	104
616.941	86
617.148	100
617.356	96
617.563	95
617.771	85
617.978	85
618.185	89
618.393	82
618.6	88
618.807	77
619.015	88
619.222	96
619.429	98
619.637	96
619.844	84
620.051	89
620.258	89
620.466	95
620.673	88
620.88	92
621.087	94
621.294	102
621.501	86
621.708	104
621.915	99
622.122	92
622.329	93
622.536	94
622.743	86
622.95	86
623.157	85
623.364	92
623.571	84
623.778	98
623.985	98
624.192	89
624.399	92
624.606	88
624.812	92
625.019	93
625.226	87
625.433	86
625.639	87
625.846	75
626.053	78
626.259	98
626.466	81
626.673	76
626.879	93
627.086	90
627.293	77
627.499	90
627.706	104
627.912	99
628.119	98
628.325	95
628.532	77
628.738	90
628.945	89
629.151	91
629.357	87
629.564	104
629.77	91
629.976	96
630.183	99
630.389	92
630.595	81
630.802	96
631.008	91
631.214	86
631.42	102
631.627	94
631.833	90
632.039	81
632.245	93
632.451	85
632.657	100
632.863	94
633.069	83
633.275	97
633.481	89
633.688	79
633.893	93
634.099	76
634.305	82
634.511	93
634.717	104
634.923	91
635.129	74
635.335	94
635.541	93
635.747	90
635.952	86
636.158	90
636.364	107
636.57	89
636.775	95
636.981	91
637.187	89
637.392	98
637.598	79
637.804	98
638.009	106
638.215	85
638.421	95
638.626	90
638.832	78
639.037	90
639.243	101
639.448	87
639.654	108
639.859	90
640.065	78
640.27	85
640.475	86
640.681	76
640.886	88
641.091	91
641.297	93
641.502	95
641.707	89
641.913	89
642.118	86
642.323	90
642.528	88
642.733	105
642.939	90
643.144	84
643.349	82
643.554	89
643.759	75
643.964	91
644.169	104
644.374	85
644.579	87
644.784	92
644.989	92
645.194	83
645.399	98
645.604	96
645.809	80
646.014	84
646.219	73
646.423	98
646.628	98
646.833	103
647.038	83
647.243	86
647.447	80
647.652	84
647.857	95
648.062	99
648.266	101
648.471	92
648.676	90
648.88	77
649.085	77
649.289	87
649.494	71
649.698	84
649.903	89
650.107	84
650.312	97
650.516	77
650.721	97
650.925	95
651.13	73
651.334	82
651.539	78
651.743	71
651.947	90
652.152	97
652.356	70
652.56	85
652.764	100
652.969	78
653.173	103
653.377	85
653.581	90
653.785	93
653.99	80
654.194	88
654.398	92
654.602	89
654.806	92
655.01	82
655.214	84
655.418	91
655.622	87
655.826	75
656.03	89
656.234	91
656.438	89
656.642	82
656.846	74
657.049	75
657.253	79
657.457	76
657.661	85
657.865	90
658.068	94
658.272	84
658.476	83
658.68	79
658.883	82
659.087	82
659.291	78
659.494	64
659.698	83
659.901	88
660.105	71
660.309	95
660.512	86
660.716	84
660.919	80
661.123	77
661.326	78
661.53	81
661.733	90
661.936	70
662.14	86
662.343	82
662.546	64
662.75	91
662.953	89
663.156	94
663.36	79
663.563	87
663.766	72
663.969	84
664.173	82
664.376	87
664.579	78
664.782	86
664.985	83
665.188	78
665.391	95
665.594	76
665.797	90
666	80
666.203	92
666.406	88
666.609	88
666.812	86
667.015	81
667.218	88
667.421	76
667.624	76
667.827	82
668.03	95
668.232	85
668.435	95
668.638	87
668.841	90
669.043	99
669.246	79
669.449	81
669.651	85
669.854	72
670.057	90
670.259	82
670.462	86
670.665	88
670.867	93
671.07	96
671.272	99
671.475	92
671.677	76
671.88	88
672.082	84
672.284	86
672.487	90
672.689	86
672.892	78
