Data from Location4.07152019.Energy5.Lamp.07192019.3%Agarose_HRD10591_15-23-06-576.txt Node
Date: Fri Jul 19 15:23:06 EDT 2019
User: cochatt
Spectrometer: HR+D1059
Trigger mode: 1
Integration Time (sec): 1.000000E-1
Scans to average: 1
Electric dark correction enabled: true
Nonlinearity correction enabled: false
Boxcar width: 0
XAxis mode: Wavelengths
Number of Pixels in Spectrum: 2048
>>>>>Begin Spectral Data<<<<<
223.165	-15
223.4	-15
223.635	-15
223.869	-11
224.104	-17
224.338	-1
224.573	-12
224.808	-20
225.042	-11
225.277	-2
225.511	-7
225.746	9
225.98	-6
226.215	-2
226.449	17
226.683	22
226.918	25
227.152	31
227.387	22
227.621	38
227.856	38
228.09	41
228.324	56
228.559	58
228.793	57
229.027	68
229.262	63
229.496	54
229.73	78
229.964	81
230.199	74
230.433	83
230.667	74
230.901	78
231.136	66
231.37	69
231.604	77
231.838	73
232.072	83
232.306	75
232.541	69
232.775	70
233.009	83
233.243	88
233.477	74
233.711	89
233.945	77
234.179	72
234.413	85
234.647	81
234.881	81
235.115	88
235.349	69
235.583	74
235.817	77
236.051	81
236.285	77
236.519	78
236.753	72
236.987	63
237.221	82
237.455	78
237.689	78
237.922	79
238.156	75
238.39	87
238.624	69
238.858	79
239.091	77
239.325	99
239.559	74
239.793	83
240.027	85
240.26	85
240.494	59
240.728	88
240.961	76
241.195	74
241.429	88
241.662	86
241.896	80
242.13	63
242.363	71
242.597	70
242.83	72
243.064	78
243.298	71
243.531	82
243.765	76
243.998	73
244.232	59
244.465	94
244.699	81
244.932	70
245.166	81
245.399	86
245.633	81
245.866	68
246.099	59
246.333	80
246.566	82
246.8	64
247.033	71
247.266	81
247.5	72
247.733	80
247.966	78
248.2	99
248.433	83
248.666	75
248.899	86
249.133	86
249.366	90
249.599	97
249.832	70
250.066	64
250.299	70
250.532	58
250.765	81
250.998	75
251.231	70
251.465	68
251.698	62
251.931	85
252.164	78
252.397	91
252.63	74
252.863	74
253.096	76
253.329	91
253.562	74
253.795	90
254.028	72
254.261	79
254.494	75
254.727	81
254.96	72
255.193	81
255.426	79
255.659	90
255.892	69
256.124	85
256.357	73
256.59	77
256.823	71
257.056	69
257.289	87
257.521	90
257.754	72
257.987	90
258.22	94
258.452	79
258.685	84
258.918	81
259.151	68
259.383	85
259.616	85
259.849	86
260.081	79
260.314	82
260.547	72
260.779	78
261.012	77
261.244	70
261.477	80
261.71	97
261.942	87
262.175	90
262.407	82
262.64	87
262.872	84
263.105	78
263.337	89
263.57	72
263.802	68
264.035	78
264.267	73
264.499	89
264.732	82
264.964	78
265.197	83
265.429	70
265.661	85
265.894	81
266.126	76
266.358	81
266.591	82
266.823	78
267.055	84
267.287	87
267.52	91
267.752	87
267.984	87
268.216	85
268.448	97
268.681	80
268.913	90
269.145	68
269.377	70
269.609	77
269.841	88
270.073	91
270.306	100
270.538	84
270.77	78
271.002	61
271.234	83
271.466	81
271.698	89
271.93	73
272.162	92
272.394	86
272.626	69
272.858	83
273.09	80
273.322	93
273.553	84
273.785	87
274.017	89
274.249	80
274.481	71
274.713	68
274.945	73
275.176	88
275.408	81
275.64	67
275.872	84
276.104	91
276.335	79
276.567	72
276.799	72
277.031	82
277.262	81
277.494	72
277.726	78
277.957	82
278.189	87
278.421	85
278.652	88
278.884	88
279.115	80
279.347	71
279.579	61
279.81	84
280.042	83
280.273	94
280.505	89
280.736	92
280.968	91
281.199	83
281.431	88
281.662	84
281.894	89
282.125	73
282.356	82
282.588	77
282.819	88
283.051	94
283.282	88
283.513	82
283.745	88
283.976	78
284.207	89
284.439	90
284.67	92
284.901	73
285.132	78
285.364	75
285.595	93
285.826	80
286.057	89
286.288	94
286.52	72
286.751	75
286.982	83
287.213	88
287.444	83
287.675	83
287.906	79
288.138	77
288.369	81
288.6	90
288.831	83
289.062	96
289.293	85
289.524	84
289.755	94
289.986	82
290.217	68
290.448	87
290.679	96
290.91	85
291.141	82
291.371	88
291.602	89
291.833	101
292.064	94
292.295	81
292.526	91
292.757	76
292.987	88
293.218	88
293.449	80
293.68	78
293.91	86
294.141	82
294.372	96
294.603	92
294.833	82
295.064	80
295.295	85
295.525	74
295.756	87
295.987	88
296.217	85
296.448	84
296.679	88
296.909	69
297.14	82
297.37	85
297.601	97
297.831	82
298.062	81
298.292	82
298.523	92
298.753	95
298.984	83
299.214	87
299.445	91
299.675	93
299.905	78
300.136	76
300.366	81
300.597	72
300.827	87
301.057	91
301.288	94
301.518	94
301.748	89
301.979	91
302.209	80
302.439	82
302.669	81
302.9	85
303.13	85
303.36	81
303.59	80
303.82	90
304.051	81
304.281	81
304.511	84
304.741	88
304.971	84
305.201	79
305.431	80
305.661	78
305.891	84
306.121	84
306.352	83
306.582	93
306.812	78
307.042	85
307.272	81
307.502	86
307.731	88
307.961	76
308.191	95
308.421	70
308.651	79
308.881	78
309.111	83
309.341	88
309.571	85
309.8	84
310.03	90
310.26	93
310.49	96
310.72	86
310.949	85
311.179	94
311.409	61
311.639	75
311.868	84
312.098	81
312.328	94
312.557	84
312.787	77
313.017	93
313.246	90
313.476	80
313.706	86
313.935	76
314.165	79
314.394	66
314.624	73
314.853	84
315.083	74
315.312	77
315.542	79
315.771	85
316.001	69
316.23	79
316.46	81
316.689	88
316.919	79
317.148	92
317.377	87
317.607	88
317.836	93
318.065	92
318.295	77
318.524	91
318.753	67
318.983	83
319.212	82
319.441	89
319.67	86
319.9	85
320.129	92
320.358	91
320.587	73
320.816	83
321.046	77
321.275	79
321.504	86
321.733	93
321.962	96
322.191	90
322.42	77
322.649	93
322.878	87
323.108	86
323.337	81
323.566	88
323.795	79
324.024	86
324.253	73
324.482	86
324.71	81
324.939	85
325.168	74
325.397	83
325.626	71
325.855	80
326.084	90
326.313	94
326.542	89
326.77	82
326.999	93
327.228	75
327.457	80
327.686	95
327.914	81
328.143	84
328.372	84
328.6	73
328.829	73
329.058	74
329.287	72
329.515	68
329.744	98
329.972	78
330.201	84
330.43	76
330.658	91
330.887	99
331.115	82
331.344	84
331.572	84
331.801	102
332.03	88
332.258	84
332.486	86
332.715	81
332.943	74
333.172	91
333.4	81
333.629	91
333.857	74
334.085	89
334.314	83
334.542	89
334.771	73
334.999	81
335.227	79
335.455	85
335.684	88
335.912	86
336.14	78
336.369	72
336.597	81
336.825	83
337.053	89
337.281	79
337.51	84
337.738	85
337.966	80
338.194	77
338.422	87
338.65	68
338.878	80
339.106	88
339.334	78
339.562	80
339.79	82
340.018	91
340.246	83
340.474	78
340.702	69
340.93	86
341.158	84
341.386	84
341.614	82
341.842	85
342.07	77
342.298	80
342.526	80
342.754	93
342.981	61
343.209	85
343.437	81
343.665	75
343.893	83
344.12	93
344.348	72
344.576	86
344.804	80
345.031	90
345.259	95
345.487	91
345.714	78
345.942	81
346.17	79
346.397	90
346.625	92
346.853	88
347.08	85
347.308	79
347.535	79
347.763	89
347.99	101
348.218	91
348.445	80
348.673	91
348.9	96
349.128	79
349.355	69
349.583	74
349.81	85
350.037	79
350.265	78
350.492	82
350.72	74
350.947	75
351.174	81
351.402	85
351.629	91
351.856	88
352.083	67
352.311	78
352.538	79
352.765	85
352.992	87
353.22	87
353.447	76
353.674	77
353.901	82
354.128	76
354.355	97
354.583	85
354.81	80
355.037	88
355.264	86
355.491	84
355.718	86
355.945	86
356.172	82
356.399	93
356.626	95
356.853	69
357.08	84
357.307	91
357.534	77
357.761	87
357.988	78
358.215	76
358.441	89
358.668	85
358.895	80
359.122	69
359.349	70
359.576	100
359.802	78
360.029	75
360.256	88
360.483	81
360.709	95
360.936	87
361.163	84
361.39	90
361.616	85
361.843	77
362.07	74
362.296	89
362.523	80
362.749	81
362.976	75
363.203	97
363.429	70
363.656	79
363.882	81
364.109	87
364.335	80
364.562	90
364.788	67
365.015	72
365.241	84
365.468	85
365.694	90
365.92	96
366.147	80
366.373	79
366.599	72
366.826	97
367.052	96
367.278	100
367.505	87
367.731	92
367.957	82
368.184	89
368.41	89
368.636	88
368.862	93
369.089	81
369.315	89
369.541	92
369.767	79
369.993	84
370.219	85
370.445	99
370.672	88
370.898	91
371.124	85
371.35	78
371.576	79
371.802	88
372.028	79
372.254	88
372.48	74
372.706	71
372.932	84
373.158	89
373.384	86
373.61	94
373.835	94
374.061	93
374.287	92
374.513	80
374.739	99
374.965	95
375.191	90
375.416	76
375.642	90
375.868	84
376.094	91
376.319	75
376.545	85
376.771	81
376.997	90
377.222	81
377.448	87
377.674	81
377.899	83
378.125	87
378.35	77
378.576	72
378.802	83
379.027	76
379.253	72
379.478	99
379.704	85
379.929	95
380.155	77
380.38	84
380.606	82
380.831	85
381.057	99
381.282	79
381.507	90
381.733	91
381.958	91
382.184	81
382.409	97
382.634	88
382.86	78
383.085	83
383.31	96
383.535	89
383.761	79
383.986	82
384.211	83
384.436	102
384.662	71
384.887	88
385.112	82
385.337	76
385.562	89
385.787	83
386.013	78
386.238	82
386.463	91
386.688	88
386.913	74
387.138	78
387.363	84
387.588	79
387.813	87
388.038	92
388.263	90
388.488	93
388.713	88
388.938	69
389.163	75
389.387	82
389.612	87
389.837	76
390.062	85
390.287	78
390.512	83
390.736	93
390.961	74
391.186	93
391.411	89
391.636	83
391.86	73
392.085	79
392.31	88
392.534	89
392.759	86
392.984	86
393.208	84
393.433	83
393.658	110
393.882	102
394.107	90
394.331	86
394.556	83
394.78	85
395.005	89
395.229	90
395.454	86
395.678	85
395.903	96
396.127	81
396.352	72
396.576	89
396.801	95
397.025	85
397.249	74
397.474	93
397.698	90
397.922	91
398.147	106
398.371	102
398.595	83
398.82	75
399.044	81
399.268	96
399.492	91
399.717	103
399.941	96
400.165	86
400.389	84
400.613	95
400.837	66
401.062	81
401.286	96
401.51	83
401.734	90
401.958	88
402.182	97
402.406	80
402.63	85
402.854	80
403.078	82
403.302	74
403.526	94
403.75	99
403.974	88
404.198	82
404.422	98
404.645	102
404.869	95
405.093	80
405.317	84
405.541	100
405.765	83
405.988	76
406.212	97
406.436	87
406.66	91
406.883	84
407.107	95
407.331	89
407.555	89
407.778	93
408.002	79
408.226	93
408.449	87
408.673	92
408.896	88
409.12	90
409.344	92
409.567	91
409.791	96
410.014	81
410.238	95
410.461	91
410.685	87
410.908	80
411.132	87
411.355	83
411.578	97
411.802	86
412.025	89
412.249	86
412.472	74
412.695	107
412.919	101
413.142	92
413.365	82
413.589	92
413.812	81
414.035	92
414.258	101
414.482	101
414.705	94
414.928	90
415.151	95
415.374	78
415.597	87
415.821	94
416.044	101
416.267	90
416.49	91
416.713	76
416.936	105
417.159	99
417.382	106
417.605	119
417.828	102
418.051	97
418.274	102
418.497	84
418.72	97
418.943	94
419.166	88
419.389	110
419.611	94
419.834	101
420.057	98
420.28	83
420.503	82
420.726	89
420.948	85
421.171	95
421.394	81
421.617	87
421.839	97
422.062	84
422.285	98
422.507	105
422.73	111
422.953	77
423.175	109
423.398	107
423.621	102
423.843	105
424.066	111
424.288	98
424.511	111
424.733	94
424.956	98
425.178	86
425.401	103
425.623	94
425.846	83
426.068	110
426.291	82
426.513	104
426.735	100
426.958	98
427.18	105
427.402	95
427.625	95
427.847	92
428.069	101
428.292	94
428.514	109
428.736	98
428.958	84
429.181	95
429.403	102
429.625	90
429.847	93
430.069	98
430.292	92
430.514	106
430.736	104
430.958	102
431.18	86
431.402	88
431.624	73
431.846	85
432.068	79
432.29	82
432.512	84
432.734	83
432.956	102
433.178	90
433.4	93
433.622	97
433.844	96
434.066	92
434.287	77
434.509	86
434.731	85
434.953	77
435.175	88
435.397	78
435.618	83
435.84	74
436.062	81
436.284	70
436.505	90
436.727	98
436.949	103
437.17	81
437.392	77
437.614	83
437.835	82
438.057	81
438.278	86
438.5	99
438.721	101
438.943	101
439.165	94
439.386	97
439.608	111
439.829	103
440.05	95
440.272	102
440.493	87
440.715	105
440.936	93
441.158	89
441.379	97
441.6	84
441.822	101
442.043	95
442.264	101
442.486	98
442.707	90
442.928	89
443.149	86
443.371	97
443.592	78
443.813	91
444.034	92
444.255	93
444.476	86
444.698	82
444.919	98
445.14	179
445.361	137
445.582	89
445.803	109
446.024	104
446.245	99
446.466	100
446.687	103
446.908	94
447.129	95
447.35	78
447.571	112
447.792	93
448.013	92
448.234	101
448.455	109
448.675	97
448.896	102
449.117	100
449.338	87
449.559	96
449.779	83
450	76
450.221	80
450.442	98
450.662	109
450.883	103
451.104	102
451.324	97
451.545	90
451.766	93
451.986	103
452.207	84
452.428	86
452.648	75
452.869	80
453.089	95
453.31	94
453.53	89
453.751	83
453.971	92
454.192	96
454.412	98
454.633	95
454.853	98
455.073	85
455.294	104
455.514	90
455.734	83
455.955	102
456.175	88
456.395	83
456.616	83
456.836	86
457.056	86
457.276	90
457.497	80
457.717	94
457.937	96
458.157	93
458.377	95
458.598	79
458.818	91
459.038	80
459.258	83
459.478	93
459.698	84
459.918	96
460.138	78
460.358	99
460.578	94
460.798	94
461.018	90
461.238	111
461.458	93
461.678	89
461.898	107
462.118	95
462.338	94
462.558	75
462.777	92
462.997	81
463.217	72
463.437	88
463.657	83
463.876	88
464.096	91
464.316	84
464.536	77
464.755	91
464.975	86
465.195	96
465.414	84
465.634	105
465.854	94
466.073	82
466.293	76
466.512	102
466.732	102
466.951	102
467.171	90
467.391	98
467.61	90
467.829	86
468.049	87
468.268	100
468.488	87
468.707	102
468.927	94
469.146	96
469.365	89
469.585	114
469.804	109
470.023	99
470.243	97
470.462	108
470.681	99
470.901	109
471.12	106
471.339	97
471.558	96
471.777	94
471.997	77
472.216	94
472.435	89
472.654	90
472.873	93
473.092	86
473.311	90
473.53	95
473.749	93
473.968	95
474.187	103
474.406	89
474.625	105
474.844	98
475.063	97
475.282	108
475.501	87
475.72	85
475.939	83
476.158	82
476.377	99
476.596	82
476.814	92
477.033	95
477.252	91
477.471	81
477.69	92
477.908	94
478.127	89
478.346	102
478.564	89
478.783	96
479.002	98
479.22	98
479.439	94
479.658	103
479.876	76
480.095	87
480.313	88
480.532	84
480.751	86
480.969	93
481.188	84
481.406	75
481.624	73
481.843	86
482.061	82
482.28	95
482.498	91
482.717	84
482.935	100
483.153	113
483.372	98
483.59	106
483.808	104
484.027	102
484.245	89
484.463	96
484.681	109
484.9	99
485.118	89
485.336	76
485.554	83
485.772	84
485.99	84
486.209	99
486.427	73
486.645	95
486.863	100
487.081	87
487.299	88
487.517	100
487.735	96
487.953	114
488.171	115
488.389	104
488.607	98
488.825	102
489.043	95
489.261	91
489.479	93
489.696	99
489.914	105
490.132	90
490.35	100
490.568	106
490.786	115
491.003	120
491.221	107
491.439	105
491.657	126
491.874	136
492.092	125
492.31	134
492.527	128
492.745	99
492.963	125
493.18	104
493.398	108
493.615	123
493.833	105
494.05	106
494.268	119
494.485	110
494.703	102
494.92	98
495.138	105
495.355	111
495.573	111
495.79	100
496.008	101
496.225	98
496.442	110
496.66	109
496.877	99
497.094	100
497.312	109
497.529	112
497.746	102
497.963	109
498.181	113
498.398	98
498.615	96
498.832	97
499.049	72
499.267	84
499.484	88
499.701	99
499.918	104
500.135	92
500.352	98
500.569	102
500.786	114
501.003	91
501.22	95
501.437	89
501.654	88
501.871	82
502.088	87
502.305	87
502.522	99
502.739	94
502.956	85
503.172	91
503.389	85
503.606	96
503.823	97
504.04	102
504.256	103
504.473	92
504.69	101
504.907	113
505.123	98
505.34	99
505.557	92
505.773	100
505.99	110
506.207	92
506.423	90
506.64	99
506.856	98
507.073	100
507.289	89
507.506	88
507.722	76
507.939	81
508.155	98
508.372	96
508.588	82
508.805	98
509.021	85
509.238	86
509.454	90
509.67	84
509.887	83
510.103	81
510.319	87
510.536	92
510.752	91
510.968	81
511.184	85
511.401	74
511.617	83
511.833	88
512.049	86
512.265	81
512.481	81
512.698	96
512.914	97
513.13	96
513.346	89
513.562	93
513.778	83
513.994	83
514.21	84
514.426	93
514.642	83
514.858	96
515.074	82
515.29	82
515.506	86
515.721	79
515.937	79
516.153	74
516.369	64
516.585	74
516.801	88
517.016	82
517.232	72
517.448	105
517.664	71
517.879	79
518.095	87
518.311	86
518.527	85
518.742	84
518.958	87
519.173	92
519.389	96
519.605	90
519.82	87
520.036	80
520.251	86
520.467	87
520.682	86
520.898	89
521.113	83
521.329	89
521.544	85
521.76	79
521.975	100
522.19	85
522.406	91
522.621	83
522.836	85
523.052	97
523.267	97
523.482	86
523.698	93
523.913	85
524.128	95
524.343	91
524.559	103
524.774	68
524.989	91
525.204	91
525.419	90
525.634	83
525.849	82
526.064	81
526.28	80
526.495	81
526.71	88
526.925	83
527.14	79
527.355	79
527.57	78
527.785	95
527.999	93
528.214	96
528.429	98
528.644	95
528.859	97
529.074	111
529.289	94
529.503	103
529.718	102
529.933	98
530.148	90
530.363	88
530.577	83
530.792	87
531.007	81
531.221	85
531.436	82
531.651	93
531.865	81
532.08	91
532.295	85
532.509	85
532.724	76
532.938	88
533.153	86
533.367	101
533.582	91
533.796	94
534.011	95
534.225	91
534.44	74
534.654	90
534.868	84
535.083	78
535.297	99
535.511	75
535.726	79
535.94	93
536.154	79
536.369	91
536.583	74
536.797	81
537.011	82
537.225	93
537.44	84
537.654	86
537.868	85
538.082	85
538.296	81
538.51	87
538.724	99
538.938	81
539.153	102
539.367	86
539.581	82
539.795	68
540.009	93
540.222	98
540.436	86
540.65	109
540.864	107
541.078	89
541.292	109
541.506	118
541.72	118
541.934	129
542.147	119
542.361	119
542.575	104
542.789	99
543.002	84
543.216	102
543.43	95
543.644	87
543.857	101
544.071	98
544.285	108
544.498	123
544.712	104
544.925	104
545.139	113
545.352	104
545.566	102
545.779	110
545.993	106
546.206	106
546.42	112
546.633	116
546.847	120
547.06	91
547.274	107
547.487	121
547.7	108
547.914	102
548.127	115
548.34	114
548.554	101
548.767	106
548.98	109
549.193	99
549.407	109
549.62	100
549.833	113
550.046	116
550.259	108
550.473	117
550.686	113
550.899	112
551.112	113
551.325	95
551.538	99
551.751	94
551.964	75
552.177	90
552.39	91
552.603	101
552.816	95
553.029	112
553.242	97
553.455	109
553.667	114
553.88	106
554.093	102
554.306	96
554.519	100
554.732	102
554.944	95
555.157	103
555.37	113
555.583	108
555.795	90
556.008	104
556.221	97
556.433	104
556.646	102
556.859	82
557.071	94
557.284	106
557.496	102
557.709	95
557.921	101
558.134	102
558.346	109
558.559	96
558.771	99
558.984	93
559.196	96
559.409	101
559.621	83
559.833	90
560.046	94
560.258	91
560.47	100
560.683	110
560.895	87
561.107	95
561.32	96
561.532	94
561.744	97
561.956	96
562.168	97
562.381	102
562.593	101
562.805	99
563.017	85
563.229	93
563.441	95
563.653	94
563.865	90
564.077	102
564.289	99
564.501	93
564.713	85
564.925	100
565.137	111
565.349	93
565.561	94
565.773	90
565.985	89
566.197	104
566.408	95
566.62	96
566.832	89
567.044	100
567.255	99
567.467	92
567.679	79
567.891	92
568.102	93
568.314	93
568.526	93
568.737	82
568.949	70
569.161	69
569.372	89
569.584	83
569.795	89
570.007	78
570.218	85
570.43	77
570.641	85
570.853	79
571.064	91
571.276	86
571.487	89
571.698	86
571.91	93
572.121	101
572.333	97
572.544	99
572.755	88
572.966	82
573.178	85
573.389	88
573.6	78
573.811	76
574.023	87
574.234	88
574.445	85
574.656	77
574.867	82
575.078	86
575.289	99
575.501	85
575.712	84
575.923	90
576.134	96
576.345	81
576.556	76
576.767	96
576.978	98
577.188	94
577.399	111
577.61	80
577.821	82
578.032	86
578.243	86
578.454	71
578.665	70
578.875	77
579.086	84
579.297	86
579.508	93
579.718	92
579.929	70
580.14	68
580.35	86
580.561	81
580.772	92
580.982	82
581.193	84
581.403	89
581.614	97
581.825	75
582.035	82
582.246	81
582.456	82
582.667	82
582.877	83
583.087	78
583.298	85
583.508	90
583.719	85
583.929	101
584.139	89
584.35	81
584.56	94
584.77	88
584.981	79
585.191	89
585.401	87
585.611	84
585.821	83
586.032	73
586.242	85
586.452	71
586.662	85
586.872	90
587.082	90
587.292	79
587.502	90
587.713	88
587.923	85
588.133	87
588.343	93
588.553	90
588.762	85
588.972	89
589.182	75
589.392	70
589.602	77
589.812	89
590.022	102
590.232	74
590.441	91
590.651	88
590.861	71
591.071	81
591.281	78
591.49	92
591.7	78
591.91	91
592.119	75
592.329	70
592.539	74
592.748	77
592.958	93
593.167	75
593.377	70
593.587	91
593.796	113
594.006	83
594.215	93
594.424	77
594.634	74
594.843	74
595.053	84
595.262	73
595.472	101
595.681	74
595.89	76
596.1	81
596.309	79
596.518	97
596.727	93
596.937	87
597.146	93
597.355	80
597.564	88
597.774	92
597.983	93
598.192	95
598.401	90
598.61	75
598.819	82
599.028	83
599.237	84
599.446	97
599.655	85
599.864	94
600.073	83
600.282	100
600.491	75
600.7	94
600.909	97
601.118	100
601.327	100
601.536	78
601.745	83
601.953	79
602.162	97
602.371	93
602.58	89
602.789	75
602.997	96
603.206	82
603.415	84
603.623	98
603.832	90
604.041	94
604.249	93
604.458	88
604.666	92
604.875	84
605.084	93
605.292	91
605.501	75
605.709	96
605.918	88
606.126	89
606.334	96
606.543	104
606.751	101
606.96	98
607.168	80
607.376	95
607.585	92
607.793	95
608.001	87
608.21	98
608.418	97
608.626	82
608.834	88
609.043	101
609.251	91
609.459	84
609.667	93
609.875	98
610.083	80
610.291	89
610.499	89
610.707	99
610.916	97
611.124	102
611.332	87
611.54	88
611.748	100
611.955	99
612.163	95
612.371	87
612.579	103
612.787	94
612.995	83
613.203	89
613.411	89
613.618	97
613.826	93
614.034	80
614.242	90
614.449	91
614.657	79
614.865	75
615.072	93
615.28	93
615.488	82
615.695	90
615.903	94
616.111	79
616.318	109
616.526	91
616.733	94
616.941	94
617.148	78
617.356	70
617.563	98
617.771	91
617.978	87
618.185	107
618.393	85
618.6	71
618.807	99
619.015	85
619.222	97
619.429	87
619.637	91
619.844	92
620.051	105
620.258	94
620.466	85
620.673	80
620.88	83
621.087	88
621.294	71
621.501	86
621.708	97
621.915	90
622.122	87
622.329	87
622.536	96
622.743	79
622.95	101
623.157	82
623.364	96
623.571	92
623.778	91
623.985	92
624.192	79
624.399	77
624.606	97
624.812	97
625.019	84
625.226	95
625.433	94
625.639	96
625.846	102
626.053	91
626.259	95
626.466	91
626.673	74
626.879	87
627.086	97
627.293	88
627.499	85
627.706	89
627.912	81
628.119	95
628.325	83
628.532	90
628.738	81
628.945	88
629.151	85
629.357	86
629.564	93
629.77	83
629.976	88
630.183	78
630.389	78
630.595	84
630.802	85
631.008	88
631.214	92
631.42	101
631.627	81
631.833	82
632.039	82
632.245	89
632.451	87
632.657	94
632.863	95
633.069	91
633.275	89
633.481	87
633.688	81
633.893	76
634.099	94
634.305	83
634.511	103
634.717	92
634.923	87
635.129	68
635.335	78
635.541	87
635.747	91
635.952	94
636.158	81
636.364	88
636.57	86
636.775	95
636.981	73
637.187	79
637.392	91
637.598	85
637.804	88
638.009	90
638.215	93
638.421	94
638.626	84
638.832	96
639.037	100
639.243	85
639.448	90
639.654	103
639.859	90
640.065	102
640.27	109
640.475	93
640.681	82
640.886	85
641.091	92
641.297	75
641.502	86
641.707	98
641.913	83
642.118	87
642.323	89
642.528	97
642.733	83
642.939	91
643.144	95
643.349	81
643.554	95
643.759	94
643.964	85
644.169	105
644.374	88
644.579	84
644.784	86
644.989	86
645.194	98
645.399	100
645.604	84
645.809	85
646.014	89
646.219	90
646.423	83
646.628	103
646.833	73
647.038	89
647.243	87
647.447	99
647.652	99
647.857	87
648.062	88
648.266	83
648.471	87
648.676	92
648.88	81
649.085	97
649.289	79
649.494	88
649.698	106
649.903	85
650.107	96
650.312	82
650.516	85
650.721	104
650.925	96
651.13	95
651.334	93
651.539	74
651.743	77
651.947	82
652.152	82
652.356	99
652.56	102
652.764	91
652.969	76
653.173	87
653.377	83
653.581	87
653.785	86
653.99	82
654.194	86
654.398	92
654.602	97
654.806	98
655.01	85
655.214	81
655.418	90
655.622	90
655.826	70
656.03	82
656.234	77
656.438	85
656.642	79
656.846	89
657.049	95
657.253	90
657.457	82
657.661	79
657.865	90
658.068	93
658.272	79
658.476	79
658.68	77
658.883	81
659.087	87
659.291	91
659.494	71
659.698	81
659.901	97
660.105	82
660.309	88
660.512	77
660.716	77
660.919	70
661.123	79
661.326	80
661.53	90
661.733	90
661.936	96
662.14	87
662.343	85
662.546	76
662.75	90
662.953	79
663.156	71
663.36	82
663.563	83
663.766	87
663.969	86
664.173	82
664.376	68
664.579	72
664.782	72
664.985	80
665.188	73
665.391	80
665.594	82
665.797	77
666	81
666.203	85
666.406	85
666.609	86
666.812	85
667.015	85
667.218	67
667.421	95
667.624	86
667.827	86
668.03	82
668.232	77
668.435	86
668.638	71
668.841	95
669.043	76
669.246	78
669.449	88
669.651	82
669.854	74
670.057	82
670.259	84
670.462	75
670.665	79
670.867	87
671.07	97
671.272	79
671.475	93
671.677	73
671.88	65
672.082	75
672.284	69
672.487	93
672.689	71
672.892	86
