Data from 1961.PennyLincolnUp.Lamp.En5.5.200Scan.071719.P1._HRD10591_13-46-58-057.txt Node
Date: Thu Jul 18 13:46:58 EDT 2019
User: cochatt
Spectrometer: HR+D1059
Trigger mode: 1
Integration Time (sec): 1.000000E-1
Scans to average: 1
Electric dark correction enabled: true
Nonlinearity correction enabled: false
Boxcar width: 0
XAxis mode: Wavelengths
Number of Pixels in Spectrum: 2048
>>>>>Begin Spectral Data<<<<<
223.165	-12.81
223.4	-12.81
223.635	-12.81
223.869	-21.81
224.104	-21.81
224.338	-19.81
224.573	-4.81
224.808	-8.81
225.042	-0.81
225.277	-7.81
225.511	1.19
225.746	-6.81
225.98	3.19
226.215	12.19
226.449	14.19
226.683	24.19
226.918	25.19
227.152	25.19
227.387	36.19
227.621	42.19
227.856	54.19
228.09	42.19
228.324	53.19
228.559	51.19
228.793	61.19
229.027	86.19
229.262	95.19
229.496	110.19
229.73	120.19
229.964	123.19
230.199	115.19
230.433	98.19
230.667	90.19
230.901	102.19
231.136	101.19
231.37	109.19
231.604	115.19
231.838	120.19
232.072	114.19
232.306	98.19
232.541	100.19
232.775	100.19
233.009	107.19
233.243	108.19
233.477	96.19
233.711	115.19
233.945	114.19
234.179	101.19
234.413	117.19
234.647	112.19
234.881	104.19
235.115	111.19
235.349	101.19
235.583	107.19
235.817	121.19
236.051	121.19
236.285	117.19
236.519	110.19
236.753	122.19
236.987	138.19
237.221	163.19
237.455	200.19
237.689	151.19
237.922	95.19
238.156	114.19
238.39	118.19
238.624	116.19
238.858	105.19
239.091	113.19
239.325	116.19
239.559	106.19
239.793	104.19
240.027	113.19
240.26	122.19
240.494	120.19
240.728	131.19
240.961	120.19
241.195	123.19
241.429	109.19
241.662	121.19
241.896	107.19
242.13	131.19
242.363	121.19
242.597	120.19
242.83	119.19
243.064	108.19
243.298	130.19
243.531	134.19
243.765	133.19
243.998	121.19
244.232	133.19
244.465	125.19
244.699	126.19
244.932	123.19
245.166	119.19
245.399	125.19
245.633	130.19
245.866	125.19
246.099	119.19
246.333	118.19
246.566	132.19
246.8	115.19
247.033	131.19
247.266	121.19
247.5	140.19
247.733	128.19
247.966	158.19
248.2	137.19
248.433	138.19
248.666	154.19
248.899	173.19
249.133	151.19
249.366	181.19
249.599	177.19
249.832	167.19
250.066	161.19
250.299	151.19
250.532	163.19
250.765	156.19
250.998	177.19
251.231	187.19
251.465	179.19
251.698	161.19
251.931	167.19
252.164	165.19
252.397	156.19
252.63	165.19
252.863	174.19
253.096	180.19
253.329	173.19
253.562	177.19
253.795	178.19
254.028	173.19
254.261	174.19
254.494	182.19
254.727	221.19
254.96	237.19
255.193	207.19
255.426	197.19
255.659	197.19
255.892	187.19
256.124	172.19
256.357	196.19
256.59	182.19
256.823	179.19
257.056	187.19
257.289	168.19
257.521	177.19
257.754	171.19
257.987	167.19
258.22	179.19
258.452	176.19
258.685	182.19
258.918	162.19
259.151	157.19
259.383	173.19
259.616	174.19
259.849	181.19
260.081	183.19
260.314	197.19
260.547	200.19
260.779	186.19
261.012	202.19
261.244	177.19
261.477	181.19
261.71	187.19
261.942	186.19
262.175	187.19
262.407	172.19
262.64	171.19
262.872	170.19
263.105	173.19
263.337	164.19
263.57	164.19
263.802	180.19
264.035	167.19
264.267	173.19
264.499	172.19
264.732	170.19
264.964	151.19
265.197	165.19
265.429	178.19
265.661	190.19
265.894	174.19
266.126	177.19
266.358	175.19
266.591	179.19
266.823	181.19
267.055	175.19
267.287	169.19
267.52	189.19
267.752	186.19
267.984	184.19
268.216	194.19
268.448	191.19
268.681	185.19
268.913	186.19
269.145	202.19
269.377	228.19
269.609	217.19
269.841	206.19
270.073	216.19
270.306	222.19
270.538	234.19
270.77	245.19
271.002	224.19
271.234	221.19
271.466	228.19
271.698	239.19
271.93	245.19
272.162	224.19
272.394	251.19
272.626	222.19
272.858	216.19
273.09	236.19
273.322	229.19
273.553	196.19
273.785	223.19
274.017	203.19
274.249	202.19
274.481	210.19
274.713	198.19
274.945	207.19
275.176	206.19
275.408	221.19
275.64	214.19
275.872	220.19
276.104	202.19
276.335	202.19
276.567	206.19
276.799	241.19
277.031	244.19
277.262	232.19
277.494	218.19
277.726	235.19
277.957	220.19
278.189	211.19
278.421	206.19
278.652	215.19
278.884	218.19
279.115	198.19
279.347	216.19
279.579	195.19
279.81	202.19
280.042	218.19
280.273	211.19
280.505	207.19
280.736	211.19
280.968	206.19
281.199	211.19
281.431	213.19
281.662	206.19
281.894	227.19
282.125	201.19
282.356	216.19
282.588	241.19
282.819	251.19
283.051	218.19
283.282	209.19
283.513	214.19
283.745	198.19
283.976	210.19
284.207	233.19
284.439	221.19
284.67	209.19
284.901	218.19
285.132	218.19
285.364	218.19
285.595	200.19
285.826	201.19
286.057	214.19
286.288	203.19
286.52	195.19
286.751	207.19
286.982	208.19
287.213	214.19
287.444	213.19
287.675	226.19
287.906	228.19
288.138	223.19
288.369	235.19
288.6	241.19
288.831	231.19
289.062	227.19
289.293	215.19
289.524	215.19
289.755	222.19
289.986	227.19
290.217	218.19
290.448	216.19
290.679	225.19
290.91	229.19
291.141	232.19
291.371	223.19
291.602	220.19
291.833	217.19
292.064	226.19
292.295	235.19
292.526	222.19
292.757	231.19
292.987	231.19
293.218	206.19
293.449	223.19
293.68	223.19
293.91	214.19
294.141	223.19
294.372	221.19
294.603	221.19
294.833	216.19
295.064	197.19
295.295	226.19
295.525	217.19
295.756	232.19
295.987	225.19
296.217	247.19
296.448	257.19
296.679	240.19
296.909	221.19
297.14	228.19
297.37	224.19
297.601	223.19
297.831	225.19
298.062	235.19
298.292	249.19
298.523	239.19
298.753	234.19
298.984	247.19
299.214	236.19
299.445	232.19
299.675	227.19
299.905	247.19
300.136	245.19
300.366	259.19
300.597	223.19
300.827	248.19
301.057	254.19
301.288	265.19
301.518	270.19
301.748	251.19
301.979	238.19
302.209	259.19
302.439	260.19
302.669	249.19
302.9	271.19
303.13	245.19
303.36	245.19
303.59	249.19
303.82	255.19
304.051	255.19
304.281	241.19
304.511	267.19
304.741	248.19
304.971	253.19
305.201	254.19
305.431	245.19
305.661	255.19
305.891	250.19
306.121	256.19
306.352	252.19
306.582	258.19
306.812	255.19
307.042	243.19
307.272	261.19
307.502	262.19
307.731	253.19
307.961	253.19
308.191	231.19
308.421	255.19
308.651	223.19
308.881	248.19
309.111	264.19
309.341	269.19
309.571	279.19
309.8	264.19
310.03	290.19
310.26	315.19
310.49	292.19
310.72	283.19
310.949	301.19
311.179	314.19
311.409	297.19
311.639	290.19
311.868	292.19
312.098	311.19
312.328	300.19
312.557	307.19
312.787	321.19
313.017	339.19
313.246	309.19
313.476	291.19
313.706	278.19
313.935	309.19
314.165	276.19
314.394	318.19
314.624	299.19
314.853	302.19
315.083	298.19
315.312	282.19
315.542	273.19
315.771	303.19
316.001	305.19
316.23	298.19
316.46	288.19
316.689	297.19
316.919	323.19
317.148	292.19
317.377	295.19
317.607	311.19
317.836	294.19
318.065	300.19
318.295	285.19
318.524	289.19
318.753	278.19
318.983	298.19
319.212	311.19
319.441	311.19
319.67	297.19
319.9	313.19
320.129	302.19
320.358	311.19
320.587	308.19
320.816	305.19
321.046	326.19
321.275	314.19
321.504	321.19
321.733	310.19
321.962	331.19
322.191	336.19
322.42	335.19
322.649	369.19
322.878	372.19
323.108	362.19
323.337	393.19
323.566	398.19
323.795	422.19
324.024	474.19
324.253	595.19
324.482	862.19
324.71	1322.19
324.939	1799.19
325.168	1531.19
325.397	804.19
325.626	552.19
325.855	453.19
326.084	413.19
326.313	412.19
326.542	417.19
326.77	444.19
326.999	539.19
327.228	757.19
327.457	1150.19
327.686	1389.19
327.914	907.19
328.143	606.19
328.372	527.19
328.6	492.19
328.829	487.19
329.058	473.19
329.287	480.19
329.515	435.19
329.744	408.19
329.972	401.19
330.201	423.19
330.43	473.19
330.658	498.19
330.887	498.19
331.115	477.19
331.344	408.19
331.572	387.19
331.801	383.19
332.03	358.19
332.258	375.19
332.486	365.19
332.715	348.19
332.943	338.19
333.172	367.19
333.4	359.19
333.629	344.19
333.857	365.19
334.085	365.19
334.314	390.19
334.542	416.19
334.771	444.19
334.999	389.19
335.227	363.19
335.455	348.19
335.684	359.19
335.912	337.19
336.14	332.19
336.369	326.19
336.597	340.19
336.825	359.19
337.053	341.19
337.281	337.19
337.51	330.19
337.738	345.19
337.966	334.19
338.194	345.19
338.422	354.19
338.65	335.19
338.878	326.19
339.106	313.19
339.334	316.19
339.562	329.19
339.79	338.19
340.018	311.19
340.246	324.19
340.474	335.19
340.702	346.19
340.93	324.19
341.158	317.19
341.386	329.19
341.614	331.19
341.842	341.19
342.07	321.19
342.298	337.19
342.526	322.19
342.754	317.19
342.981	317.19
343.209	320.19
343.437	309.19
343.665	323.19
343.893	320.19
344.12	328.19
344.348	340.19
344.576	342.19
344.804	346.19
345.031	348.19
345.259	332.19
345.487	338.19
345.714	345.19
345.942	341.19
346.17	318.19
346.397	332.19
346.625	336.19
346.853	318.19
347.08	332.19
347.308	333.19
347.535	325.19
347.763	325.19
347.99	342.19
348.218	319.19
348.445	343.19
348.673	331.19
348.9	319.19
349.128	297.19
349.355	317.19
349.583	315.19
349.81	300.19
350.037	287.19
350.265	326.19
350.492	321.19
350.72	312.19
350.947	319.19
351.174	327.19
351.402	334.19
351.629	338.19
351.856	326.19
352.083	330.19
352.311	341.19
352.538	331.19
352.765	346.19
352.992	352.19
353.22	316.19
353.447	322.19
353.674	329.19
353.901	323.19
354.128	313.19
354.355	301.19
354.583	318.19
354.81	313.19
355.037	318.19
355.264	289.19
355.491	280.19
355.718	285.19
355.945	304.19
356.172	298.19
356.399	295.19
356.626	301.19
356.853	305.19
357.08	297.19
357.307	277.19
357.534	307.19
357.761	312.19
357.988	317.19
358.215	298.19
358.441	280.19
358.668	293.19
358.895	327.19
359.122	321.19
359.349	299.19
359.576	327.19
359.802	344.19
360.029	370.19
360.256	389.19
360.483	364.19
360.709	341.19
360.936	313.19
361.163	310.19
361.39	324.19
361.616	336.19
361.843	314.19
362.07	341.19
362.296	325.19
362.523	333.19
362.749	309.19
362.976	298.19
363.203	317.19
363.429	313.19
363.656	327.19
363.882	291.19
364.109	318.19
364.335	303.19
364.562	305.19
364.788	299.19
365.015	309.19
365.241	324.19
365.468	302.19
365.694	299.19
365.92	312.19
366.147	306.19
366.373	297.19
366.599	293.19
366.826	321.19
367.052	307.19
367.278	317.19
367.505	302.19
367.731	302.19
367.957	307.19
368.184	307.19
368.41	315.19
368.636	319.19
368.862	327.19
369.089	309.19
369.315	307.19
369.541	303.19
369.767	309.19
369.993	311.19
370.219	310.19
370.445	309.19
370.672	307.19
370.898	312.19
371.124	303.19
371.35	304.19
371.576	301.19
371.802	305.19
372.028	323.19
372.254	291.19
372.48	293.19
372.706	309.19
372.932	311.19
373.158	296.19
373.384	299.19
373.61	320.19
373.835	299.19
374.061	305.19
374.287	326.19
374.513	310.19
374.739	314.19
374.965	316.19
375.191	305.19
375.416	307.19
375.642	312.19
375.868	309.19
376.094	307.19
376.319	299.19
376.545	314.19
376.771	311.19
376.997	317.19
377.222	310.19
377.448	296.19
377.674	297.19
377.899	303.19
378.125	296.19
378.35	316.19
378.576	295.19
378.802	307.19
379.027	298.19
379.253	309.19
379.478	315.19
379.704	309.19
379.929	311.19
380.155	321.19
380.38	307.19
380.606	302.19
380.831	313.19
381.057	323.19
381.282	297.19
381.507	318.19
381.733	297.19
381.958	307.19
382.184	302.19
382.409	296.19
382.634	298.19
382.86	319.19
383.085	309.19
383.31	302.19
383.535	335.19
383.761	303.19
383.986	303.19
384.211	320.19
384.436	318.19
384.662	331.19
384.887	340.19
385.112	323.19
385.337	317.19
385.562	323.19
385.787	332.19
386.013	363.19
386.238	348.19
386.463	330.19
386.688	345.19
386.913	324.19
387.138	318.19
387.363	339.19
387.588	334.19
387.813	325.19
388.038	321.19
388.263	328.19
388.488	325.19
388.713	333.19
388.938	323.19
389.163	335.19
389.387	359.19
389.612	331.19
389.837	321.19
390.062	325.19
390.287	326.19
390.512	325.19
390.736	347.19
390.961	318.19
391.186	309.19
391.411	332.19
391.636	319.19
391.86	333.19
392.085	335.19
392.31	328.19
392.534	334.19
392.759	330.19
392.984	335.19
393.208	325.19
393.433	343.19
393.658	340.19
393.882	337.19
394.107	325.19
394.331	332.19
394.556	330.19
394.78	335.19
395.005	341.19
395.229	328.19
395.454	341.19
395.678	343.19
395.903	366.19
396.127	365.19
396.352	379.19
396.576	363.19
396.801	343.19
397.025	366.19
397.249	349.19
397.474	345.19
397.698	360.19
397.922	367.19
398.147	371.19
398.371	358.19
398.595	369.19
398.82	372.19
399.044	366.19
399.268	377.19
399.492	403.19
399.717	401.19
399.941	419.19
400.165	454.19
400.389	461.19
400.613	421.19
400.837	395.19
401.062	381.19
401.286	379.19
401.51	380.19
401.734	375.19
401.958	371.19
402.182	370.19
402.406	378.19
402.63	378.19
402.854	371.19
403.078	371.19
403.302	389.19
403.526	378.19
403.75	373.19
403.974	389.19
404.198	396.19
404.422	382.19
404.645	394.19
404.869	400.19
405.093	445.19
405.317	451.19
405.541	473.19
405.765	437.19
405.988	411.19
406.212	417.19
406.436	442.19
406.66	461.19
406.883	444.19
407.107	437.19
407.331	466.19
407.555	527.19
407.778	521.19
408.002	470.19
408.226	437.19
408.449	436.19
408.673	415.19
408.896	461.19
409.12	481.19
409.344	428.19
409.567	413.19
409.791	395.19
410.014	397.19
410.238	382.19
410.461	406.19
410.685	414.19
410.908	413.19
411.132	433.19
411.355	469.19
411.578	424.19
411.802	395.19
412.025	383.19
412.249	387.19
412.472	410.19
412.695	448.19
412.919	458.19
413.142	416.19
413.365	379.19
413.589	381.19
413.812	390.19
414.035	391.19
414.258	382.19
414.482	378.19
414.705	364.19
414.928	393.19
415.151	353.19
415.374	384.19
415.597	376.19
415.821	377.19
416.044	363.19
416.267	354.19
416.49	383.19
416.713	376.19
416.936	366.19
417.159	367.19
417.382	369.19
417.605	382.19
417.828	377.19
418.051	390.19
418.274	369.19
418.497	383.19
418.72	377.19
418.943	369.19
419.166	376.19
419.389	391.19
419.611	400.19
419.834	364.19
420.057	384.19
420.28	410.19
420.503	373.19
420.726	374.19
420.948	402.19
421.171	427.19
421.394	452.19
421.617	412.19
421.839	389.19
422.062	381.19
422.285	402.19
422.507	448.19
422.73	516.19
422.953	479.19
423.175	438.19
423.398	391.19
423.621	392.19
423.843	400.19
424.066	416.19
424.288	422.19
424.511	435.19
424.733	493.19
424.956	518.19
425.178	513.19
425.401	511.19
425.623	499.19
425.846	447.19
426.068	440.19
426.291	437.19
426.513	437.19
426.735	438.19
426.958	472.19
427.18	515.19
427.402	602.19
427.625	691.19
427.847	600.19
428.069	535.19
428.292	477.19
428.514	451.19
428.736	400.19
428.958	408.19
429.181	406.19
429.403	379.19
429.625	379.19
429.847	427.19
430.069	493.19
430.292	484.19
430.514	411.19
430.736	415.19
430.958	398.19
431.18	380.19
431.402	382.19
431.624	377.19
431.846	354.19
432.068	349.19
432.29	388.19
432.512	371.19
432.734	387.19
432.956	353.19
433.178	393.19
433.4	379.19
433.622	374.19
433.844	374.19
434.066	370.19
434.287	374.19
434.509	364.19
434.731	391.19
434.953	403.19
435.175	394.19
435.397	410.19
435.618	425.19
435.84	458.19
436.062	525.19
436.284	558.19
436.505	481.19
436.727	459.19
436.949	429.19
437.17	409.19
437.392	410.19
437.614	399.19
437.835	454.19
438.057	509.19
438.278	581.19
438.5	575.19
438.721	645.19
438.943	600.19
439.165	472.19
439.386	432.19
439.608	421.19
439.829	439.19
440.05	464.19
440.272	498.19
440.493	476.19
440.715	441.19
440.936	418.19
441.158	406.19
441.379	426.19
441.6	424.19
441.822	421.19
442.043	448.19
442.264	517.19
442.486	569.19
442.707	461.19
442.928	457.19
443.149	460.19
443.371	454.19
443.592	490.19
443.813	582.19
444.034	598.19
444.255	498.19
444.476	446.19
444.698	435.19
444.919	421.19
445.14	503.19
445.361	463.19
445.582	474.19
445.803	503.19
446.024	575.19
446.245	607.19
446.466	568.19
446.687	479.19
446.908	438.19
447.129	407.19
447.35	404.19
447.571	410.19
447.792	418.19
448.013	409.19
448.234	412.19
448.455	465.19
448.675	552.19
448.896	631.19
449.117	539.19
449.338	518.19
449.559	596.19
449.779	644.19
450	531.19
450.221	449.19
450.442	422.19
450.662	393.19
450.883	404.19
451.104	402.19
451.324	414.19
451.545	390.19
451.766	391.19
451.986	373.19
452.207	350.19
452.428	353.19
452.648	366.19
452.869	352.19
453.089	381.19
453.31	376.19
453.53	367.19
453.751	366.19
453.971	365.19
454.192	380.19
454.412	360.19
454.633	374.19
454.853	385.19
455.073	376.19
455.294	385.19
455.514	422.19
455.734	414.19
455.955	367.19
456.175	361.19
456.395	340.19
456.616	323.19
456.836	350.19
457.056	344.19
457.276	331.19
457.497	318.19
457.717	333.19
457.937	342.19
458.157	349.19
458.377	362.19
458.598	396.19
458.818	427.19
459.038	487.19
459.258	487.19
459.478	425.19
459.698	409.19
459.918	395.19
460.138	388.19
460.358	393.19
460.578	391.19
460.798	364.19
461.018	373.19
461.238	375.19
461.458	387.19
461.678	377.19
461.898	379.19
462.118	369.19
462.338	382.19
462.558	379.19
462.777	381.19
462.997	409.19
463.217	407.19
463.437	406.19
463.657	392.19
463.876	373.19
464.096	396.19
464.316	405.19
464.536	400.19
464.755	403.19
464.975	395.19
465.195	454.19
465.414	512.19
465.634	450.19
465.854	428.19
466.073	401.19
466.293	375.19
466.512	379.19
466.732	381.19
466.951	346.19
467.171	374.19
467.391	365.19
467.61	375.19
467.829	401.19
468.049	393.19
468.268	385.19
468.488	379.19
468.707	343.19
468.927	350.19
469.146	347.19
469.365	350.19
469.585	365.19
469.804	367.19
470.023	370.19
470.243	369.19
470.462	381.19
470.681	389.19
470.901	392.19
471.12	379.19
471.339	373.19
471.558	386.19
471.777	386.19
471.997	380.19
472.216	385.19
472.435	425.19
472.654	417.19
472.873	382.19
473.092	362.19
473.311	368.19
473.53	382.19
473.749	409.19
473.968	439.19
474.187	502.19
474.406	522.19
474.625	417.19
474.844	391.19
475.063	387.19
475.282	390.19
475.501	378.19
475.72	388.19
475.939	391.19
476.158	389.19
476.377	389.19
476.596	403.19
476.814	421.19
477.033	410.19
477.252	395.19
477.471	402.19
477.69	389.19
477.908	377.19
478.127	423.19
478.346	381.19
478.564	418.19
478.783	411.19
479.002	421.19
479.22	429.19
479.439	440.19
479.658	447.19
479.876	477.19
480.095	461.19
480.313	459.19
480.532	461.19
480.751	469.19
480.969	467.19
481.188	517.19
481.406	562.19
481.624	481.19
481.843	458.19
482.061	455.19
482.28	435.19
482.498	455.19
482.717	445.19
482.935	441.19
483.153	439.19
483.372	445.19
483.59	428.19
483.808	433.19
484.027	454.19
484.245	458.19
484.463	450.19
484.681	472.19
484.9	455.19
485.118	447.19
485.336	445.19
485.554	453.19
485.772	458.19
485.99	466.19
486.209	479.19
486.427	453.19
486.645	467.19
486.863	486.19
487.081	476.19
487.299	469.19
487.517	476.19
487.735	464.19
487.953	481.19
488.171	474.19
488.389	457.19
488.607	472.19
488.825	471.19
489.043	481.19
489.261	464.19
489.479	470.19
489.696	469.19
489.914	483.19
490.132	492.19
490.35	502.19
490.568	489.19
490.786	490.19
491.003	503.19
491.221	513.19
491.439	490.19
491.657	549.19
491.874	526.19
492.092	528.19
492.31	550.19
492.527	507.19
492.745	543.19
492.963	556.19
493.18	542.19
493.398	543.19
493.615	532.19
493.833	559.19
494.05	563.19
494.268	528.19
494.485	535.19
494.703	543.19
494.92	536.19
495.138	561.19
495.355	543.19
495.573	571.19
495.79	543.19
496.008	569.19
496.225	580.19
496.442	559.19
496.66	573.19
496.877	572.19
497.094	543.19
497.312	580.19
497.529	577.19
497.746	575.19
497.963	590.19
498.181	574.19
498.398	598.19
498.615	603.19
498.832	600.19
499.049	625.19
499.267	646.19
499.484	646.19
499.701	670.19
499.918	669.19
500.135	679.19
500.352	715.19
500.569	697.19
500.786	708.19
501.003	705.19
501.22	706.19
501.437	694.19
501.654	701.19
501.871	670.19
502.088	657.19
502.305	653.19
502.522	627.19
502.739	605.19
502.956	585.19
503.172	583.19
503.389	590.19
503.606	587.19
503.823	581.19
504.04	595.19
504.256	562.19
504.473	571.19
504.69	561.19
504.907	555.19
505.123	566.19
505.34	552.19
505.557	547.19
505.773	553.19
505.99	545.19
506.207	539.19
506.423	535.19
506.64	519.19
506.856	538.19
507.073	525.19
507.289	546.19
507.506	508.19
507.722	548.19
507.939	567.19
508.155	535.19
508.372	523.19
508.588	522.19
508.805	525.19
509.021	513.19
509.238	517.19
509.454	543.19
509.67	521.19
509.887	523.19
510.103	501.19
510.319	506.19
510.536	631.19
510.752	1061.19
510.968	843.19
511.184	555.19
511.401	508.19
511.617	507.19
511.833	517.19
512.049	510.19
512.265	501.19
512.481	479.19
512.698	498.19
512.914	516.19
513.13	501.19
513.346	498.19
513.562	493.19
513.778	484.19
513.994	545.19
514.21	521.19
514.426	536.19
514.642	558.19
514.858	597.19
515.074	626.19
515.29	764.19
515.506	1095.19
515.721	923.19
515.937	604.19
516.153	556.19
516.369	541.19
516.585	533.19
516.801	520.19
517.016	498.19
517.232	482.19
517.448	515.19
517.664	497.19
517.879	497.19
518.095	516.19
518.311	489.19
518.527	510.19
518.742	506.19
518.958	483.19
519.173	483.19
519.389	493.19
519.605	472.19
519.82	483.19
520.036	525.19
520.251	527.19
520.467	573.19
520.682	533.19
520.898	587.19
521.113	617.19
521.329	634.19
521.544	699.19
521.76	892.19
521.975	1473.19
522.19	1413.19
522.406	790.19
522.621	583.19
522.836	525.19
523.052	500.19
523.267	489.19
523.482	473.19
523.698	455.19
523.913	463.19
524.128	468.19
524.343	462.19
524.559	442.19
524.774	420.19
524.989	441.19
525.204	465.19
525.419	427.19
525.634	449.19
525.849	429.19
526.064	416.19
526.28	410.19
526.495	428.19
526.71	415.19
526.925	408.19
527.14	397.19
527.355	423.19
527.57	425.19
527.785	421.19
527.999	406.19
528.214	394.19
528.429	415.19
528.644	412.19
528.859	422.19
529.074	396.19
529.289	443.19
529.503	489.19
529.718	489.19
529.933	443.19
530.148	429.19
530.363	413.19
530.577	400.19
530.792	399.19
531.007	413.19
531.221	415.19
531.436	410.19
531.651	407.19
531.865	405.19
532.08	366.19
532.295	393.19
532.509	361.19
532.724	384.19
532.938	381.19
533.153	395.19
533.367	389.19
533.582	391.19
533.796	390.19
534.011	382.19
534.225	367.19
534.44	379.19
534.654	385.19
534.868	382.19
535.083	384.19
535.297	362.19
535.511	412.19
535.726	389.19
535.94	403.19
536.154	383.19
536.369	383.19
536.583	382.19
536.797	395.19
537.011	378.19
537.225	378.19
537.44	376.19
537.654	362.19
537.868	377.19
538.082	377.19
538.296	383.19
538.51	396.19
538.724	364.19
538.938	387.19
539.153	370.19
539.367	386.19
539.581	376.19
539.795	367.19
540.009	367.19
540.222	364.19
540.436	355.19
540.65	362.19
540.864	383.19
541.078	372.19
541.292	380.19
541.506	373.19
541.72	359.19
541.934	364.19
542.147	367.19
542.361	352.19
542.575	358.19
542.789	379.19
543.002	368.19
543.216	379.19
543.43	368.19
543.644	371.19
543.857	379.19
544.071	358.19
544.285	381.19
544.498	373.19
544.712	374.19
544.925	374.19
545.139	350.19
545.352	340.19
545.566	351.19
545.779	365.19
545.993	360.19
546.206	370.19
546.42	349.19
546.633	365.19
546.847	367.19
547.06	352.19
547.274	329.19
547.487	367.19
547.7	346.19
547.914	347.19
548.127	343.19
548.34	350.19
548.554	351.19
548.767	357.19
548.98	350.19
549.193	343.19
549.407	350.19
549.62	335.19
549.833	354.19
550.046	358.19
550.259	348.19
550.473	356.19
550.686	362.19
550.899	343.19
551.112	358.19
551.325	366.19
551.538	345.19
551.751	348.19
551.964	337.19
552.177	339.19
552.39	354.19
552.603	352.19
552.816	350.19
553.029	344.19
553.242	358.19
553.455	337.19
553.667	376.19
553.88	367.19
554.093	354.19
554.306	354.19
554.519	349.19
554.732	346.19
554.944	354.19
555.157	335.19
555.37	338.19
555.583	338.19
555.795	327.19
556.008	338.19
556.221	331.19
556.433	333.19
556.646	337.19
556.859	338.19
557.071	318.19
557.284	336.19
557.496	318.19
557.709	320.19
557.921	329.19
558.134	303.19
558.346	317.19
558.559	314.19
558.771	300.19
558.984	318.19
559.196	324.19
559.409	321.19
559.621	316.19
559.833	328.19
560.046	318.19
560.258	317.19
560.47	321.19
560.683	330.19
560.895	326.19
561.107	329.19
561.32	310.19
561.532	287.19
561.744	311.19
561.956	296.19
562.168	315.19
562.381	306.19
562.593	323.19
562.805	319.19
563.017	321.19
563.229	321.19
563.441	319.19
563.653	300.19
563.865	307.19
564.077	315.19
564.289	316.19
564.501	311.19
564.713	327.19
564.925	335.19
565.137	326.19
565.349	340.19
565.561	327.19
565.773	332.19
565.985	335.19
566.197	310.19
566.408	345.19
566.62	353.19
566.832	358.19
567.044	341.19
567.255	356.19
567.467	368.19
567.679	366.19
567.891	366.19
568.102	346.19
568.314	346.19
568.526	335.19
568.737	348.19
568.949	337.19
569.161	335.19
569.372	348.19
569.584	330.19
569.795	331.19
570.007	303.19
570.218	347.19
570.43	343.19
570.641	327.19
570.853	293.19
571.064	309.19
571.276	297.19
571.487	318.19
571.698	310.19
571.91	301.19
572.121	295.19
572.333	298.19
572.544	299.19
572.755	290.19
572.966	295.19
573.178	285.19
573.389	279.19
573.6	262.19
573.811	279.19
574.023	276.19
574.234	264.19
574.445	302.19
574.656	291.19
574.867	291.19
575.078	258.19
575.289	289.19
575.501	287.19
575.712	255.19
575.923	284.19
576.134	279.19
576.345	272.19
576.556	247.19
576.767	259.19
576.978	265.19
577.188	265.19
577.399	283.19
577.61	268.19
577.821	262.19
578.032	273.19
578.243	303.19
578.454	501.19
578.665	375.19
578.875	291.19
579.086	279.19
579.297	248.19
579.508	266.19
579.718	273.19
579.929	263.19
580.14	245.19
580.35	262.19
580.561	261.19
580.772	276.19
580.982	259.19
581.193	245.19
581.403	262.19
581.614	245.19
581.825	236.19
582.035	253.19
582.246	261.19
582.456	245.19
582.667	256.19
582.877	245.19
583.087	264.19
583.298	244.19
583.508	257.19
583.719	258.19
583.929	247.19
584.139	253.19
584.35	249.19
584.56	261.19
584.77	242.19
584.981	239.19
585.191	242.19
585.401	247.19
585.611	246.19
585.821	244.19
586.032	237.19
586.242	257.19
586.452	250.19
586.662	248.19
586.872	230.19
587.082	241.19
587.292	238.19
587.502	243.19
587.713	245.19
587.923	250.19
588.133	247.19
588.343	244.19
588.553	236.19
588.762	233.19
588.972	244.19
589.182	235.19
589.392	251.19
589.602	248.19
589.812	238.19
590.022	250.19
590.232	237.19
590.441	257.19
590.651	235.19
590.861	255.19
591.071	251.19
591.281	232.19
591.49	244.19
591.7	237.19
591.91	241.19
592.119	247.19
592.329	229.19
592.539	247.19
592.748	233.19
592.958	238.19
593.167	245.19
593.377	245.19
593.587	254.19
593.796	250.19
594.006	233.19
594.215	245.19
594.424	233.19
594.634	236.19
594.843	239.19
595.053	230.19
595.262	250.19
595.472	241.19
595.681	250.19
595.89	230.19
596.1	234.19
596.309	248.19
596.518	232.19
596.727	249.19
596.937	236.19
597.146	228.19
597.355	221.19
597.564	220.19
597.774	238.19
597.983	221.19
598.192	207.19
598.401	237.19
598.61	226.19
598.819	204.19
599.028	220.19
599.237	210.19
599.446	226.19
599.655	226.19
599.864	227.19
600.073	248.19
600.282	210.19
600.491	215.19
600.7	224.19
600.909	216.19
601.118	207.19
601.327	231.19
601.536	214.19
601.745	214.19
601.953	223.19
602.162	216.19
602.371	232.19
602.58	211.19
602.789	225.19
602.997	202.19
603.206	216.19
603.415	213.19
603.623	216.19
603.832	218.19
604.041	218.19
604.249	210.19
604.458	207.19
604.666	213.19
604.875	222.19
605.084	198.19
605.292	203.19
605.501	195.19
605.709	212.19
605.918	207.19
606.126	196.19
606.334	203.19
606.543	203.19
606.751	205.19
606.96	207.19
607.168	210.19
607.376	208.19
607.585	223.19
607.793	211.19
608.001	212.19
608.21	207.19
608.418	204.19
608.626	196.19
608.834	198.19
609.043	210.19
609.251	202.19
609.459	202.19
609.667	196.19
609.875	202.19
610.083	207.19
610.291	214.19
610.499	202.19
610.707	196.19
610.916	218.19
611.124	214.19
611.332	215.19
611.54	228.19
611.748	196.19
611.955	206.19
612.163	202.19
612.371	196.19
612.579	197.19
612.787	212.19
612.995	213.19
613.203	211.19
613.411	205.19
613.618	194.19
613.826	193.19
614.034	189.19
614.242	190.19
614.449	178.19
614.657	209.19
614.865	186.19
615.072	186.19
615.28	193.19
615.488	199.19
615.695	188.19
615.903	199.19
616.111	196.19
616.318	193.19
616.526	210.19
616.733	192.19
616.941	195.19
617.148	188.19
617.356	187.19
617.563	185.19
617.771	197.19
617.978	164.19
618.185	194.19
618.393	206.19
618.6	188.19
618.807	190.19
619.015	186.19
619.222	190.19
619.429	178.19
619.637	193.19
619.844	180.19
620.051	182.19
620.258	180.19
620.466	190.19
620.673	197.19
620.88	186.19
621.087	189.19
621.294	182.19
621.501	193.19
621.708	185.19
621.915	173.19
622.122	182.19
622.329	199.19
622.536	183.19
622.743	188.19
622.95	179.19
623.157	166.19
623.364	186.19
623.571	183.19
623.778	178.19
623.985	190.19
624.192	184.19
624.399	188.19
624.606	181.19
624.812	179.19
625.019	193.19
625.226	171.19
625.433	186.19
625.639	181.19
625.846	193.19
626.053	176.19
626.259	177.19
626.466	189.19
626.673	185.19
626.879	174.19
627.086	181.19
627.293	173.19
627.499	187.19
627.706	172.19
627.912	171.19
628.119	158.19
628.325	152.19
628.532	177.19
628.738	173.19
628.945	164.19
629.151	175.19
629.357	170.19
629.564	170.19
629.77	170.19
629.976	151.19
630.183	154.19
630.389	158.19
630.595	171.19
630.802	181.19
631.008	149.19
631.214	173.19
631.42	166.19
631.627	157.19
631.833	164.19
632.039	163.19
632.245	159.19
632.451	158.19
632.657	172.19
632.863	161.19
633.069	152.19
633.275	171.19
633.481	155.19
633.688	173.19
633.893	167.19
634.099	170.19
634.305	157.19
634.511	154.19
634.717	172.19
634.923	154.19
635.129	166.19
635.335	163.19
635.541	167.19
635.747	148.19
635.952	139.19
636.158	153.19
636.364	166.19
636.57	163.19
636.775	147.19
636.981	158.19
637.187	166.19
637.392	166.19
637.598	162.19
637.804	157.19
638.009	163.19
638.215	167.19
638.421	143.19
638.626	147.19
638.832	141.19
639.037	155.19
639.243	168.19
639.448	146.19
639.654	151.19
639.859	141.19
640.065	148.19
640.27	151.19
640.475	164.19
640.681	163.19
640.886	151.19
641.091	153.19
641.297	154.19
641.502	163.19
641.707	153.19
641.913	155.19
642.118	159.19
642.323	139.19
642.528	142.19
642.733	153.19
642.939	163.19
643.144	172.19
643.349	157.19
643.554	147.19
643.759	138.19
643.964	144.19
644.169	142.19
644.374	155.19
644.579	145.19
644.784	148.19
644.989	154.19
645.194	145.19
645.399	142.19
645.604	166.19
645.809	136.19
646.014	134.19
646.219	143.19
646.423	145.19
646.628	147.19
646.833	132.19
647.038	147.19
647.243	144.19
647.447	147.19
647.652	149.19
647.857	161.19
648.062	139.19
648.266	162.19
648.471	151.19
648.676	150.19
648.88	134.19
649.085	127.19
649.289	146.19
649.494	145.19
649.698	161.19
649.903	167.19
650.107	143.19
650.312	156.19
650.516	163.19
650.721	143.19
650.925	139.19
651.13	148.19
651.334	140.19
651.539	132.19
651.743	126.19
651.947	141.19
652.152	133.19
652.356	133.19
652.56	132.19
652.764	124.19
652.969	143.19
653.173	130.19
653.377	127.19
653.581	137.19
653.785	127.19
653.99	116.19
654.194	117.19
654.398	131.19
654.602	136.19
654.806	142.19
655.01	128.19
655.214	134.19
655.418	121.19
655.622	131.19
655.826	127.19
656.03	121.19
656.234	133.19
656.438	135.19
656.642	144.19
656.846	111.19
657.049	121.19
657.253	111.19
657.457	108.19
657.661	108.19
657.865	119.19
658.068	125.19
658.272	107.19
658.476	97.19
658.68	94.19
658.883	97.19
659.087	103.19
659.291	110.19
659.494	101.19
659.698	102.19
659.901	96.19
660.105	94.19
660.309	94.19
660.512	89.19
660.716	90.19
660.919	92.19
661.123	92.19
661.326	90.19
661.53	106.19
661.733	87.19
661.936	91.19
662.14	84.19
662.343	80.19
662.546	84.19
662.75	81.19
662.953	92.19
663.156	104.19
663.36	79.19
663.563	79.19
663.766	91.19
663.969	69.19
664.173	91.19
664.376	77.19
664.579	75.19
664.782	71.19
664.985	84.19
665.188	93.19
665.391	82.19
665.594	73.19
665.797	83.19
666	87.19
666.203	73.19
666.406	85.19
666.609	83.19
666.812	92.19
667.015	90.19
667.218	82.19
667.421	80.19
667.624	86.19
667.827	81.19
668.03	71.19
668.232	79.19
668.435	92.19
668.638	85.19
668.841	78.19
669.043	84.19
669.246	65.19
669.449	81.19
669.651	91.19
669.854	83.19
670.057	94.19
670.259	99.19
670.462	80.19
670.665	80.19
670.867	82.19
671.07	74.19
671.272	97.19
671.475	102.19
671.677	76.19
671.88	94.19
672.082	75.19
672.284	85.19
672.487	78.19
672.689	90.19
672.892	83.19
