Data from 1961.PennyLincolnUp.Lamp.En5.5.200Scan.071719.P1._HRD10591_13-46-35-056.txt Node
Date: Thu Jul 18 13:46:35 EDT 2019
User: cochatt
Spectrometer: HR+D1059
Trigger mode: 1
Integration Time (sec): 1.000000E-1
Scans to average: 1
Electric dark correction enabled: true
Nonlinearity correction enabled: false
Boxcar width: 0
XAxis mode: Wavelengths
Number of Pixels in Spectrum: 2048
>>>>>Begin Spectral Data<<<<<
223.165	-9.81
223.4	-9.81
223.635	-9.81
223.869	-21.81
224.104	-18.81
224.338	-23.81
224.573	-12.81
224.808	-8.81
225.042	-18.81
225.277	1.19
225.511	10.19
225.746	-6.81
225.98	12.19
226.215	17.19
226.449	4.19
226.683	18.19
226.918	27.19
227.152	31.19
227.387	27.19
227.621	39.19
227.856	56.19
228.09	54.19
228.324	59.19
228.559	53.19
228.793	56.19
229.027	85.19
229.262	90.19
229.496	87.19
229.73	104.19
229.964	126.19
230.199	102.19
230.433	86.19
230.667	94.19
230.901	91.19
231.136	94.19
231.37	92.19
231.604	98.19
231.838	101.19
232.072	102.19
232.306	101.19
232.541	99.19
232.775	98.19
233.009	98.19
233.243	111.19
233.477	111.19
233.711	105.19
233.945	112.19
234.179	113.19
234.413	93.19
234.647	92.19
234.881	82.19
235.115	99.19
235.349	105.19
235.583	97.19
235.817	104.19
236.051	115.19
236.285	87.19
236.519	99.19
236.753	95.19
236.987	116.19
237.221	157.19
237.455	176.19
237.689	141.19
237.922	126.19
238.156	101.19
238.39	115.19
238.624	114.19
238.858	115.19
239.091	99.19
239.325	106.19
239.559	108.19
239.793	106.19
240.027	111.19
240.26	114.19
240.494	122.19
240.728	117.19
240.961	106.19
241.195	104.19
241.429	121.19
241.662	99.19
241.896	112.19
242.13	106.19
242.363	112.19
242.597	113.19
242.83	114.19
243.064	113.19
243.298	130.19
243.531	109.19
243.765	116.19
243.998	106.19
244.232	112.19
244.465	130.19
244.699	118.19
244.932	122.19
245.166	120.19
245.399	130.19
245.633	124.19
245.866	121.19
246.099	115.19
246.333	129.19
246.566	123.19
246.8	139.19
247.033	121.19
247.266	114.19
247.5	122.19
247.733	127.19
247.966	142.19
248.2	122.19
248.433	122.19
248.666	132.19
248.899	138.19
249.133	163.19
249.366	151.19
249.599	153.19
249.832	150.19
250.066	135.19
250.299	148.19
250.532	142.19
250.765	152.19
250.998	146.19
251.231	161.19
251.465	159.19
251.698	138.19
251.931	147.19
252.164	152.19
252.397	166.19
252.63	168.19
252.863	148.19
253.096	147.19
253.329	159.19
253.562	171.19
253.795	159.19
254.028	167.19
254.261	160.19
254.494	185.19
254.727	193.19
254.96	192.19
255.193	174.19
255.426	174.19
255.659	186.19
255.892	180.19
256.124	170.19
256.357	184.19
256.59	185.19
256.823	163.19
257.056	161.19
257.289	159.19
257.521	166.19
257.754	152.19
257.987	153.19
258.22	165.19
258.452	151.19
258.685	160.19
258.918	153.19
259.151	159.19
259.383	162.19
259.616	178.19
259.849	166.19
260.081	158.19
260.314	187.19
260.547	174.19
260.779	176.19
261.012	168.19
261.244	158.19
261.477	175.19
261.71	166.19
261.942	181.19
262.175	193.19
262.407	171.19
262.64	161.19
262.872	144.19
263.105	146.19
263.337	165.19
263.57	150.19
263.802	155.19
264.035	168.19
264.267	167.19
264.499	156.19
264.732	174.19
264.964	154.19
265.197	158.19
265.429	165.19
265.661	161.19
265.894	175.19
266.126	182.19
266.358	160.19
266.591	169.19
266.823	160.19
267.055	168.19
267.287	177.19
267.52	176.19
267.752	178.19
267.984	161.19
268.216	170.19
268.448	165.19
268.681	169.19
268.913	187.19
269.145	179.19
269.377	175.19
269.609	193.19
269.841	182.19
270.073	198.19
270.306	196.19
270.538	208.19
270.77	207.19
271.002	217.19
271.234	214.19
271.466	199.19
271.698	214.19
271.93	203.19
272.162	213.19
272.394	212.19
272.626	228.19
272.858	202.19
273.09	210.19
273.322	204.19
273.553	197.19
273.785	188.19
274.017	182.19
274.249	187.19
274.481	196.19
274.713	181.19
274.945	208.19
275.176	190.19
275.408	194.19
275.64	199.19
275.872	183.19
276.104	189.19
276.335	202.19
276.567	197.19
276.799	200.19
277.031	213.19
277.262	220.19
277.494	216.19
277.726	197.19
277.957	213.19
278.189	194.19
278.421	198.19
278.652	200.19
278.884	191.19
279.115	202.19
279.347	192.19
279.579	188.19
279.81	186.19
280.042	188.19
280.273	207.19
280.505	191.19
280.736	197.19
280.968	187.19
281.199	177.19
281.431	191.19
281.662	202.19
281.894	194.19
282.125	179.19
282.356	207.19
282.588	209.19
282.819	227.19
283.051	196.19
283.282	194.19
283.513	198.19
283.745	213.19
283.976	196.19
284.207	182.19
284.439	191.19
284.67	198.19
284.901	195.19
285.132	202.19
285.364	202.19
285.595	198.19
285.826	207.19
286.057	199.19
286.288	193.19
286.52	192.19
286.751	208.19
286.982	194.19
287.213	191.19
287.444	206.19
287.675	212.19
287.906	201.19
288.138	210.19
288.369	213.19
288.6	209.19
288.831	190.19
289.062	202.19
289.293	196.19
289.524	200.19
289.755	204.19
289.986	210.19
290.217	217.19
290.448	209.19
290.679	204.19
290.91	200.19
291.141	200.19
291.371	211.19
291.602	210.19
291.833	211.19
292.064	188.19
292.295	178.19
292.526	208.19
292.757	198.19
292.987	204.19
293.218	194.19
293.449	215.19
293.68	213.19
293.91	194.19
294.141	205.19
294.372	194.19
294.603	211.19
294.833	207.19
295.064	210.19
295.295	204.19
295.525	209.19
295.756	212.19
295.987	205.19
296.217	202.19
296.448	211.19
296.679	205.19
296.909	199.19
297.14	222.19
297.37	216.19
297.601	210.19
297.831	205.19
298.062	218.19
298.292	219.19
298.523	209.19
298.753	211.19
298.984	224.19
299.214	212.19
299.445	225.19
299.675	211.19
299.905	207.19
300.136	203.19
300.366	205.19
300.597	213.19
300.827	236.19
301.057	238.19
301.288	210.19
301.518	236.19
301.748	230.19
301.979	235.19
302.209	225.19
302.439	244.19
302.669	228.19
302.9	232.19
303.13	244.19
303.36	230.19
303.59	240.19
303.82	252.19
304.051	244.19
304.281	218.19
304.511	222.19
304.741	235.19
304.971	228.19
305.201	230.19
305.431	231.19
305.661	216.19
305.891	234.19
306.121	221.19
306.352	221.19
306.582	240.19
306.812	230.19
307.042	242.19
307.272	252.19
307.502	244.19
307.731	237.19
307.961	229.19
308.191	242.19
308.421	223.19
308.651	232.19
308.881	244.19
309.111	234.19
309.341	246.19
309.571	268.19
309.8	246.19
310.03	243.19
310.26	267.19
310.49	243.19
310.72	267.19
310.949	245.19
311.179	280.19
311.409	258.19
311.639	274.19
311.868	240.19
312.098	262.19
312.328	256.19
312.557	279.19
312.787	294.19
313.017	281.19
313.246	258.19
313.476	266.19
313.706	259.19
313.935	253.19
314.165	264.19
314.394	270.19
314.624	302.19
314.853	282.19
315.083	269.19
315.312	278.19
315.542	270.19
315.771	271.19
316.001	263.19
316.23	267.19
316.46	265.19
316.689	272.19
316.919	247.19
317.148	265.19
317.377	280.19
317.607	260.19
317.836	264.19
318.065	262.19
318.295	274.19
318.524	246.19
318.753	258.19
318.983	261.19
319.212	286.19
319.441	276.19
319.67	262.19
319.9	268.19
320.129	270.19
320.358	282.19
320.587	282.19
320.816	285.19
321.046	300.19
321.275	293.19
321.504	272.19
321.733	279.19
321.962	300.19
322.191	297.19
322.42	332.19
322.649	325.19
322.878	334.19
323.108	326.19
323.337	347.19
323.566	371.19
323.795	382.19
324.024	412.19
324.253	484.19
324.482	710.19
324.71	1099.19
324.939	1492.19
325.168	1256.19
325.397	637.19
325.626	488.19
325.855	396.19
326.084	361.19
326.313	358.19
326.542	359.19
326.77	383.19
326.999	482.19
327.228	634.19
327.457	961.19
327.686	1063.19
327.914	742.19
328.143	502.19
328.372	437.19
328.6	401.19
328.829	389.19
329.058	390.19
329.287	404.19
329.515	414.19
329.744	351.19
329.972	363.19
330.201	363.19
330.43	414.19
330.658	404.19
330.887	417.19
331.115	402.19
331.344	355.19
331.572	344.19
331.801	359.19
332.03	315.19
332.258	319.19
332.486	329.19
332.715	316.19
332.943	312.19
333.172	312.19
333.4	309.19
333.629	323.19
333.857	327.19
334.085	336.19
334.314	360.19
334.542	362.19
334.771	398.19
334.999	368.19
335.227	337.19
335.455	315.19
335.684	329.19
335.912	331.19
336.14	321.19
336.369	319.19
336.597	319.19
336.825	318.19
337.053	311.19
337.281	302.19
337.51	312.19
337.738	296.19
337.966	292.19
338.194	310.19
338.422	318.19
338.65	314.19
338.878	309.19
339.106	306.19
339.334	304.19
339.562	293.19
339.79	315.19
340.018	295.19
340.246	304.19
340.474	325.19
340.702	302.19
340.93	292.19
341.158	283.19
341.386	300.19
341.614	307.19
341.842	304.19
342.07	304.19
342.298	304.19
342.526	307.19
342.754	322.19
342.981	295.19
343.209	291.19
343.437	307.19
343.665	300.19
343.893	287.19
344.12	304.19
344.348	315.19
344.576	283.19
344.804	295.19
345.031	318.19
345.259	312.19
345.487	301.19
345.714	292.19
345.942	304.19
346.17	304.19
346.397	294.19
346.625	287.19
346.853	310.19
347.08	314.19
347.308	313.19
347.535	302.19
347.763	305.19
347.99	304.19
348.218	291.19
348.445	299.19
348.673	302.19
348.9	266.19
349.128	289.19
349.355	282.19
349.583	280.19
349.81	282.19
350.037	268.19
350.265	285.19
350.492	278.19
350.72	283.19
350.947	290.19
351.174	289.19
351.402	299.19
351.629	300.19
351.856	292.19
352.083	296.19
352.311	310.19
352.538	308.19
352.765	309.19
352.992	294.19
353.22	299.19
353.447	288.19
353.674	302.19
353.901	291.19
354.128	282.19
354.355	268.19
354.583	290.19
354.81	293.19
355.037	274.19
355.264	257.19
355.491	275.19
355.718	275.19
355.945	269.19
356.172	274.19
356.399	284.19
356.626	271.19
356.853	279.19
357.08	271.19
357.307	280.19
357.534	277.19
357.761	286.19
357.988	292.19
358.215	278.19
358.441	276.19
358.668	268.19
358.895	275.19
359.122	276.19
359.349	290.19
359.576	298.19
359.802	317.19
360.029	305.19
360.256	328.19
360.483	312.19
360.709	283.19
360.936	312.19
361.163	286.19
361.39	281.19
361.616	291.19
361.843	309.19
362.07	306.19
362.296	282.19
362.523	279.19
362.749	291.19
362.976	288.19
363.203	306.19
363.429	282.19
363.656	295.19
363.882	281.19
364.109	285.19
364.335	268.19
364.562	303.19
364.788	275.19
365.015	266.19
365.241	291.19
365.468	283.19
365.694	300.19
365.92	292.19
366.147	274.19
366.373	292.19
366.599	293.19
366.826	271.19
367.052	277.19
367.278	288.19
367.505	278.19
367.731	278.19
367.957	282.19
368.184	305.19
368.41	295.19
368.636	302.19
368.862	293.19
369.089	294.19
369.315	277.19
369.541	286.19
369.767	289.19
369.993	279.19
370.219	286.19
370.445	267.19
370.672	280.19
370.898	279.19
371.124	283.19
371.35	264.19
371.576	280.19
371.802	279.19
372.028	266.19
372.254	266.19
372.48	269.19
372.706	283.19
372.932	296.19
373.158	267.19
373.384	296.19
373.61	290.19
373.835	286.19
374.061	297.19
374.287	296.19
374.513	293.19
374.739	293.19
374.965	291.19
375.191	298.19
375.416	274.19
375.642	276.19
375.868	272.19
376.094	282.19
376.319	282.19
376.545	282.19
376.771	271.19
376.997	275.19
377.222	306.19
377.448	294.19
377.674	273.19
377.899	284.19
378.125	280.19
378.35	273.19
378.576	268.19
378.802	287.19
379.027	307.19
379.253	289.19
379.478	260.19
379.704	282.19
379.929	285.19
380.155	292.19
380.38	280.19
380.606	281.19
380.831	286.19
381.057	263.19
381.282	300.19
381.507	283.19
381.733	296.19
381.958	293.19
382.184	280.19
382.409	291.19
382.634	290.19
382.86	292.19
383.085	312.19
383.31	297.19
383.535	284.19
383.761	279.19
383.986	289.19
384.211	306.19
384.436	281.19
384.662	294.19
384.887	283.19
385.112	297.19
385.337	302.19
385.562	294.19
385.787	303.19
386.013	314.19
386.238	323.19
386.463	308.19
386.688	305.19
386.913	286.19
387.138	295.19
387.363	317.19
387.588	314.19
387.813	302.19
388.038	300.19
388.263	307.19
388.488	291.19
388.713	318.19
388.938	329.19
389.163	308.19
389.387	314.19
389.612	323.19
389.837	297.19
390.062	299.19
390.287	326.19
390.512	314.19
390.736	299.19
390.961	299.19
391.186	302.19
391.411	309.19
391.636	317.19
391.86	304.19
392.085	312.19
392.31	298.19
392.534	325.19
392.759	312.19
392.984	318.19
393.208	329.19
393.433	318.19
393.658	342.19
393.882	320.19
394.107	320.19
394.331	317.19
394.556	327.19
394.78	317.19
395.005	318.19
395.229	315.19
395.454	327.19
395.678	328.19
395.903	324.19
396.127	326.19
396.352	339.19
396.576	322.19
396.801	321.19
397.025	318.19
397.249	327.19
397.474	334.19
397.698	353.19
397.922	352.19
398.147	358.19
398.371	352.19
398.595	342.19
398.82	334.19
399.044	364.19
399.268	369.19
399.492	374.19
399.717	388.19
399.941	384.19
400.165	407.19
400.389	437.19
400.613	416.19
400.837	384.19
401.062	361.19
401.286	350.19
401.51	364.19
401.734	375.19
401.958	353.19
402.182	340.19
402.406	350.19
402.63	364.19
402.854	359.19
403.078	350.19
403.302	352.19
403.526	372.19
403.75	354.19
403.974	363.19
404.198	354.19
404.422	341.19
404.645	371.19
404.869	376.19
405.093	402.19
405.317	419.19
405.541	441.19
405.765	409.19
405.988	398.19
406.212	384.19
406.436	394.19
406.66	400.19
406.883	398.19
407.107	425.19
407.331	438.19
407.555	460.19
407.778	459.19
408.002	433.19
408.226	407.19
408.449	396.19
408.673	390.19
408.896	409.19
409.12	440.19
409.344	418.19
409.567	380.19
409.791	390.19
410.014	390.19
410.238	386.19
410.461	353.19
410.685	358.19
410.908	394.19
411.132	425.19
411.355	427.19
411.578	396.19
411.802	368.19
412.025	366.19
412.249	394.19
412.472	372.19
412.695	418.19
412.919	387.19
413.142	366.19
413.365	372.19
413.589	368.19
413.812	347.19
414.035	351.19
414.258	353.19
414.482	346.19
414.705	346.19
414.928	363.19
415.151	342.19
415.374	335.19
415.597	344.19
415.821	345.19
416.044	357.19
416.267	360.19
416.49	347.19
416.713	360.19
416.936	350.19
417.159	340.19
417.382	330.19
417.605	347.19
417.828	347.19
418.051	369.19
418.274	354.19
418.497	366.19
418.72	351.19
418.943	340.19
419.166	366.19
419.389	385.19
419.611	378.19
419.834	361.19
420.057	364.19
420.28	368.19
420.503	360.19
420.726	366.19
420.948	385.19
421.171	392.19
421.394	409.19
421.617	354.19
421.839	331.19
422.062	373.19
422.285	380.19
422.507	408.19
422.73	452.19
422.953	444.19
423.175	389.19
423.398	362.19
423.621	343.19
423.843	388.19
424.066	392.19
424.288	373.19
424.511	410.19
424.733	425.19
424.956	498.19
425.178	460.19
425.401	471.19
425.623	488.19
425.846	411.19
426.068	416.19
426.291	401.19
426.513	379.19
426.735	402.19
426.958	436.19
427.18	470.19
427.402	574.19
427.625	612.19
427.847	538.19
428.069	482.19
428.292	439.19
428.514	416.19
428.736	364.19
428.958	382.19
429.181	366.19
429.403	371.19
429.625	362.19
429.847	397.19
430.069	435.19
430.292	427.19
430.514	384.19
430.736	374.19
430.958	356.19
431.18	346.19
431.402	347.19
431.624	352.19
431.846	325.19
432.068	339.19
432.29	341.19
432.512	351.19
432.734	352.19
432.956	341.19
433.178	353.19
433.4	359.19
433.622	352.19
433.844	378.19
434.066	350.19
434.287	345.19
434.509	339.19
434.731	359.19
434.953	354.19
435.175	374.19
435.397	400.19
435.618	392.19
435.84	416.19
436.062	491.19
436.284	527.19
436.505	438.19
436.727	390.19
436.949	378.19
437.17	361.19
437.392	382.19
437.614	371.19
437.835	406.19
438.057	446.19
438.278	522.19
438.5	502.19
438.721	596.19
438.943	574.19
439.165	446.19
439.386	418.19
439.608	380.19
439.829	399.19
440.05	427.19
440.272	446.19
440.493	418.19
440.715	376.19
440.936	378.19
441.158	366.19
441.379	369.19
441.6	371.19
441.822	387.19
442.043	423.19
442.264	472.19
442.486	498.19
442.707	444.19
442.928	416.19
443.149	417.19
443.371	427.19
443.592	458.19
443.813	510.19
444.034	549.19
444.255	464.19
444.476	402.19
444.698	394.19
444.919	378.19
445.14	539.19
445.361	473.19
445.582	434.19
445.803	487.19
446.024	532.19
446.245	512.19
446.466	482.19
446.687	430.19
446.908	410.19
447.129	379.19
447.35	362.19
447.571	363.19
447.792	347.19
448.013	381.19
448.234	386.19
448.455	418.19
448.675	497.19
448.896	571.19
449.117	484.19
449.338	468.19
449.559	551.19
449.779	602.19
450	495.19
450.221	403.19
450.442	365.19
450.662	355.19
450.883	360.19
451.104	368.19
451.324	370.19
451.545	346.19
451.766	355.19
451.986	337.19
452.207	319.19
452.428	303.19
452.648	336.19
452.869	325.19
453.089	346.19
453.31	355.19
453.53	333.19
453.751	330.19
453.971	346.19
454.192	357.19
454.412	337.19
454.633	331.19
454.853	323.19
455.073	326.19
455.294	342.19
455.514	395.19
455.734	386.19
455.955	343.19
456.175	307.19
456.395	305.19
456.616	320.19
456.836	320.19
457.056	327.19
457.276	311.19
457.497	328.19
457.717	313.19
457.937	328.19
458.157	334.19
458.377	337.19
458.598	345.19
458.818	390.19
459.038	439.19
459.258	449.19
459.478	377.19
459.698	348.19
459.918	320.19
460.138	355.19
460.358	351.19
460.578	362.19
460.798	332.19
461.018	359.19
461.238	350.19
461.458	343.19
461.678	354.19
461.898	368.19
462.118	338.19
462.338	341.19
462.558	356.19
462.777	374.19
462.997	376.19
463.217	370.19
463.437	390.19
463.657	380.19
463.876	374.19
464.096	371.19
464.316	374.19
464.536	374.19
464.755	383.19
464.975	370.19
465.195	421.19
465.414	463.19
465.634	410.19
465.854	390.19
466.073	378.19
466.293	355.19
466.512	362.19
466.732	355.19
466.951	340.19
467.171	345.19
467.391	336.19
467.61	352.19
467.829	345.19
468.049	350.19
468.268	350.19
468.488	351.19
468.707	339.19
468.927	336.19
469.146	335.19
469.365	340.19
469.585	338.19
469.804	331.19
470.023	336.19
470.243	351.19
470.462	327.19
470.681	357.19
470.901	372.19
471.12	348.19
471.339	350.19
471.558	328.19
471.777	353.19
471.997	347.19
472.216	358.19
472.435	372.19
472.654	361.19
472.873	364.19
473.092	356.19
473.311	352.19
473.53	344.19
473.749	349.19
473.968	384.19
474.187	455.19
474.406	457.19
474.625	374.19
474.844	354.19
475.063	334.19
475.282	363.19
475.501	368.19
475.72	357.19
475.939	366.19
476.158	360.19
476.377	349.19
476.596	335.19
476.814	357.19
477.033	361.19
477.252	371.19
477.471	368.19
477.69	370.19
477.908	380.19
478.127	370.19
478.346	372.19
478.564	389.19
478.783	379.19
479.002	390.19
479.22	404.19
479.439	394.19
479.658	405.19
479.876	408.19
480.095	414.19
480.313	435.19
480.532	443.19
480.751	436.19
480.969	438.19
481.188	486.19
481.406	490.19
481.624	418.19
481.843	412.19
482.061	403.19
482.28	402.19
482.498	390.19
482.717	401.19
482.935	406.19
483.153	418.19
483.372	409.19
483.59	408.19
483.808	404.19
484.027	410.19
484.245	411.19
484.463	419.19
484.681	390.19
484.9	426.19
485.118	415.19
485.336	395.19
485.554	430.19
485.772	406.19
485.99	422.19
486.209	434.19
486.427	415.19
486.645	430.19
486.863	450.19
487.081	426.19
487.299	429.19
487.517	413.19
487.735	442.19
487.953	417.19
488.171	417.19
488.389	428.19
488.607	421.19
488.825	451.19
489.043	447.19
489.261	437.19
489.479	439.19
489.696	436.19
489.914	452.19
490.132	444.19
490.35	427.19
490.568	467.19
490.786	468.19
491.003	465.19
491.221	459.19
491.439	443.19
491.657	482.19
491.874	482.19
492.092	495.19
492.31	492.19
492.527	484.19
492.745	496.19
492.963	483.19
493.18	501.19
493.398	504.19
493.615	510.19
493.833	512.19
494.05	487.19
494.268	484.19
494.485	515.19
494.703	489.19
494.92	510.19
495.138	488.19
495.355	502.19
495.573	523.19
495.79	508.19
496.008	518.19
496.225	495.19
496.442	491.19
496.66	524.19
496.877	512.19
497.094	511.19
497.312	548.19
497.529	522.19
497.746	542.19
497.963	533.19
498.181	554.19
498.398	566.19
498.615	568.19
498.832	592.19
499.049	581.19
499.267	600.19
499.484	576.19
499.701	614.19
499.918	638.19
500.135	617.19
500.352	649.19
500.569	656.19
500.786	673.19
501.003	660.19
501.22	638.19
501.437	630.19
501.654	643.19
501.871	624.19
502.088	623.19
502.305	597.19
502.522	587.19
502.739	561.19
502.956	570.19
503.172	552.19
503.389	538.19
503.606	548.19
503.823	548.19
504.04	539.19
504.256	520.19
504.473	510.19
504.69	551.19
504.907	519.19
505.123	503.19
505.34	507.19
505.557	507.19
505.773	507.19
505.99	492.19
506.207	489.19
506.423	478.19
506.64	478.19
506.856	492.19
507.073	484.19
507.289	483.19
507.506	484.19
507.722	488.19
507.939	504.19
508.155	497.19
508.372	482.19
508.588	466.19
508.805	459.19
509.021	457.19
509.238	490.19
509.454	469.19
509.67	479.19
509.887	496.19
510.103	475.19
510.319	473.19
510.536	569.19
510.752	858.19
510.968	718.19
511.184	491.19
511.401	455.19
511.617	474.19
511.833	443.19
512.049	460.19
512.265	461.19
512.481	444.19
512.698	411.19
512.914	474.19
513.13	450.19
513.346	450.19
513.562	449.19
513.778	438.19
513.994	469.19
514.21	457.19
514.426	471.19
514.642	507.19
514.858	516.19
515.074	527.19
515.29	627.19
515.506	892.19
515.721	748.19
515.937	534.19
516.153	522.19
516.369	478.19
516.585	479.19
516.801	470.19
517.016	476.19
517.232	486.19
517.448	453.19
517.664	465.19
517.879	451.19
518.095	457.19
518.311	460.19
518.527	447.19
518.742	462.19
518.958	443.19
519.173	466.19
519.389	456.19
519.605	458.19
519.82	471.19
520.036	473.19
520.251	449.19
520.467	497.19
520.682	487.19
520.898	504.19
521.113	508.19
521.329	542.19
521.544	588.19
521.76	717.19
521.975	1150.19
522.19	1131.19
522.406	656.19
522.621	508.19
522.836	479.19
523.052	445.19
523.267	437.19
523.482	438.19
523.698	436.19
523.913	422.19
524.128	434.19
524.343	425.19
524.559	402.19
524.774	414.19
524.989	403.19
525.204	396.19
525.419	390.19
525.634	387.19
525.849	383.19
526.064	380.19
526.28	394.19
526.495	376.19
526.71	391.19
526.925	372.19
527.14	379.19
527.355	380.19
527.57	375.19
527.785	374.19
527.999	371.19
528.214	378.19
528.429	372.19
528.644	386.19
528.859	387.19
529.074	384.19
529.289	386.19
529.503	447.19
529.718	439.19
529.933	386.19
530.148	380.19
530.363	379.19
530.577	374.19
530.792	371.19
531.007	354.19
531.221	382.19
531.436	360.19
531.651	376.19
531.865	361.19
532.08	370.19
532.295	368.19
532.509	347.19
532.724	350.19
532.938	372.19
533.153	368.19
533.367	371.19
533.582	372.19
533.796	361.19
534.011	345.19
534.225	351.19
534.44	340.19
534.654	335.19
534.868	367.19
535.083	348.19
535.297	354.19
535.511	351.19
535.726	362.19
535.94	370.19
536.154	371.19
536.369	372.19
536.583	361.19
536.797	346.19
537.011	361.19
537.225	344.19
537.44	343.19
537.654	346.19
537.868	336.19
538.082	350.19
538.296	337.19
538.51	357.19
538.724	351.19
538.938	335.19
539.153	363.19
539.367	351.19
539.581	349.19
539.795	330.19
540.009	342.19
540.222	358.19
540.436	347.19
540.65	347.19
540.864	335.19
541.078	351.19
541.292	359.19
541.506	359.19
541.72	353.19
541.934	331.19
542.147	327.19
542.361	347.19
542.575	355.19
542.789	324.19
543.002	334.19
543.216	348.19
543.43	346.19
543.644	338.19
543.857	341.19
544.071	330.19
544.285	353.19
544.498	341.19
544.712	349.19
544.925	344.19
545.139	324.19
545.352	346.19
545.566	320.19
545.779	311.19
545.993	330.19
546.206	356.19
546.42	336.19
546.633	350.19
546.847	343.19
547.06	315.19
547.274	339.19
547.487	309.19
547.7	332.19
547.914	341.19
548.127	338.19
548.34	333.19
548.554	331.19
548.767	322.19
548.98	333.19
549.193	324.19
549.407	320.19
549.62	320.19
549.833	328.19
550.046	330.19
550.259	339.19
550.473	322.19
550.686	350.19
550.899	326.19
551.112	329.19
551.325	313.19
551.538	318.19
551.751	323.19
551.964	323.19
552.177	332.19
552.39	332.19
552.603	320.19
552.816	346.19
553.029	332.19
553.242	324.19
553.455	342.19
553.667	329.19
553.88	343.19
554.093	326.19
554.306	346.19
554.519	344.19
554.732	327.19
554.944	314.19
555.157	305.19
555.37	313.19
555.583	317.19
555.795	339.19
556.008	328.19
556.221	308.19
556.433	320.19
556.646	315.19
556.859	303.19
557.071	315.19
557.284	307.19
557.496	306.19
557.709	300.19
557.921	302.19
558.134	296.19
558.346	287.19
558.559	310.19
558.771	294.19
558.984	302.19
559.196	314.19
559.409	299.19
559.621	298.19
559.833	295.19
560.046	298.19
560.258	287.19
560.47	308.19
560.683	299.19
560.895	311.19
561.107	297.19
561.32	317.19
561.532	290.19
561.744	303.19
561.956	290.19
562.168	290.19
562.381	310.19
562.593	294.19
562.805	298.19
563.017	304.19
563.229	302.19
563.441	300.19
563.653	303.19
563.865	294.19
564.077	304.19
564.289	308.19
564.501	313.19
564.713	328.19
564.925	312.19
565.137	324.19
565.349	317.19
565.561	324.19
565.773	305.19
565.985	318.19
566.197	310.19
566.408	334.19
566.62	345.19
566.832	345.19
567.044	345.19
567.255	332.19
567.467	355.19
567.679	361.19
567.891	341.19
568.102	347.19
568.314	328.19
568.526	343.19
568.737	338.19
568.949	326.19
569.161	306.19
569.372	318.19
569.584	304.19
569.795	307.19
570.007	304.19
570.218	332.19
570.43	307.19
570.641	297.19
570.853	295.19
571.064	295.19
571.276	255.19
571.487	284.19
571.698	277.19
571.91	267.19
572.121	257.19
572.333	282.19
572.544	266.19
572.755	284.19
572.966	267.19
573.178	281.19
573.389	260.19
573.6	282.19
573.811	261.19
574.023	244.19
574.234	276.19
574.445	252.19
574.656	263.19
574.867	271.19
575.078	268.19
575.289	273.19
575.501	260.19
575.712	266.19
575.923	258.19
576.134	266.19
576.345	260.19
576.556	266.19
576.767	261.19
576.978	268.19
577.188	247.19
577.399	242.19
577.61	264.19
577.821	256.19
578.032	263.19
578.243	288.19
578.454	421.19
578.665	316.19
578.875	261.19
579.086	246.19
579.297	247.19
579.508	251.19
579.718	250.19
579.929	254.19
580.14	235.19
580.35	259.19
580.561	239.19
580.772	234.19
580.982	250.19
581.193	251.19
581.403	243.19
581.614	258.19
581.825	248.19
582.035	236.19
582.246	242.19
582.456	235.19
582.667	234.19
582.877	234.19
583.087	234.19
583.298	240.19
583.508	249.19
583.719	228.19
583.929	235.19
584.139	226.19
584.35	233.19
584.56	247.19
584.77	246.19
584.981	243.19
585.191	262.19
585.401	250.19
585.611	236.19
585.821	234.19
586.032	241.19
586.242	218.19
586.452	218.19
586.662	230.19
586.872	241.19
587.082	236.19
587.292	234.19
587.502	220.19
587.713	229.19
587.923	225.19
588.133	225.19
588.343	231.19
588.553	235.19
588.762	240.19
588.972	227.19
589.182	247.19
589.392	233.19
589.602	232.19
589.812	247.19
590.022	242.19
590.232	210.19
590.441	231.19
590.651	225.19
590.861	222.19
591.071	214.19
591.281	221.19
591.49	222.19
591.7	224.19
591.91	217.19
592.119	221.19
592.329	246.19
592.539	234.19
592.748	231.19
592.958	227.19
593.167	231.19
593.377	232.19
593.587	234.19
593.796	222.19
594.006	246.19
594.215	224.19
594.424	226.19
594.634	233.19
594.843	218.19
595.053	236.19
595.262	241.19
595.472	248.19
595.681	219.19
595.89	230.19
596.1	223.19
596.309	217.19
596.518	210.19
596.727	219.19
596.937	226.19
597.146	220.19
597.355	213.19
597.564	216.19
597.774	231.19
597.983	202.19
598.192	207.19
598.401	211.19
598.61	227.19
598.819	219.19
599.028	198.19
599.237	223.19
599.446	204.19
599.655	207.19
599.864	188.19
600.073	199.19
600.282	218.19
600.491	224.19
600.7	207.19
600.909	217.19
601.118	201.19
601.327	203.19
601.536	194.19
601.745	199.19
601.953	194.19
602.162	214.19
602.371	190.19
602.58	195.19
602.789	203.19
602.997	199.19
603.206	218.19
603.415	198.19
603.623	203.19
603.832	199.19
604.041	194.19
604.249	188.19
604.458	196.19
604.666	202.19
604.875	218.19
605.084	206.19
605.292	191.19
605.501	204.19
605.709	185.19
605.918	193.19
606.126	194.19
606.334	199.19
606.543	184.19
606.751	191.19
606.96	182.19
607.168	199.19
607.376	202.19
607.585	205.19
607.793	189.19
608.001	178.19
608.21	210.19
608.418	200.19
608.626	188.19
608.834	183.19
609.043	190.19
609.251	185.19
609.459	186.19
609.667	212.19
609.875	203.19
610.083	195.19
610.291	188.19
610.499	201.19
610.707	197.19
610.916	196.19
611.124	189.19
611.332	196.19
611.54	195.19
611.748	199.19
611.955	199.19
612.163	186.19
612.371	191.19
612.579	187.19
612.787	185.19
612.995	195.19
613.203	193.19
613.411	196.19
613.618	204.19
613.826	195.19
614.034	171.19
614.242	193.19
614.449	198.19
614.657	195.19
614.865	209.19
615.072	186.19
615.28	199.19
615.488	194.19
615.695	181.19
615.903	193.19
616.111	183.19
616.318	187.19
616.526	201.19
616.733	204.19
616.941	190.19
617.148	177.19
617.356	193.19
617.563	195.19
617.771	190.19
617.978	196.19
618.185	180.19
618.393	175.19
618.6	183.19
618.807	167.19
619.015	184.19
619.222	176.19
619.429	171.19
619.637	186.19
619.844	193.19
620.051	199.19
620.258	188.19
620.466	169.19
620.673	176.19
620.88	172.19
621.087	175.19
621.294	182.19
621.501	193.19
621.708	194.19
621.915	193.19
622.122	182.19
622.329	185.19
622.536	176.19
622.743	176.19
622.95	166.19
623.157	179.19
623.364	167.19
623.571	172.19
623.778	166.19
623.985	173.19
624.192	179.19
624.399	153.19
624.606	174.19
624.812	175.19
625.019	176.19
625.226	165.19
625.433	178.19
625.639	159.19
625.846	161.19
626.053	154.19
626.259	159.19
626.466	167.19
626.673	179.19
626.879	168.19
627.086	160.19
627.293	168.19
627.499	166.19
627.706	175.19
627.912	180.19
628.119	151.19
628.325	164.19
628.532	174.19
628.738	178.19
628.945	181.19
629.151	162.19
629.357	168.19
629.564	148.19
629.77	167.19
629.976	179.19
630.183	162.19
630.389	161.19
630.595	152.19
630.802	174.19
631.008	172.19
631.214	157.19
631.42	167.19
631.627	160.19
631.833	140.19
632.039	155.19
632.245	160.19
632.451	156.19
632.657	168.19
632.863	158.19
633.069	150.19
633.275	162.19
633.481	150.19
633.688	152.19
633.893	155.19
634.099	148.19
634.305	158.19
634.511	162.19
634.717	160.19
634.923	157.19
635.129	154.19
635.335	162.19
635.541	151.19
635.747	160.19
635.952	161.19
636.158	150.19
636.364	159.19
636.57	155.19
636.775	157.19
636.981	167.19
637.187	153.19
637.392	144.19
637.598	135.19
637.804	157.19
638.009	164.19
638.215	167.19
638.421	162.19
638.626	148.19
638.832	134.19
639.037	145.19
639.243	145.19
639.448	142.19
639.654	154.19
639.859	160.19
640.065	166.19
640.27	140.19
640.475	137.19
640.681	139.19
640.886	155.19
641.091	150.19
641.297	144.19
641.502	159.19
641.707	123.19
641.913	150.19
642.118	153.19
642.323	138.19
642.528	132.19
642.733	137.19
642.939	156.19
643.144	146.19
643.349	146.19
643.554	151.19
643.759	129.19
643.964	144.19
644.169	150.19
644.374	143.19
644.579	146.19
644.784	135.19
644.989	140.19
645.194	141.19
645.399	138.19
645.604	142.19
645.809	135.19
646.014	150.19
646.219	140.19
646.423	139.19
646.628	132.19
646.833	138.19
647.038	143.19
647.243	146.19
647.447	155.19
647.652	143.19
647.857	142.19
648.062	146.19
648.266	146.19
648.471	152.19
648.676	157.19
648.88	140.19
649.085	157.19
649.289	139.19
649.494	142.19
649.698	158.19
649.903	154.19
650.107	156.19
650.312	162.19
650.516	130.19
650.721	139.19
650.925	132.19
651.13	141.19
651.334	130.19
651.539	126.19
651.743	130.19
651.947	129.19
652.152	126.19
652.356	128.19
652.56	137.19
652.764	126.19
652.969	124.19
653.173	126.19
653.377	116.19
653.581	118.19
653.785	132.19
653.99	133.19
654.194	131.19
654.398	131.19
654.602	114.19
654.806	120.19
655.01	123.19
655.214	138.19
655.418	116.19
655.622	110.19
655.826	102.19
656.03	122.19
656.234	112.19
656.438	108.19
656.642	107.19
656.846	134.19
657.049	128.19
657.253	112.19
657.457	116.19
657.661	101.19
657.865	95.19
658.068	92.19
658.272	105.19
658.476	102.19
658.68	103.19
658.883	99.19
659.087	99.19
659.291	95.19
659.494	85.19
659.698	79.19
659.901	92.19
660.105	96.19
660.309	89.19
660.512	92.19
660.716	95.19
660.919	88.19
661.123	98.19
661.326	91.19
661.53	87.19
661.733	83.19
661.936	82.19
662.14	82.19
662.343	90.19
662.546	91.19
662.75	87.19
662.953	86.19
663.156	79.19
663.36	74.19
663.563	88.19
663.766	76.19
663.969	88.19
664.173	86.19
664.376	74.19
664.579	83.19
664.782	82.19
664.985	87.19
665.188	82.19
665.391	84.19
665.594	85.19
665.797	54.19
666	87.19
666.203	82.19
666.406	89.19
666.609	92.19
666.812	84.19
667.015	80.19
667.218	74.19
667.421	79.19
667.624	90.19
667.827	91.19
668.03	73.19
668.232	92.19
668.435	70.19
668.638	85.19
668.841	80.19
669.043	77.19
669.246	77.19
669.449	77.19
669.651	85.19
669.854	77.19
670.057	89.19
670.259	82.19
670.462	85.19
670.665	90.19
670.867	81.19
671.07	79.19
671.272	73.19
671.475	86.19
671.677	97.19
671.88	87.19
672.082	68.19
672.284	96.19
672.487	82.19
672.689	73.19
672.892	75.19
