Data from 1961.PennyLincolnUp.Lamp.En5.5.200Scan.071719.P1._HRD10591_13-46-25-057.txt Node
Date: Thu Jul 18 13:46:25 EDT 2019
User: cochatt
Spectrometer: HR+D1059
Trigger mode: 1
Integration Time (sec): 1.000000E-1
Scans to average: 1
Electric dark correction enabled: true
Nonlinearity correction enabled: false
Boxcar width: 0
XAxis mode: Wavelengths
Number of Pixels in Spectrum: 2048
>>>>>Begin Spectral Data<<<<<
223.165	-6.69
223.4	-6.69
223.635	-6.69
223.869	-21.69
224.104	-31.69
224.338	-5.69
224.573	-18.69
224.808	-4.69
225.042	2.31
225.277	5.31
225.511	-14.69
225.746	6.31
225.98	4.31
226.215	8.31
226.449	14.31
226.683	11.31
226.918	22.31
227.152	29.31
227.387	36.31
227.621	24.31
227.856	30.31
228.09	34.31
228.324	51.31
228.559	55.31
228.793	53.31
229.027	89.31
229.262	84.31
229.496	87.31
229.73	95.31
229.964	117.31
230.199	109.31
230.433	105.31
230.667	106.31
230.901	98.31
231.136	85.31
231.37	95.31
231.604	86.31
231.838	99.31
232.072	101.31
232.306	83.31
232.541	97.31
232.775	94.31
233.009	93.31
233.243	78.31
233.477	117.31
233.711	104.31
233.945	90.31
234.179	99.31
234.413	101.31
234.647	94.31
234.881	100.31
235.115	93.31
235.349	101.31
235.583	105.31
235.817	97.31
236.051	94.31
236.285	104.31
236.519	99.31
236.753	112.31
236.987	109.31
237.221	149.31
237.455	175.31
237.689	147.31
237.922	112.31
238.156	98.31
238.39	106.31
238.624	111.31
238.858	107.31
239.091	106.31
239.325	111.31
239.559	110.31
239.793	101.31
240.027	115.31
240.26	111.31
240.494	108.31
240.728	109.31
240.961	124.31
241.195	111.31
241.429	105.31
241.662	99.31
241.896	105.31
242.13	119.31
242.363	100.31
242.597	106.31
242.83	102.31
243.064	116.31
243.298	110.31
243.531	114.31
243.765	100.31
243.998	119.31
244.232	111.31
244.465	106.31
244.699	121.31
244.932	119.31
245.166	113.31
245.399	109.31
245.633	117.31
245.866	110.31
246.099	122.31
246.333	128.31
246.566	113.31
246.8	131.31
247.033	113.31
247.266	111.31
247.5	128.31
247.733	121.31
247.966	119.31
248.2	119.31
248.433	120.31
248.666	139.31
248.899	137.31
249.133	142.31
249.366	147.31
249.599	130.31
249.832	142.31
250.066	153.31
250.299	142.31
250.532	174.31
250.765	158.31
250.998	164.31
251.231	149.31
251.465	139.31
251.698	153.31
251.931	143.31
252.164	151.31
252.397	138.31
252.63	158.31
252.863	147.31
253.096	133.31
253.329	152.31
253.562	166.31
253.795	167.31
254.028	154.31
254.261	170.31
254.494	176.31
254.727	181.31
254.96	191.31
255.193	190.31
255.426	164.31
255.659	158.31
255.892	167.31
256.124	184.31
256.357	168.31
256.59	174.31
256.823	175.31
257.056	174.31
257.289	151.31
257.521	160.31
257.754	151.31
257.987	157.31
258.22	157.31
258.452	155.31
258.685	153.31
258.918	139.31
259.151	152.31
259.383	159.31
259.616	153.31
259.849	155.31
260.081	174.31
260.314	173.31
260.547	186.31
260.779	161.31
261.012	160.31
261.244	167.31
261.477	153.31
261.71	147.31
261.942	177.31
262.175	162.31
262.407	164.31
262.64	163.31
262.872	165.31
263.105	162.31
263.337	154.31
263.57	154.31
263.802	150.31
264.035	152.31
264.267	161.31
264.499	153.31
264.732	165.31
264.964	168.31
265.197	152.31
265.429	150.31
265.661	145.31
265.894	152.31
266.126	149.31
266.358	153.31
266.591	166.31
266.823	151.31
267.055	166.31
267.287	158.31
267.52	157.31
267.752	176.31
267.984	159.31
268.216	153.31
268.448	176.31
268.681	182.31
268.913	170.31
269.145	184.31
269.377	188.31
269.609	196.31
269.841	189.31
270.073	162.31
270.306	209.31
270.538	187.31
270.77	197.31
271.002	188.31
271.234	191.31
271.466	194.31
271.698	196.31
271.93	203.31
272.162	210.31
272.394	217.31
272.626	211.31
272.858	192.31
273.09	197.31
273.322	189.31
273.553	184.31
273.785	175.31
274.017	186.31
274.249	181.31
274.481	186.31
274.713	176.31
274.945	182.31
275.176	174.31
275.408	191.31
275.64	180.31
275.872	187.31
276.104	198.31
276.335	192.31
276.567	194.31
276.799	174.31
277.031	202.31
277.262	208.31
277.494	213.31
277.726	201.31
277.957	197.31
278.189	193.31
278.421	190.31
278.652	185.31
278.884	196.31
279.115	179.31
279.347	202.31
279.579	203.31
279.81	190.31
280.042	187.31
280.273	195.31
280.505	194.31
280.736	198.31
280.968	192.31
281.199	194.31
281.431	196.31
281.662	170.31
281.894	191.31
282.125	195.31
282.356	207.31
282.588	198.31
282.819	204.31
283.051	197.31
283.282	204.31
283.513	184.31
283.745	201.31
283.976	185.31
284.207	180.31
284.439	197.31
284.67	197.31
284.901	194.31
285.132	198.31
285.364	201.31
285.595	198.31
285.826	208.31
286.057	202.31
286.288	191.31
286.52	198.31
286.751	193.31
286.982	189.31
287.213	203.31
287.444	195.31
287.675	194.31
287.906	201.31
288.138	220.31
288.369	211.31
288.6	207.31
288.831	214.31
289.062	214.31
289.293	214.31
289.524	201.31
289.755	202.31
289.986	207.31
290.217	203.31
290.448	199.31
290.679	193.31
290.91	195.31
291.141	200.31
291.371	187.31
291.602	203.31
291.833	205.31
292.064	215.31
292.295	192.31
292.526	211.31
292.757	190.31
292.987	211.31
293.218	194.31
293.449	204.31
293.68	216.31
293.91	201.31
294.141	198.31
294.372	207.31
294.603	213.31
294.833	213.31
295.064	207.31
295.295	208.31
295.525	208.31
295.756	225.31
295.987	229.31
296.217	208.31
296.448	226.31
296.679	216.31
296.909	205.31
297.14	196.31
297.37	224.31
297.601	221.31
297.831	200.31
298.062	206.31
298.292	197.31
298.523	210.31
298.753	200.31
298.984	203.31
299.214	202.31
299.445	225.31
299.675	215.31
299.905	222.31
300.136	210.31
300.366	202.31
300.597	218.31
300.827	218.31
301.057	224.31
301.288	228.31
301.518	224.31
301.748	219.31
301.979	233.31
302.209	229.31
302.439	236.31
302.669	228.31
302.9	238.31
303.13	225.31
303.36	232.31
303.59	226.31
303.82	218.31
304.051	250.31
304.281	241.31
304.511	222.31
304.741	217.31
304.971	228.31
305.201	233.31
305.431	214.31
305.661	222.31
305.891	235.31
306.121	240.31
306.352	224.31
306.582	237.31
306.812	243.31
307.042	223.31
307.272	216.31
307.502	229.31
307.731	221.31
307.961	234.31
308.191	221.31
308.421	239.31
308.651	223.31
308.881	230.31
309.111	258.31
309.341	253.31
309.571	239.31
309.8	242.31
310.03	257.31
310.26	254.31
310.49	254.31
310.72	257.31
310.949	287.31
311.179	257.31
311.409	255.31
311.639	264.31
311.868	258.31
312.098	267.31
312.328	279.31
312.557	283.31
312.787	271.31
313.017	274.31
313.246	273.31
313.476	258.31
313.706	253.31
313.935	275.31
314.165	278.31
314.394	274.31
314.624	267.31
314.853	267.31
315.083	258.31
315.312	263.31
315.542	256.31
315.771	257.31
316.001	251.31
316.23	257.31
316.46	264.31
316.689	267.31
316.919	259.31
317.148	273.31
317.377	254.31
317.607	262.31
317.836	242.31
318.065	247.31
318.295	253.31
318.524	255.31
318.753	260.31
318.983	258.31
319.212	267.31
319.441	264.31
319.67	269.31
319.9	265.31
320.129	254.31
320.358	274.31
320.587	271.31
320.816	269.31
321.046	265.31
321.275	271.31
321.504	286.31
321.733	278.31
321.962	263.31
322.191	305.31
322.42	307.31
322.649	286.31
322.878	284.31
323.108	317.31
323.337	335.31
323.566	331.31
323.795	339.31
324.024	365.31
324.253	455.31
324.482	676.31
324.71	1016.31
324.939	1366.31
325.168	1142.31
325.397	623.31
325.626	424.31
325.855	359.31
326.084	348.31
326.313	347.31
326.542	345.31
326.77	356.31
326.999	431.31
327.228	578.31
327.457	842.31
327.686	1026.31
327.914	679.31
328.143	470.31
328.372	418.31
328.6	388.31
328.829	361.31
329.058	373.31
329.287	379.31
329.515	337.31
329.744	348.31
329.972	351.31
330.201	347.31
330.43	372.31
330.658	387.31
330.887	381.31
331.115	406.31
331.344	376.31
331.572	328.31
331.801	345.31
332.03	325.31
332.258	304.31
332.486	305.31
332.715	315.31
332.943	314.31
333.172	300.31
333.4	310.31
333.629	306.31
333.857	336.31
334.085	323.31
334.314	349.31
334.542	353.31
334.771	359.31
334.999	322.31
335.227	329.31
335.455	311.31
335.684	322.31
335.912	332.31
336.14	297.31
336.369	287.31
336.597	302.31
336.825	293.31
337.053	305.31
337.281	298.31
337.51	291.31
337.738	311.31
337.966	289.31
338.194	303.31
338.422	322.31
338.65	312.31
338.878	306.31
339.106	297.31
339.334	275.31
339.562	293.31
339.79	276.31
340.018	286.31
340.246	314.31
340.474	298.31
340.702	309.31
340.93	295.31
341.158	287.31
341.386	295.31
341.614	313.31
341.842	294.31
342.07	300.31
342.298	303.31
342.526	289.31
342.754	295.31
342.981	273.31
343.209	297.31
343.437	299.31
343.665	287.31
343.893	290.31
344.12	293.31
344.348	277.31
344.576	312.31
344.804	307.31
345.031	304.31
345.259	306.31
345.487	296.31
345.714	311.31
345.942	281.31
346.17	277.31
346.397	278.31
346.625	278.31
346.853	277.31
347.08	310.31
347.308	281.31
347.535	289.31
347.763	303.31
347.99	298.31
348.218	317.31
348.445	287.31
348.673	313.31
348.9	295.31
349.128	276.31
349.355	272.31
349.583	286.31
349.81	290.31
350.037	296.31
350.265	282.31
350.492	285.31
350.72	266.31
350.947	285.31
351.174	286.31
351.402	286.31
351.629	283.31
351.856	289.31
352.083	320.31
352.311	322.31
352.538	302.31
352.765	294.31
352.992	311.31
353.22	296.31
353.447	309.31
353.674	267.31
353.901	273.31
354.128	275.31
354.355	262.31
354.583	273.31
354.81	279.31
355.037	285.31
355.264	267.31
355.491	258.31
355.718	263.31
355.945	260.31
356.172	276.31
356.399	273.31
356.626	262.31
356.853	273.31
357.08	282.31
357.307	275.31
357.534	265.31
357.761	257.31
357.988	288.31
358.215	292.31
358.441	291.31
358.668	265.31
358.895	267.31
359.122	274.31
359.349	265.31
359.576	286.31
359.802	287.31
360.029	294.31
360.256	314.31
360.483	299.31
360.709	301.31
360.936	285.31
361.163	298.31
361.39	295.31
361.616	291.31
361.843	279.31
362.07	278.31
362.296	294.31
362.523	293.31
362.749	297.31
362.976	293.31
363.203	272.31
363.429	283.31
363.656	298.31
363.882	281.31
364.109	268.31
364.335	279.31
364.562	302.31
364.788	267.31
365.015	281.31
365.241	301.31
365.468	281.31
365.694	295.31
365.92	301.31
366.147	267.31
366.373	275.31
366.599	272.31
366.826	280.31
367.052	280.31
367.278	278.31
367.505	286.31
367.731	275.31
367.957	271.31
368.184	294.31
368.41	277.31
368.636	288.31
368.862	286.31
369.089	281.31
369.315	299.31
369.541	300.31
369.767	275.31
369.993	281.31
370.219	274.31
370.445	272.31
370.672	295.31
370.898	271.31
371.124	277.31
371.35	274.31
371.576	287.31
371.802	276.31
372.028	277.31
372.254	264.31
372.48	290.31
372.706	278.31
372.932	285.31
373.158	269.31
373.384	299.31
373.61	272.31
373.835	288.31
374.061	274.31
374.287	305.31
374.513	286.31
374.739	293.31
374.965	285.31
375.191	278.31
375.416	283.31
375.642	301.31
375.868	289.31
376.094	278.31
376.319	274.31
376.545	287.31
376.771	300.31
376.997	278.31
377.222	278.31
377.448	275.31
377.674	267.31
377.899	267.31
378.125	278.31
378.35	283.31
378.576	290.31
378.802	277.31
379.027	271.31
379.253	289.31
379.478	271.31
379.704	291.31
379.929	308.31
380.155	291.31
380.38	289.31
380.606	282.31
380.831	291.31
381.057	295.31
381.282	280.31
381.507	285.31
381.733	289.31
381.958	282.31
382.184	284.31
382.409	306.31
382.634	301.31
382.86	285.31
383.085	296.31
383.31	293.31
383.535	295.31
383.761	290.31
383.986	293.31
384.211	301.31
384.436	307.31
384.662	316.31
384.887	317.31
385.112	317.31
385.337	297.31
385.562	287.31
385.787	307.31
386.013	335.31
386.238	309.31
386.463	311.31
386.688	314.31
386.913	301.31
387.138	312.31
387.363	299.31
387.588	309.31
387.813	308.31
388.038	317.31
388.263	318.31
388.488	301.31
388.713	305.31
388.938	309.31
389.163	305.31
389.387	315.31
389.612	295.31
389.837	303.31
390.062	309.31
390.287	304.31
390.512	312.31
390.736	314.31
390.961	311.31
391.186	302.31
391.411	308.31
391.636	306.31
391.86	311.31
392.085	309.31
392.31	306.31
392.534	332.31
392.759	309.31
392.984	320.31
393.208	288.31
393.433	337.31
393.658	321.31
393.882	325.31
394.107	317.31
394.331	322.31
394.556	312.31
394.78	309.31
395.005	303.31
395.229	325.31
395.454	327.31
395.678	313.31
395.903	335.31
396.127	344.31
396.352	337.31
396.576	313.31
396.801	329.31
397.025	331.31
397.249	317.31
397.474	331.31
397.698	319.31
397.922	351.31
398.147	316.31
398.371	337.31
398.595	340.31
398.82	361.31
399.044	364.31
399.268	373.31
399.492	379.31
399.717	378.31
399.941	400.31
400.165	419.31
400.389	408.31
400.613	393.31
400.837	369.31
401.062	368.31
401.286	344.31
401.51	365.31
401.734	338.31
401.958	356.31
402.182	348.31
402.406	353.31
402.63	378.31
402.854	354.31
403.078	354.31
403.302	354.31
403.526	351.31
403.75	349.31
403.974	360.31
404.198	346.31
404.422	354.31
404.645	377.31
404.869	376.31
405.093	401.31
405.317	428.31
405.541	439.31
405.765	396.31
405.988	369.31
406.212	360.31
406.436	395.31
406.66	407.31
406.883	387.31
407.107	398.31
407.331	430.31
407.555	465.31
407.778	460.31
408.002	429.31
408.226	403.31
408.449	378.31
408.673	390.31
408.896	391.31
409.12	441.31
409.344	401.31
409.567	376.31
409.791	358.31
410.014	373.31
410.238	360.31
410.461	362.31
410.685	396.31
410.908	395.31
411.132	402.31
411.355	425.31
411.578	420.31
411.802	369.31
412.025	352.31
412.249	371.31
412.472	385.31
412.695	410.31
412.919	405.31
413.142	370.31
413.365	370.31
413.589	354.31
413.812	351.31
414.035	346.31
414.258	366.31
414.482	359.31
414.705	345.31
414.928	343.31
415.151	359.31
415.374	358.31
415.597	343.31
415.821	344.31
416.044	349.31
416.267	351.31
416.49	350.31
416.713	331.31
416.936	343.31
417.159	326.31
417.382	342.31
417.605	363.31
417.828	354.31
418.051	334.31
418.274	338.31
418.497	341.31
418.72	346.31
418.943	357.31
419.166	351.31
419.389	358.31
419.611	375.31
419.834	343.31
420.057	367.31
420.28	332.31
420.503	341.31
420.726	358.31
420.948	369.31
421.171	397.31
421.394	427.31
421.617	363.31
421.839	366.31
422.062	358.31
422.285	377.31
422.507	401.31
422.73	453.31
422.953	445.31
423.175	414.31
423.398	372.31
423.621	373.31
423.843	374.31
424.066	360.31
424.288	385.31
424.511	386.31
424.733	432.31
424.956	488.31
425.178	442.31
425.401	461.31
425.623	480.31
425.846	414.31
426.068	370.31
426.291	380.31
426.513	386.31
426.735	401.31
426.958	423.31
427.18	470.31
427.402	567.31
427.625	607.31
427.847	533.31
428.069	482.31
428.292	405.31
428.514	397.31
428.736	371.31
428.958	386.31
429.181	369.31
429.403	379.31
429.625	358.31
429.847	381.31
430.069	431.31
430.292	441.31
430.514	376.31
430.736	358.31
430.958	358.31
431.18	349.31
431.402	352.31
431.624	333.31
431.846	338.31
432.068	351.31
432.29	377.31
432.512	337.31
432.734	347.31
432.956	344.31
433.178	374.31
433.4	354.31
433.622	349.31
433.844	339.31
434.066	349.31
434.287	366.31
434.509	348.31
434.731	351.31
434.953	372.31
435.175	383.31
435.397	383.31
435.618	394.31
435.84	418.31
436.062	464.31
436.284	528.31
436.505	424.31
436.727	411.31
436.949	369.31
437.17	378.31
437.392	351.31
437.614	376.31
437.835	391.31
438.057	425.31
438.278	509.31
438.5	530.31
438.721	571.31
438.943	535.31
439.165	435.31
439.386	385.31
439.608	398.31
439.829	399.31
440.05	432.31
440.272	459.31
440.493	423.31
440.715	375.31
440.936	359.31
441.158	370.31
441.379	354.31
441.6	368.31
441.822	373.31
442.043	410.31
442.264	471.31
442.486	491.31
442.707	422.31
442.928	406.31
443.149	407.31
443.371	421.31
443.592	426.31
443.813	513.31
444.034	552.31
444.255	448.31
444.476	415.31
444.698	385.31
444.919	401.31
445.14	519.31
445.361	464.31
445.582	410.31
445.803	468.31
446.024	514.31
446.245	510.31
446.466	479.31
446.687	412.31
446.908	406.31
447.129	377.31
447.35	369.31
447.571	360.31
447.792	363.31
448.013	375.31
448.234	384.31
448.455	422.31
448.675	493.31
448.896	553.31
449.117	498.31
449.338	490.31
449.559	513.31
449.779	583.31
450	454.31
450.221	392.31
450.442	381.31
450.662	366.31
450.883	367.31
451.104	388.31
451.324	344.31
451.545	362.31
451.766	336.31
451.986	314.31
452.207	315.31
452.428	319.31
452.648	343.31
452.869	328.31
453.089	336.31
453.31	352.31
453.53	333.31
453.751	329.31
453.971	332.31
454.192	343.31
454.412	335.31
454.633	345.31
454.853	321.31
455.073	309.31
455.294	338.31
455.514	404.31
455.734	379.31
455.955	329.31
456.175	316.31
456.395	327.31
456.616	318.31
456.836	326.31
457.056	286.31
457.276	304.31
457.497	291.31
457.717	309.31
457.937	335.31
458.157	318.31
458.377	325.31
458.598	333.31
458.818	383.31
459.038	425.31
459.258	419.31
459.478	381.31
459.698	370.31
459.918	359.31
460.138	351.31
460.358	351.31
460.578	347.31
460.798	355.31
461.018	350.31
461.238	348.31
461.458	325.31
461.678	341.31
461.898	354.31
462.118	343.31
462.338	359.31
462.558	375.31
462.777	371.31
462.997	373.31
463.217	374.31
463.437	371.31
463.657	366.31
463.876	366.31
464.096	356.31
464.316	370.31
464.536	344.31
464.755	355.31
464.975	386.31
465.195	399.31
465.414	435.31
465.634	395.31
465.854	353.31
466.073	350.31
466.293	378.31
466.512	359.31
466.732	343.31
466.951	335.31
467.171	333.31
467.391	353.31
467.61	342.31
467.829	350.31
468.049	340.31
468.268	342.31
468.488	349.31
468.707	325.31
468.927	336.31
469.146	338.31
469.365	318.31
469.585	345.31
469.804	345.31
470.023	331.31
470.243	330.31
470.462	332.31
470.681	350.31
470.901	366.31
471.12	342.31
471.339	331.31
471.558	369.31
471.777	346.31
471.997	350.31
472.216	351.31
472.435	369.31
472.654	362.31
472.873	338.31
473.092	346.31
473.311	351.31
473.53	354.31
473.749	353.31
473.968	392.31
474.187	433.31
474.406	442.31
474.625	382.31
474.844	365.31
475.063	362.31
475.282	336.31
475.501	331.31
475.72	357.31
475.939	365.31
476.158	339.31
476.377	351.31
476.596	353.31
476.814	378.31
477.033	353.31
477.252	346.31
477.471	360.31
477.69	380.31
477.908	393.31
478.127	379.31
478.346	360.31
478.564	365.31
478.783	404.31
479.002	392.31
479.22	406.31
479.439	389.31
479.658	396.31
479.876	394.31
480.095	419.31
480.313	424.31
480.532	410.31
480.751	399.31
480.969	431.31
481.188	467.31
481.406	489.31
481.624	432.31
481.843	431.31
482.061	407.31
482.28	415.31
482.498	405.31
482.717	417.31
482.935	383.31
483.153	388.31
483.372	403.31
483.59	411.31
483.808	382.31
484.027	411.31
484.245	418.31
484.463	406.31
484.681	417.31
484.9	399.31
485.118	422.31
485.336	402.31
485.554	416.31
485.772	410.31
485.99	414.31
486.209	418.31
486.427	419.31
486.645	422.31
486.863	443.31
487.081	444.31
487.299	434.31
487.517	430.31
487.735	406.31
487.953	432.31
488.171	419.31
488.389	432.31
488.607	441.31
488.825	442.31
489.043	431.31
489.261	441.31
489.479	441.31
489.696	436.31
489.914	425.31
490.132	444.31
490.35	450.31
490.568	434.31
490.786	443.31
491.003	457.31
491.221	448.31
491.439	480.31
491.657	474.31
491.874	462.31
492.092	484.31
492.31	497.31
492.527	485.31
492.745	468.31
492.963	479.31
493.18	490.31
493.398	509.31
493.615	501.31
493.833	485.31
494.05	505.31
494.268	482.31
494.485	489.31
494.703	504.31
494.92	487.31
495.138	482.31
495.355	504.31
495.573	519.31
495.79	498.31
496.008	527.31
496.225	498.31
496.442	512.31
496.66	515.31
496.877	518.31
497.094	533.31
497.312	523.31
497.529	538.31
497.746	529.31
497.963	541.31
498.181	557.31
498.398	546.31
498.615	563.31
498.832	574.31
499.049	569.31
499.267	593.31
499.484	614.31
499.701	616.31
499.918	621.31
500.135	641.31
500.352	673.31
500.569	632.31
500.786	651.31
501.003	673.31
501.22	665.31
501.437	639.31
501.654	612.31
501.871	625.31
502.088	605.31
502.305	595.31
502.522	573.31
502.739	570.31
502.956	564.31
503.172	557.31
503.389	524.31
503.606	533.31
503.823	518.31
504.04	520.31
504.256	524.31
504.473	519.31
504.69	531.31
504.907	521.31
505.123	529.31
505.34	492.31
505.557	501.31
505.773	489.31
505.99	491.31
506.207	490.31
506.423	486.31
506.64	490.31
506.856	455.31
507.073	476.31
507.289	459.31
507.506	468.31
507.722	484.31
507.939	507.31
508.155	487.31
508.372	458.31
508.588	459.31
508.805	456.31
509.021	446.31
509.238	454.31
509.454	465.31
509.67	466.31
509.887	450.31
510.103	456.31
510.319	472.31
510.536	519.31
510.752	819.31
510.968	643.31
511.184	458.31
511.401	445.31
511.617	449.31
511.833	430.31
512.049	451.31
512.265	459.31
512.481	452.31
512.698	433.31
512.914	414.31
513.13	443.31
513.346	433.31
513.562	456.31
513.778	464.31
513.994	455.31
514.21	451.31
514.426	456.31
514.642	495.31
514.858	493.31
515.074	528.31
515.29	616.31
515.506	832.31
515.721	703.31
515.937	511.31
516.153	457.31
516.369	484.31
516.585	465.31
516.801	450.31
517.016	440.31
517.232	453.31
517.448	453.31
517.664	470.31
517.879	440.31
518.095	479.31
518.311	433.31
518.527	468.31
518.742	449.31
518.958	448.31
519.173	433.31
519.389	429.31
519.605	436.31
519.82	435.31
520.036	438.31
520.251	452.31
520.467	462.31
520.682	481.31
520.898	463.31
521.113	488.31
521.329	498.31
521.544	556.31
521.76	660.31
521.975	1025.31
522.19	1001.31
522.406	616.31
522.621	511.31
522.836	446.31
523.052	436.31
523.267	404.31
523.482	431.31
523.698	406.31
523.913	412.31
524.128	413.31
524.343	408.31
524.559	391.31
524.774	390.31
524.989	411.31
525.204	401.31
525.419	412.31
525.634	393.31
525.849	378.31
526.064	362.31
526.28	388.31
526.495	367.31
526.71	377.31
526.925	369.31
527.14	373.31
527.355	362.31
527.57	371.31
527.785	363.31
527.999	379.31
528.214	365.31
528.429	366.31
528.644	394.31
528.859	377.31
529.074	390.31
529.289	416.31
529.503	441.31
529.718	420.31
529.933	403.31
530.148	383.31
530.363	382.31
530.577	378.31
530.792	364.31
531.007	370.31
531.221	373.31
531.436	372.31
531.651	369.31
531.865	344.31
532.08	352.31
532.295	349.31
532.509	344.31
532.724	369.31
532.938	368.31
533.153	369.31
533.367	345.31
533.582	360.31
533.796	386.31
534.011	348.31
534.225	330.31
534.44	337.31
534.654	352.31
534.868	349.31
535.083	358.31
535.297	362.31
535.511	363.31
535.726	359.31
535.94	370.31
536.154	362.31
536.369	353.31
536.583	344.31
536.797	364.31
537.011	336.31
537.225	363.31
537.44	374.31
537.654	365.31
537.868	357.31
538.082	345.31
538.296	350.31
538.51	359.31
538.724	360.31
538.938	343.31
539.153	342.31
539.367	356.31
539.581	353.31
539.795	334.31
540.009	334.31
540.222	335.31
540.436	346.31
540.65	348.31
540.864	341.31
541.078	345.31
541.292	363.31
541.506	342.31
541.72	357.31
541.934	335.31
542.147	341.31
542.361	350.31
542.575	340.31
542.789	331.31
543.002	349.31
543.216	344.31
543.43	354.31
543.644	342.31
543.857	342.31
544.071	349.31
544.285	355.31
544.498	350.31
544.712	330.31
544.925	335.31
545.139	340.31
545.352	325.31
545.566	342.31
545.779	339.31
545.993	346.31
546.206	338.31
546.42	337.31
546.633	341.31
546.847	348.31
547.06	326.31
547.274	330.31
547.487	337.31
547.7	325.31
547.914	342.31
548.127	339.31
548.34	339.31
548.554	318.31
548.767	343.31
548.98	326.31
549.193	314.31
549.407	335.31
549.62	329.31
549.833	334.31
550.046	332.31
550.259	332.31
550.473	315.31
550.686	317.31
550.899	338.31
551.112	327.31
551.325	328.31
551.538	329.31
551.751	326.31
551.964	330.31
552.177	335.31
552.39	337.31
552.603	338.31
552.816	355.31
553.029	328.31
553.242	336.31
553.455	329.31
553.667	352.31
553.88	319.31
554.093	342.31
554.306	344.31
554.519	331.31
554.732	330.31
554.944	314.31
555.157	317.31
555.37	338.31
555.583	311.31
555.795	320.31
556.008	311.31
556.221	310.31
556.433	314.31
556.646	309.31
556.859	302.31
557.071	295.31
557.284	305.31
557.496	292.31
557.709	311.31
557.921	298.31
558.134	312.31
558.346	303.31
558.559	286.31
558.771	289.31
558.984	276.31
559.196	305.31
559.409	311.31
559.621	290.31
559.833	293.31
560.046	278.31
560.258	295.31
560.47	309.31
560.683	305.31
560.895	302.31
561.107	298.31
561.32	279.31
561.532	289.31
561.744	276.31
561.956	307.31
562.168	318.31
562.381	282.31
562.593	306.31
562.805	297.31
563.017	291.31
563.229	298.31
563.441	306.31
563.653	320.31
563.865	298.31
564.077	309.31
564.289	324.31
564.501	312.31
564.713	308.31
564.925	312.31
565.137	313.31
565.349	310.31
565.561	306.31
565.773	330.31
565.985	340.31
566.197	318.31
566.408	315.31
566.62	331.31
566.832	324.31
567.044	344.31
567.255	354.31
567.467	353.31
567.679	355.31
567.891	379.31
568.102	356.31
568.314	352.31
568.526	336.31
568.737	319.31
568.949	339.31
569.161	318.31
569.372	326.31
569.584	315.31
569.795	311.31
570.007	316.31
570.218	333.31
570.43	329.31
570.641	301.31
570.853	288.31
571.064	294.31
571.276	313.31
571.487	294.31
571.698	289.31
571.91	283.31
572.121	286.31
572.333	287.31
572.544	281.31
572.755	269.31
572.966	270.31
573.178	267.31
573.389	279.31
573.6	255.31
573.811	274.31
574.023	274.31
574.234	248.31
574.445	249.31
574.656	266.31
574.867	268.31
575.078	271.31
575.289	253.31
575.501	262.31
575.712	257.31
575.923	274.31
576.134	247.31
576.345	273.31
576.556	252.31
576.767	251.31
576.978	261.31
577.188	277.31
577.399	257.31
577.61	253.31
577.821	252.31
578.032	254.31
578.243	274.31
578.454	392.31
578.665	313.31
578.875	252.31
579.086	256.31
579.297	243.31
579.508	245.31
579.718	263.31
579.929	266.31
580.14	234.31
580.35	228.31
580.561	259.31
580.772	242.31
580.982	234.31
581.193	246.31
581.403	236.31
581.614	242.31
581.825	234.31
582.035	226.31
582.246	219.31
582.456	230.31
582.667	227.31
582.877	249.31
583.087	230.31
583.298	228.31
583.508	256.31
583.719	237.31
583.929	255.31
584.139	233.31
584.35	243.31
584.56	232.31
584.77	223.31
584.981	232.31
585.191	222.31
585.401	237.31
585.611	243.31
585.821	220.31
586.032	224.31
586.242	243.31
586.452	223.31
586.662	241.31
586.872	245.31
587.082	243.31
587.292	230.31
587.502	247.31
587.713	222.31
587.923	234.31
588.133	241.31
588.343	218.31
588.553	241.31
588.762	226.31
588.972	234.31
589.182	251.31
589.392	258.31
589.602	231.31
589.812	239.31
590.022	256.31
590.232	219.31
590.441	221.31
590.651	244.31
590.861	227.31
591.071	227.31
591.281	234.31
591.49	232.31
591.7	233.31
591.91	240.31
592.119	221.31
592.329	229.31
592.539	233.31
592.748	246.31
592.958	227.31
593.167	237.31
593.377	242.31
593.587	254.31
593.796	239.31
594.006	240.31
594.215	249.31
594.424	226.31
594.634	247.31
594.843	244.31
595.053	218.31
595.262	227.31
595.472	243.31
595.681	221.31
595.89	214.31
596.1	225.31
596.309	221.31
596.518	227.31
596.727	224.31
596.937	222.31
597.146	215.31
597.355	212.31
597.564	227.31
597.774	221.31
597.983	214.31
598.192	211.31
598.401	221.31
598.61	214.31
598.819	210.31
599.028	201.31
599.237	209.31
599.446	211.31
599.655	228.31
599.864	230.31
600.073	207.31
600.282	211.31
600.491	211.31
600.7	211.31
600.909	190.31
601.118	198.31
601.327	211.31
601.536	218.31
601.745	215.31
601.953	204.31
602.162	200.31
602.371	188.31
602.58	193.31
602.789	203.31
602.997	209.31
603.206	211.31
603.415	213.31
603.623	203.31
603.832	200.31
604.041	190.31
604.249	186.31
604.458	205.31
604.666	196.31
604.875	201.31
605.084	201.31
605.292	190.31
605.501	199.31
605.709	188.31
605.918	199.31
606.126	199.31
606.334	203.31
606.543	185.31
606.751	189.31
606.96	188.31
607.168	187.31
607.376	189.31
607.585	194.31
607.793	199.31
608.001	198.31
608.21	202.31
608.418	192.31
608.626	200.31
608.834	196.31
609.043	186.31
609.251	196.31
609.459	198.31
609.667	207.31
609.875	197.31
610.083	190.31
610.291	205.31
610.499	190.31
610.707	210.31
610.916	209.31
611.124	195.31
611.332	206.31
611.54	207.31
611.748	192.31
611.955	197.31
612.163	193.31
612.371	201.31
612.579	202.31
612.787	186.31
612.995	194.31
613.203	200.31
613.411	198.31
613.618	190.31
613.826	212.31
614.034	189.31
614.242	202.31
614.449	202.31
614.657	203.31
614.865	190.31
615.072	197.31
615.28	195.31
615.488	186.31
615.695	195.31
615.903	195.31
616.111	191.31
616.318	187.31
616.526	192.31
616.733	181.31
616.941	186.31
617.148	169.31
617.356	181.31
617.563	180.31
617.771	176.31
617.978	189.31
618.185	187.31
618.393	166.31
618.6	189.31
618.807	179.31
619.015	179.31
619.222	192.31
619.429	193.31
619.637	201.31
619.844	167.31
620.051	191.31
620.258	199.31
620.466	186.31
620.673	166.31
620.88	165.31
621.087	167.31
621.294	163.31
621.501	186.31
621.708	195.31
621.915	181.31
622.122	189.31
622.329	168.31
622.536	189.31
622.743	189.31
622.95	180.31
623.157	202.31
623.364	172.31
623.571	181.31
623.778	184.31
623.985	185.31
624.192	154.31
624.399	183.31
624.606	171.31
624.812	164.31
625.019	192.31
625.226	179.31
625.433	173.31
625.639	174.31
625.846	192.31
626.053	168.31
626.259	164.31
626.466	171.31
626.673	162.31
626.879	164.31
627.086	176.31
627.293	168.31
627.499	170.31
627.706	175.31
627.912	165.31
628.119	158.31
628.325	158.31
628.532	157.31
628.738	166.31
628.945	167.31
629.151	180.31
629.357	159.31
629.564	144.31
629.77	153.31
629.976	161.31
630.183	162.31
630.389	150.31
630.595	170.31
630.802	170.31
631.008	160.31
631.214	157.31
631.42	159.31
631.627	164.31
631.833	155.31
632.039	170.31
632.245	162.31
632.451	178.31
632.657	154.31
632.863	149.31
633.069	158.31
633.275	155.31
633.481	155.31
633.688	155.31
633.893	151.31
634.099	139.31
634.305	152.31
634.511	147.31
634.717	153.31
634.923	149.31
635.129	154.31
635.335	145.31
635.541	159.31
635.747	162.31
635.952	160.31
636.158	155.31
636.364	150.31
636.57	159.31
636.775	160.31
636.981	153.31
637.187	149.31
637.392	157.31
637.598	154.31
637.804	148.31
638.009	157.31
638.215	166.31
638.421	162.31
638.626	157.31
638.832	154.31
639.037	157.31
639.243	147.31
639.448	154.31
639.654	155.31
639.859	147.31
640.065	154.31
640.27	160.31
640.475	144.31
640.681	157.31
640.886	142.31
641.091	151.31
641.297	139.31
641.502	134.31
641.707	147.31
641.913	146.31
642.118	154.31
642.323	144.31
642.528	154.31
642.733	130.31
642.939	138.31
643.144	138.31
643.349	140.31
643.554	154.31
643.759	134.31
643.964	144.31
644.169	149.31
644.374	143.31
644.579	149.31
644.784	161.31
644.989	155.31
645.194	141.31
645.399	153.31
645.604	134.31
645.809	149.31
646.014	130.31
646.219	127.31
646.423	141.31
646.628	135.31
646.833	146.31
647.038	141.31
647.243	143.31
647.447	149.31
647.652	134.31
647.857	131.31
648.062	143.31
648.266	155.31
648.471	151.31
648.676	143.31
648.88	154.31
649.085	152.31
649.289	137.31
649.494	150.31
649.698	154.31
649.903	148.31
650.107	150.31
650.312	138.31
650.516	147.31
650.721	125.31
650.925	138.31
651.13	127.31
651.334	125.31
651.539	146.31
651.743	137.31
651.947	122.31
652.152	132.31
652.356	137.31
652.56	120.31
652.764	134.31
652.969	126.31
653.173	125.31
653.377	131.31
653.581	127.31
653.785	129.31
653.99	132.31
654.194	123.31
654.398	127.31
654.602	126.31
654.806	125.31
655.01	116.31
655.214	127.31
655.418	119.31
655.622	118.31
655.826	134.31
656.03	131.31
656.234	128.31
656.438	120.31
656.642	121.31
656.846	104.31
657.049	138.31
657.253	109.31
657.457	93.31
657.661	133.31
657.865	94.31
658.068	98.31
658.272	109.31
658.476	98.31
658.68	109.31
658.883	99.31
659.087	94.31
659.291	97.31
659.494	104.31
659.698	92.31
659.901	95.31
660.105	88.31
660.309	82.31
660.512	93.31
660.716	83.31
660.919	89.31
661.123	98.31
661.326	91.31
661.53	89.31
661.733	90.31
661.936	83.31
662.14	90.31
662.343	87.31
662.546	73.31
662.75	87.31
662.953	74.31
663.156	82.31
663.36	89.31
663.563	81.31
663.766	84.31
663.969	103.31
664.173	91.31
664.376	83.31
664.579	90.31
664.782	85.31
664.985	70.31
665.188	105.31
665.391	85.31
665.594	87.31
665.797	97.31
666	86.31
666.203	73.31
666.406	90.31
666.609	80.31
666.812	82.31
667.015	85.31
667.218	81.31
667.421	83.31
667.624	79.31
667.827	89.31
668.03	89.31
668.232	79.31
668.435	83.31
668.638	73.31
668.841	83.31
669.043	94.31
669.246	97.31
669.449	79.31
669.651	82.31
669.854	93.31
670.057	77.31
670.259	80.31
670.462	86.31
670.665	81.31
670.867	87.31
671.07	83.31
671.272	85.31
671.475	80.31
671.677	75.31
671.88	73.31
672.082	94.31
672.284	86.31
672.487	77.31
672.689	93.31
672.892	73.31
