Data from 1961.PennyLincolnUp.Lamp.En5.5.200Scan.071719.P1._HRD10591_13-47-56-057.txt Node
Date: Thu Jul 18 13:47:56 EDT 2019
User: cochatt
Spectrometer: HR+D1059
Trigger mode: 1
Integration Time (sec): 1.000000E-1
Scans to average: 1
Electric dark correction enabled: true
Nonlinearity correction enabled: false
Boxcar width: 0
XAxis mode: Wavelengths
Number of Pixels in Spectrum: 2048
>>>>>Begin Spectral Data<<<<<
223.165	-5.81
223.4	-5.81
223.635	-5.81
223.869	-8.81
224.104	-17.81
224.338	-6.81
224.573	-16.81
224.808	2.19
225.042	-16.81
225.277	-16.81
225.511	-1.81
225.746	11.19
225.98	2.19
226.215	5.19
226.449	18.19
226.683	20.19
226.918	16.19
227.152	16.19
227.387	28.19
227.621	25.19
227.856	38.19
228.09	46.19
228.324	54.19
228.559	51.19
228.793	56.19
229.027	88.19
229.262	102.19
229.496	92.19
229.73	120.19
229.964	142.19
230.199	108.19
230.433	126.19
230.667	105.19
230.901	107.19
231.136	104.19
231.37	95.19
231.604	107.19
231.838	106.19
232.072	83.19
232.306	104.19
232.541	102.19
232.775	110.19
233.009	107.19
233.243	111.19
233.477	95.19
233.711	106.19
233.945	124.19
234.179	117.19
234.413	110.19
234.647	107.19
234.881	92.19
235.115	107.19
235.349	116.19
235.583	104.19
235.817	111.19
236.051	114.19
236.285	96.19
236.519	118.19
236.753	115.19
236.987	133.19
237.221	174.19
237.455	191.19
237.689	169.19
237.922	132.19
238.156	118.19
238.39	115.19
238.624	129.19
238.858	107.19
239.091	99.19
239.325	98.19
239.559	112.19
239.793	109.19
240.027	119.19
240.26	138.19
240.494	133.19
240.728	146.19
240.961	147.19
241.195	134.19
241.429	126.19
241.662	117.19
241.896	115.19
242.13	123.19
242.363	123.19
242.597	123.19
242.83	120.19
243.064	126.19
243.298	119.19
243.531	123.19
243.765	121.19
243.998	130.19
244.232	123.19
244.465	138.19
244.699	126.19
244.932	131.19
245.166	127.19
245.399	130.19
245.633	122.19
245.866	126.19
246.099	115.19
246.333	128.19
246.566	134.19
246.8	126.19
247.033	139.19
247.266	146.19
247.5	137.19
247.733	153.19
247.966	149.19
248.2	133.19
248.433	135.19
248.666	145.19
248.899	161.19
249.133	171.19
249.366	178.19
249.599	174.19
249.832	158.19
250.066	162.19
250.299	154.19
250.532	164.19
250.765	170.19
250.998	197.19
251.231	197.19
251.465	176.19
251.698	171.19
251.931	163.19
252.164	169.19
252.397	167.19
252.63	163.19
252.863	186.19
253.096	190.19
253.329	193.19
253.562	176.19
253.795	191.19
254.028	193.19
254.261	178.19
254.494	193.19
254.727	214.19
254.96	223.19
255.193	224.19
255.426	194.19
255.659	200.19
255.892	195.19
256.124	183.19
256.357	183.19
256.59	195.19
256.823	176.19
257.056	189.19
257.289	180.19
257.521	168.19
257.754	176.19
257.987	164.19
258.22	179.19
258.452	178.19
258.685	178.19
258.918	183.19
259.151	182.19
259.383	172.19
259.616	178.19
259.849	185.19
260.081	184.19
260.314	202.19
260.547	219.19
260.779	187.19
261.012	206.19
261.244	184.19
261.477	186.19
261.71	186.19
261.942	179.19
262.175	190.19
262.407	192.19
262.64	182.19
262.872	181.19
263.105	178.19
263.337	178.19
263.57	191.19
263.802	171.19
264.035	172.19
264.267	190.19
264.499	169.19
264.732	187.19
264.964	165.19
265.197	182.19
265.429	183.19
265.661	189.19
265.894	174.19
266.126	185.19
266.358	178.19
266.591	169.19
266.823	174.19
267.055	183.19
267.287	185.19
267.52	199.19
267.752	188.19
267.984	195.19
268.216	182.19
268.448	186.19
268.681	198.19
268.913	194.19
269.145	212.19
269.377	207.19
269.609	215.19
269.841	241.19
270.073	230.19
270.306	221.19
270.538	249.19
270.77	244.19
271.002	224.19
271.234	258.19
271.466	252.19
271.698	269.19
271.93	240.19
272.162	247.19
272.394	261.19
272.626	257.19
272.858	239.19
273.09	220.19
273.322	223.19
273.553	222.19
273.785	212.19
274.017	205.19
274.249	216.19
274.481	224.19
274.713	228.19
274.945	219.19
275.176	219.19
275.408	216.19
275.64	230.19
275.872	217.19
276.104	217.19
276.335	231.19
276.567	215.19
276.799	221.19
277.031	237.19
277.262	255.19
277.494	258.19
277.726	234.19
277.957	239.19
278.189	221.19
278.421	238.19
278.652	239.19
278.884	229.19
279.115	218.19
279.347	200.19
279.579	217.19
279.81	206.19
280.042	198.19
280.273	213.19
280.505	221.19
280.736	215.19
280.968	226.19
281.199	223.19
281.431	225.19
281.662	217.19
281.894	211.19
282.125	225.19
282.356	232.19
282.588	242.19
282.819	255.19
283.051	238.19
283.282	217.19
283.513	230.19
283.745	227.19
283.976	228.19
284.207	232.19
284.439	217.19
284.67	235.19
284.901	220.19
285.132	210.19
285.364	228.19
285.595	217.19
285.826	234.19
286.057	225.19
286.288	210.19
286.52	239.19
286.751	226.19
286.982	215.19
287.213	211.19
287.444	214.19
287.675	225.19
287.906	235.19
288.138	266.19
288.369	233.19
288.6	232.19
288.831	245.19
289.062	219.19
289.293	246.19
289.524	232.19
289.755	233.19
289.986	237.19
290.217	214.19
290.448	209.19
290.679	233.19
290.91	219.19
291.141	229.19
291.371	226.19
291.602	236.19
291.833	221.19
292.064	234.19
292.295	226.19
292.526	224.19
292.757	246.19
292.987	228.19
293.218	224.19
293.449	238.19
293.68	226.19
293.91	228.19
294.141	230.19
294.372	228.19
294.603	257.19
294.833	239.19
295.064	235.19
295.295	243.19
295.525	235.19
295.756	233.19
295.987	240.19
296.217	254.19
296.448	277.19
296.679	243.19
296.909	241.19
297.14	249.19
297.37	216.19
297.601	243.19
297.831	225.19
298.062	241.19
298.292	225.19
298.523	238.19
298.753	247.19
298.984	248.19
299.214	233.19
299.445	238.19
299.675	251.19
299.905	262.19
300.136	240.19
300.366	250.19
300.597	249.19
300.827	248.19
301.057	265.19
301.288	252.19
301.518	242.19
301.748	266.19
301.979	282.19
302.209	256.19
302.439	258.19
302.669	249.19
302.9	260.19
303.13	249.19
303.36	265.19
303.59	277.19
303.82	259.19
304.051	280.19
304.281	260.19
304.511	250.19
304.741	265.19
304.971	261.19
305.201	246.19
305.431	252.19
305.661	250.19
305.891	263.19
306.121	266.19
306.352	278.19
306.582	244.19
306.812	268.19
307.042	242.19
307.272	266.19
307.502	254.19
307.731	272.19
307.961	265.19
308.191	260.19
308.421	262.19
308.651	262.19
308.881	275.19
309.111	276.19
309.341	275.19
309.571	299.19
309.8	286.19
310.03	310.19
310.26	309.19
310.49	299.19
310.72	322.19
310.949	322.19
311.179	344.19
311.409	316.19
311.639	304.19
311.868	311.19
312.098	276.19
312.328	310.19
312.557	320.19
312.787	339.19
313.017	326.19
313.246	316.19
313.476	312.19
313.706	320.19
313.935	327.19
314.165	326.19
314.394	336.19
314.624	328.19
314.853	311.19
315.083	314.19
315.312	290.19
315.542	299.19
315.771	303.19
316.001	300.19
316.23	314.19
316.46	307.19
316.689	314.19
316.919	306.19
317.148	320.19
317.377	317.19
317.607	312.19
317.836	310.19
318.065	315.19
318.295	292.19
318.524	306.19
318.753	304.19
318.983	299.19
319.212	294.19
319.441	307.19
319.67	307.19
319.9	327.19
320.129	306.19
320.358	298.19
320.587	323.19
320.816	331.19
321.046	321.19
321.275	326.19
321.504	342.19
321.733	326.19
321.962	327.19
322.191	357.19
322.42	370.19
322.649	378.19
322.878	389.19
323.108	382.19
323.337	414.19
323.566	451.19
323.795	466.19
324.024	504.19
324.253	639.19
324.482	949.19
324.71	1411.19
324.939	1992.19
325.168	1661.19
325.397	887.19
325.626	615.19
325.855	488.19
326.084	457.19
326.313	434.19
326.542	446.19
326.77	489.19
326.999	614.19
327.228	846.19
327.457	1255.19
327.686	1467.19
327.914	998.19
328.143	671.19
328.372	570.19
328.6	529.19
328.829	506.19
329.058	500.19
329.287	520.19
329.515	483.19
329.744	468.19
329.972	451.19
330.201	490.19
330.43	485.19
330.658	528.19
330.887	533.19
331.115	519.19
331.344	451.19
331.572	419.19
331.801	422.19
332.03	414.19
332.258	388.19
332.486	383.19
332.715	364.19
332.943	373.19
333.172	370.19
333.4	383.19
333.629	370.19
333.857	390.19
334.085	386.19
334.314	415.19
334.542	448.19
334.771	468.19
334.999	423.19
335.227	392.19
335.455	367.19
335.684	362.19
335.912	356.19
336.14	378.19
336.369	376.19
336.597	359.19
336.825	376.19
337.053	385.19
337.281	367.19
337.51	343.19
337.738	350.19
337.966	351.19
338.194	343.19
338.422	337.19
338.65	357.19
338.878	353.19
339.106	329.19
339.334	350.19
339.562	346.19
339.79	356.19
340.018	346.19
340.246	333.19
340.474	344.19
340.702	346.19
340.93	341.19
341.158	346.19
341.386	351.19
341.614	350.19
341.842	369.19
342.07	338.19
342.298	327.19
342.526	320.19
342.754	336.19
342.981	325.19
343.209	340.19
343.437	345.19
343.665	328.19
343.893	336.19
344.12	352.19
344.348	330.19
344.576	337.19
344.804	347.19
345.031	364.19
345.259	373.19
345.487	354.19
345.714	353.19
345.942	344.19
346.17	351.19
346.397	316.19
346.625	337.19
346.853	330.19
347.08	341.19
347.308	334.19
347.535	335.19
347.763	340.19
347.99	348.19
348.218	340.19
348.445	359.19
348.673	358.19
348.9	347.19
349.128	341.19
349.355	318.19
349.583	324.19
349.81	325.19
350.037	316.19
350.265	327.19
350.492	302.19
350.72	315.19
350.947	338.19
351.174	355.19
351.402	347.19
351.629	347.19
351.856	316.19
352.083	350.19
352.311	356.19
352.538	349.19
352.765	345.19
352.992	363.19
353.22	337.19
353.447	331.19
353.674	347.19
353.901	319.19
354.128	302.19
354.355	321.19
354.583	314.19
354.81	309.19
355.037	291.19
355.264	318.19
355.491	302.19
355.718	320.19
355.945	312.19
356.172	308.19
356.399	310.19
356.626	312.19
356.853	305.19
357.08	308.19
357.307	302.19
357.534	320.19
357.761	306.19
357.988	304.19
358.215	306.19
358.441	310.19
358.668	311.19
358.895	330.19
359.122	324.19
359.349	316.19
359.576	337.19
359.802	346.19
360.029	399.19
360.256	394.19
360.483	375.19
360.709	343.19
360.936	351.19
361.163	330.19
361.39	328.19
361.616	347.19
361.843	328.19
362.07	344.19
362.296	340.19
362.523	348.19
362.749	337.19
362.976	335.19
363.203	336.19
363.429	307.19
363.656	324.19
363.882	326.19
364.109	332.19
364.335	329.19
364.562	315.19
364.788	333.19
365.015	316.19
365.241	317.19
365.468	322.19
365.694	319.19
365.92	342.19
366.147	329.19
366.373	330.19
366.599	330.19
366.826	319.19
367.052	315.19
367.278	302.19
367.505	337.19
367.731	318.19
367.957	318.19
368.184	312.19
368.41	323.19
368.636	325.19
368.862	327.19
369.089	317.19
369.315	332.19
369.541	332.19
369.767	324.19
369.993	336.19
370.219	298.19
370.445	322.19
370.672	311.19
370.898	320.19
371.124	304.19
371.35	310.19
371.576	324.19
371.802	323.19
372.028	326.19
372.254	306.19
372.48	299.19
372.706	291.19
372.932	299.19
373.158	325.19
373.384	338.19
373.61	323.19
373.835	318.19
374.061	319.19
374.287	313.19
374.513	330.19
374.739	313.19
374.965	291.19
375.191	305.19
375.416	303.19
375.642	328.19
375.868	315.19
376.094	328.19
376.319	322.19
376.545	334.19
376.771	322.19
376.997	328.19
377.222	328.19
377.448	310.19
377.674	309.19
377.899	295.19
378.125	293.19
378.35	310.19
378.576	315.19
378.802	303.19
379.027	306.19
379.253	296.19
379.478	303.19
379.704	311.19
379.929	310.19
380.155	312.19
380.38	323.19
380.606	339.19
380.831	320.19
381.057	332.19
381.282	305.19
381.507	320.19
381.733	302.19
381.958	314.19
382.184	320.19
382.409	317.19
382.634	307.19
382.86	315.19
383.085	315.19
383.31	336.19
383.535	322.19
383.761	328.19
383.986	310.19
384.211	319.19
384.436	343.19
384.662	315.19
384.887	322.19
385.112	330.19
385.337	345.19
385.562	338.19
385.787	322.19
386.013	354.19
386.238	366.19
386.463	328.19
386.688	331.19
386.913	337.19
387.138	342.19
387.363	319.19
387.588	343.19
387.813	318.19
388.038	343.19
388.263	327.19
388.488	327.19
388.713	331.19
388.938	326.19
389.163	338.19
389.387	342.19
389.612	353.19
389.837	323.19
390.062	340.19
390.287	339.19
390.512	321.19
390.736	336.19
390.961	352.19
391.186	345.19
391.411	347.19
391.636	340.19
391.86	342.19
392.085	345.19
392.31	338.19
392.534	340.19
392.759	362.19
392.984	342.19
393.208	335.19
393.433	339.19
393.658	327.19
393.882	342.19
394.107	332.19
394.331	335.19
394.556	343.19
394.78	355.19
395.005	345.19
395.229	361.19
395.454	338.19
395.678	345.19
395.903	362.19
396.127	381.19
396.352	363.19
396.576	361.19
396.801	361.19
397.025	369.19
397.249	355.19
397.474	352.19
397.698	374.19
397.922	376.19
398.147	372.19
398.371	386.19
398.595	377.19
398.82	365.19
399.044	384.19
399.268	388.19
399.492	385.19
399.717	435.19
399.941	437.19
400.165	471.19
400.389	451.19
400.613	414.19
400.837	401.19
401.062	382.19
401.286	391.19
401.51	403.19
401.734	385.19
401.958	391.19
402.182	393.19
402.406	402.19
402.63	397.19
402.854	398.19
403.078	394.19
403.302	399.19
403.526	386.19
403.75	403.19
403.974	404.19
404.198	388.19
404.422	400.19
404.645	395.19
404.869	407.19
405.093	423.19
405.317	471.19
405.541	511.19
405.765	451.19
405.988	423.19
406.212	445.19
406.436	450.19
406.66	452.19
406.883	434.19
407.107	453.19
407.331	479.19
407.555	519.19
407.778	542.19
408.002	465.19
408.226	442.19
408.449	430.19
408.673	453.19
408.896	466.19
409.12	485.19
409.344	470.19
409.567	412.19
409.791	409.19
410.014	397.19
410.238	406.19
410.461	403.19
410.685	416.19
410.908	439.19
411.132	427.19
411.355	459.19
411.578	437.19
411.802	404.19
412.025	404.19
412.249	393.19
412.472	447.19
412.695	459.19
412.919	456.19
413.142	411.19
413.365	388.19
413.589	404.19
413.812	394.19
414.035	380.19
414.258	400.19
414.482	394.19
414.705	383.19
414.928	351.19
415.151	357.19
415.374	372.19
415.597	368.19
415.821	367.19
416.044	383.19
416.267	372.19
416.49	375.19
416.713	359.19
416.936	393.19
417.159	388.19
417.382	396.19
417.605	393.19
417.828	416.19
418.051	390.19
418.274	381.19
418.497	362.19
418.72	368.19
418.943	390.19
419.166	403.19
419.389	400.19
419.611	379.19
419.834	395.19
420.057	394.19
420.28	424.19
420.503	384.19
420.726	407.19
420.948	419.19
421.171	447.19
421.394	471.19
421.617	415.19
421.839	406.19
422.062	408.19
422.285	433.19
422.507	467.19
422.73	521.19
422.953	494.19
423.175	444.19
423.398	422.19
423.621	410.19
423.843	413.19
424.066	430.19
424.288	442.19
424.511	456.19
424.733	510.19
424.956	571.19
425.178	537.19
425.401	521.19
425.623	522.19
425.846	466.19
426.068	436.19
426.291	451.19
426.513	433.19
426.735	431.19
426.958	476.19
427.18	548.19
427.402	643.19
427.625	710.19
427.847	616.19
428.069	545.19
428.292	498.19
428.514	444.19
428.736	427.19
428.958	422.19
429.181	396.19
429.403	424.19
429.625	409.19
429.847	467.19
430.069	509.19
430.292	461.19
430.514	419.19
430.736	406.19
430.958	402.19
431.18	385.19
431.402	386.19
431.624	367.19
431.846	379.19
432.068	371.19
432.29	403.19
432.512	391.19
432.734	389.19
432.956	388.19
433.178	401.19
433.4	400.19
433.622	392.19
433.844	378.19
434.066	368.19
434.287	376.19
434.509	383.19
434.731	409.19
434.953	400.19
435.175	421.19
435.397	428.19
435.618	454.19
435.84	482.19
436.062	553.19
436.284	611.19
436.505	496.19
436.727	456.19
436.949	433.19
437.17	415.19
437.392	410.19
437.614	445.19
437.835	475.19
438.057	557.19
438.278	630.19
438.5	593.19
438.721	649.19
438.943	626.19
439.165	514.19
439.386	466.19
439.608	446.19
439.829	461.19
440.05	489.19
440.272	495.19
440.493	494.19
440.715	431.19
440.936	422.19
441.158	420.19
441.379	424.19
441.6	433.19
441.822	446.19
442.043	488.19
442.264	549.19
442.486	575.19
442.707	484.19
442.928	455.19
443.149	463.19
443.371	469.19
443.592	511.19
443.813	565.19
444.034	618.19
444.255	514.19
444.476	461.19
444.698	421.19
444.919	420.19
445.14	548.19
445.361	485.19
445.582	474.19
445.803	539.19
446.024	610.19
446.245	621.19
446.466	574.19
446.687	491.19
446.908	449.19
447.129	429.19
447.35	410.19
447.571	412.19
447.792	414.19
448.013	396.19
448.234	439.19
448.455	471.19
448.675	565.19
448.896	658.19
449.117	539.19
449.338	519.19
449.559	600.19
449.779	688.19
450	528.19
450.221	472.19
450.442	433.19
450.662	423.19
450.883	434.19
451.104	421.19
451.324	427.19
451.545	393.19
451.766	418.19
451.986	394.19
452.207	364.19
452.428	369.19
452.648	372.19
452.869	382.19
453.089	378.19
453.31	389.19
453.53	380.19
453.751	386.19
453.971	374.19
454.192	402.19
454.412	388.19
454.633	371.19
454.853	360.19
455.073	364.19
455.294	391.19
455.514	449.19
455.734	441.19
455.955	391.19
456.175	378.19
456.395	377.19
456.616	351.19
456.836	359.19
457.056	335.19
457.276	359.19
457.497	351.19
457.717	363.19
457.937	351.19
458.157	375.19
458.377	350.19
458.598	392.19
458.818	442.19
459.038	510.19
459.258	521.19
459.478	439.19
459.698	394.19
459.918	363.19
460.138	384.19
460.358	382.19
460.578	367.19
460.798	378.19
461.018	372.19
461.238	393.19
461.458	388.19
461.678	394.19
461.898	400.19
462.118	398.19
462.338	396.19
462.558	399.19
462.777	396.19
462.997	410.19
463.217	417.19
463.437	400.19
463.657	402.19
463.876	407.19
464.096	431.19
464.316	404.19
464.536	419.19
464.755	423.19
464.975	417.19
465.195	443.19
465.414	528.19
465.634	455.19
465.854	419.19
466.073	408.19
466.293	398.19
466.512	376.19
466.732	393.19
466.951	373.19
467.171	391.19
467.391	402.19
467.61	396.19
467.829	402.19
468.049	402.19
468.268	403.19
468.488	382.19
468.707	392.19
468.927	374.19
469.146	369.19
469.365	362.19
469.585	361.19
469.804	383.19
470.023	400.19
470.243	394.19
470.462	401.19
470.681	416.19
470.901	387.19
471.12	406.19
471.339	392.19
471.558	396.19
471.777	390.19
471.997	391.19
472.216	412.19
472.435	427.19
472.654	424.19
472.873	383.19
473.092	392.19
473.311	396.19
473.53	374.19
473.749	423.19
473.968	433.19
474.187	518.19
474.406	537.19
474.625	445.19
474.844	390.19
475.063	385.19
475.282	383.19
475.501	397.19
475.72	405.19
475.939	361.19
476.158	390.19
476.377	400.19
476.596	414.19
476.814	416.19
477.033	400.19
477.252	436.19
477.471	410.19
477.69	414.19
477.908	411.19
478.127	436.19
478.346	398.19
478.564	428.19
478.783	411.19
479.002	426.19
479.22	444.19
479.439	447.19
479.658	468.19
479.876	473.19
480.095	474.19
480.313	512.19
480.532	477.19
480.751	459.19
480.969	486.19
481.188	566.19
481.406	578.19
481.624	535.19
481.843	489.19
482.061	487.19
482.28	470.19
482.498	463.19
482.717	459.19
482.935	461.19
483.153	463.19
483.372	456.19
483.59	439.19
483.808	449.19
484.027	455.19
484.245	459.19
484.463	444.19
484.681	453.19
484.9	464.19
485.118	471.19
485.336	451.19
485.554	454.19
485.772	460.19
485.99	465.19
486.209	459.19
486.427	459.19
486.645	481.19
486.863	519.19
487.081	496.19
487.299	494.19
487.517	506.19
487.735	468.19
487.953	496.19
488.171	488.19
488.389	468.19
488.607	505.19
488.825	482.19
489.043	489.19
489.261	495.19
489.479	492.19
489.696	495.19
489.914	510.19
490.132	486.19
490.35	486.19
490.568	489.19
490.786	514.19
491.003	536.19
491.221	534.19
491.439	538.19
491.657	553.19
491.874	561.19
492.092	568.19
492.31	528.19
492.527	552.19
492.745	548.19
492.963	551.19
493.18	549.19
493.398	568.19
493.615	561.19
493.833	567.19
494.05	555.19
494.268	558.19
494.485	558.19
494.703	549.19
494.92	592.19
495.138	556.19
495.355	575.19
495.573	562.19
495.79	571.19
496.008	578.19
496.225	586.19
496.442	582.19
496.66	572.19
496.877	565.19
497.094	575.19
497.312	583.19
497.529	589.19
497.746	600.19
497.963	587.19
498.181	626.19
498.398	607.19
498.615	609.19
498.832	641.19
499.049	633.19
499.267	647.19
499.484	647.19
499.701	692.19
499.918	682.19
500.135	713.19
500.352	723.19
500.569	704.19
500.786	717.19
501.003	691.19
501.22	731.19
501.437	729.19
501.654	659.19
501.871	693.19
502.088	706.19
502.305	659.19
502.522	640.19
502.739	634.19
502.956	632.19
503.172	609.19
503.389	592.19
503.606	613.19
503.823	611.19
504.04	583.19
504.256	582.19
504.473	584.19
504.69	566.19
504.907	586.19
505.123	551.19
505.34	570.19
505.557	558.19
505.773	563.19
505.99	558.19
506.207	588.19
506.423	539.19
506.64	568.19
506.856	552.19
507.073	538.19
507.289	541.19
507.506	528.19
507.722	543.19
507.939	564.19
508.155	571.19
508.372	553.19
508.588	555.19
508.805	551.19
509.021	535.19
509.238	549.19
509.454	560.19
509.67	550.19
509.887	538.19
510.103	559.19
510.319	550.19
510.536	644.19
510.752	1116.19
510.968	886.19
511.184	560.19
511.401	552.19
511.617	519.19
511.833	533.19
512.049	509.19
512.265	503.19
512.481	516.19
512.698	487.19
512.914	494.19
513.13	516.19
513.346	517.19
513.562	495.19
513.778	504.19
513.994	530.19
514.21	534.19
514.426	573.19
514.642	607.19
514.858	643.19
515.074	659.19
515.29	798.19
515.506	1206.19
515.721	942.19
515.937	678.19
516.153	592.19
516.369	560.19
516.585	537.19
516.801	546.19
517.016	545.19
517.232	533.19
517.448	538.19
517.664	524.19
517.879	551.19
518.095	532.19
518.311	506.19
518.527	528.19
518.742	560.19
518.958	519.19
519.173	503.19
519.389	519.19
519.605	522.19
519.82	532.19
520.036	545.19
520.251	547.19
520.467	571.19
520.682	578.19
520.898	584.19
521.113	595.19
521.329	642.19
521.544	779.19
521.76	963.19
521.975	1590.19
522.19	1579.19
522.406	840.19
522.621	632.19
522.836	569.19
523.052	529.19
523.267	509.19
523.482	498.19
523.698	483.19
523.913	483.19
524.128	475.19
524.343	461.19
524.559	459.19
524.774	453.19
524.989	443.19
525.204	459.19
525.419	464.19
525.634	471.19
525.849	443.19
526.064	444.19
526.28	463.19
526.495	441.19
526.71	422.19
526.925	418.19
527.14	422.19
527.355	419.19
527.57	433.19
527.785	415.19
527.999	430.19
528.214	396.19
528.429	411.19
528.644	418.19
528.859	424.19
529.074	439.19
529.289	438.19
529.503	527.19
529.718	521.19
529.933	456.19
530.148	441.19
530.363	435.19
530.577	403.19
530.792	429.19
531.007	415.19
531.221	415.19
531.436	412.19
531.651	394.19
531.865	404.19
532.08	414.19
532.295	402.19
532.509	398.19
532.724	409.19
532.938	410.19
533.153	395.19
533.367	406.19
533.582	415.19
533.796	422.19
534.011	407.19
534.225	396.19
534.44	377.19
534.654	394.19
534.868	394.19
535.083	393.19
535.297	394.19
535.511	398.19
535.726	427.19
535.94	421.19
536.154	410.19
536.369	407.19
536.583	392.19
536.797	393.19
537.011	404.19
537.225	387.19
537.44	398.19
537.654	383.19
537.868	362.19
538.082	376.19
538.296	372.19
538.51	391.19
538.724	382.19
538.938	381.19
539.153	378.19
539.367	397.19
539.581	400.19
539.795	397.19
540.009	385.19
540.222	376.19
540.436	393.19
540.65	383.19
540.864	377.19
541.078	389.19
541.292	382.19
541.506	393.19
541.72	383.19
541.934	387.19
542.147	374.19
542.361	384.19
542.575	377.19
542.789	372.19
543.002	361.19
543.216	390.19
543.43	390.19
543.644	384.19
543.857	400.19
544.071	393.19
544.285	382.19
544.498	371.19
544.712	370.19
544.925	371.19
545.139	364.19
545.352	357.19
545.566	374.19
545.779	370.19
545.993	350.19
546.206	375.19
546.42	376.19
546.633	362.19
546.847	361.19
547.06	368.19
547.274	372.19
547.487	377.19
547.7	369.19
547.914	353.19
548.127	360.19
548.34	356.19
548.554	343.19
548.767	362.19
548.98	358.19
549.193	354.19
549.407	346.19
549.62	359.19
549.833	358.19
550.046	349.19
550.259	333.19
550.473	342.19
550.686	346.19
550.899	371.19
551.112	358.19
551.325	347.19
551.538	338.19
551.751	352.19
551.964	331.19
552.177	344.19
552.39	348.19
552.603	352.19
552.816	355.19
553.029	354.19
553.242	341.19
553.455	356.19
553.667	341.19
553.88	373.19
554.093	372.19
554.306	375.19
554.519	350.19
554.732	362.19
554.944	354.19
555.157	335.19
555.37	343.19
555.583	348.19
555.795	360.19
556.008	349.19
556.221	334.19
556.433	345.19
556.646	341.19
556.859	326.19
557.071	321.19
557.284	327.19
557.496	340.19
557.709	341.19
557.921	332.19
558.134	341.19
558.346	330.19
558.559	319.19
558.771	330.19
558.984	319.19
559.196	321.19
559.409	327.19
559.621	319.19
559.833	309.19
560.046	328.19
560.258	330.19
560.47	332.19
560.683	332.19
560.895	335.19
561.107	320.19
561.32	340.19
561.532	331.19
561.744	315.19
561.956	324.19
562.168	316.19
562.381	339.19
562.593	326.19
562.805	298.19
563.017	308.19
563.229	336.19
563.441	327.19
563.653	321.19
563.865	337.19
564.077	335.19
564.289	322.19
564.501	331.19
564.713	329.19
564.925	330.19
565.137	351.19
565.349	359.19
565.561	337.19
565.773	329.19
565.985	353.19
566.197	344.19
566.408	346.19
566.62	339.19
566.832	350.19
567.044	362.19
567.255	375.19
567.467	378.19
567.679	381.19
567.891	356.19
568.102	371.19
568.314	377.19
568.526	368.19
568.737	343.19
568.949	331.19
569.161	338.19
569.372	321.19
569.584	325.19
569.795	326.19
570.007	320.19
570.218	375.19
570.43	346.19
570.641	328.19
570.853	309.19
571.064	316.19
571.276	297.19
571.487	308.19
571.698	277.19
571.91	307.19
572.121	308.19
572.333	281.19
572.544	306.19
572.755	289.19
572.966	287.19
573.178	286.19
573.389	308.19
573.6	282.19
573.811	282.19
574.023	289.19
574.234	291.19
574.445	299.19
574.656	275.19
574.867	289.19
575.078	295.19
575.289	280.19
575.501	300.19
575.712	288.19
575.923	282.19
576.134	272.19
576.345	278.19
576.556	280.19
576.767	277.19
576.978	278.19
577.188	275.19
577.399	278.19
577.61	273.19
577.821	265.19
578.032	284.19
578.243	302.19
578.454	528.19
578.665	410.19
578.875	302.19
579.086	285.19
579.297	250.19
579.508	255.19
579.718	244.19
579.929	274.19
580.14	250.19
580.35	249.19
580.561	276.19
580.772	256.19
580.982	263.19
581.193	256.19
581.403	252.19
581.614	246.19
581.825	266.19
582.035	274.19
582.246	247.19
582.456	267.19
582.667	273.19
582.877	263.19
583.087	264.19
583.298	226.19
583.508	259.19
583.719	260.19
583.929	236.19
584.139	239.19
584.35	251.19
584.56	253.19
584.77	235.19
584.981	254.19
585.191	258.19
585.401	247.19
585.611	259.19
585.821	248.19
586.032	266.19
586.242	233.19
586.452	239.19
586.662	240.19
586.872	257.19
587.082	250.19
587.292	243.19
587.502	240.19
587.713	249.19
587.923	240.19
588.133	244.19
588.343	259.19
588.553	249.19
588.762	265.19
588.972	245.19
589.182	246.19
589.392	242.19
589.602	245.19
589.812	246.19
590.022	234.19
590.232	239.19
590.441	241.19
590.651	245.19
590.861	238.19
591.071	239.19
591.281	254.19
591.49	254.19
591.7	242.19
591.91	243.19
592.119	251.19
592.329	238.19
592.539	261.19
592.748	268.19
592.958	236.19
593.167	243.19
593.377	246.19
593.587	279.19
593.796	270.19
594.006	251.19
594.215	240.19
594.424	246.19
594.634	253.19
594.843	265.19
595.053	230.19
595.262	251.19
595.472	241.19
595.681	229.19
595.89	250.19
596.1	248.19
596.309	243.19
596.518	242.19
596.727	248.19
596.937	233.19
597.146	235.19
597.355	235.19
597.564	222.19
597.774	235.19
597.983	230.19
598.192	227.19
598.401	228.19
598.61	231.19
598.819	234.19
599.028	223.19
599.237	219.19
599.446	211.19
599.655	231.19
599.864	242.19
600.073	224.19
600.282	204.19
600.491	213.19
600.7	217.19
600.909	231.19
601.118	219.19
601.327	194.19
601.536	194.19
601.745	230.19
601.953	222.19
602.162	211.19
602.371	209.19
602.58	206.19
602.789	203.19
602.997	208.19
603.206	211.19
603.415	231.19
603.623	227.19
603.832	196.19
604.041	219.19
604.249	219.19
604.458	199.19
604.666	206.19
604.875	222.19
605.084	211.19
605.292	203.19
605.501	213.19
605.709	212.19
605.918	203.19
606.126	210.19
606.334	201.19
606.543	214.19
606.751	216.19
606.96	209.19
607.168	198.19
607.376	202.19
607.585	205.19
607.793	195.19
608.001	180.19
608.21	211.19
608.418	214.19
608.626	213.19
608.834	203.19
609.043	210.19
609.251	199.19
609.459	211.19
609.667	199.19
609.875	191.19
610.083	192.19
610.291	214.19
610.499	190.19
610.707	195.19
610.916	200.19
611.124	203.19
611.332	226.19
611.54	223.19
611.748	201.19
611.955	198.19
612.163	184.19
612.371	204.19
612.579	198.19
612.787	193.19
612.995	214.19
613.203	200.19
613.411	194.19
613.618	213.19
613.826	199.19
614.034	203.19
614.242	184.19
614.449	194.19
614.657	190.19
614.865	204.19
615.072	213.19
615.28	192.19
615.488	186.19
615.695	196.19
615.903	190.19
616.111	204.19
616.318	209.19
616.526	181.19
616.733	196.19
616.941	190.19
617.148	199.19
617.356	199.19
617.563	194.19
617.771	206.19
617.978	199.19
618.185	208.19
618.393	180.19
618.6	182.19
618.807	203.19
619.015	202.19
619.222	198.19
619.429	191.19
619.637	180.19
619.844	192.19
620.051	198.19
620.258	193.19
620.466	178.19
620.673	178.19
620.88	187.19
621.087	200.19
621.294	186.19
621.501	195.19
621.708	187.19
621.915	183.19
622.122	200.19
622.329	181.19
622.536	196.19
622.743	186.19
622.95	187.19
623.157	196.19
623.364	182.19
623.571	187.19
623.778	198.19
623.985	186.19
624.192	186.19
624.399	167.19
624.606	180.19
624.812	190.19
625.019	170.19
625.226	180.19
625.433	182.19
625.639	183.19
625.846	172.19
626.053	178.19
626.259	183.19
626.466	195.19
626.673	177.19
626.879	185.19
627.086	182.19
627.293	176.19
627.499	177.19
627.706	159.19
627.912	193.19
628.119	170.19
628.325	176.19
628.532	168.19
628.738	176.19
628.945	153.19
629.151	179.19
629.357	155.19
629.564	179.19
629.77	163.19
629.976	167.19
630.183	180.19
630.389	191.19
630.595	171.19
630.802	166.19
631.008	171.19
631.214	179.19
631.42	161.19
631.627	167.19
631.833	157.19
632.039	178.19
632.245	160.19
632.451	148.19
632.657	161.19
632.863	167.19
633.069	176.19
633.275	166.19
633.481	160.19
633.688	171.19
633.893	171.19
634.099	140.19
634.305	150.19
634.511	157.19
634.717	167.19
634.923	147.19
635.129	157.19
635.335	135.19
635.541	164.19
635.747	163.19
635.952	163.19
636.158	145.19
636.364	170.19
636.57	172.19
636.775	158.19
636.981	155.19
637.187	152.19
637.392	146.19
637.598	158.19
637.804	153.19
638.009	166.19
638.215	160.19
638.421	147.19
638.626	165.19
638.832	166.19
639.037	142.19
639.243	151.19
639.448	160.19
639.654	152.19
639.859	154.19
640.065	144.19
640.27	155.19
640.475	160.19
640.681	151.19
640.886	145.19
641.091	156.19
641.297	145.19
641.502	158.19
641.707	158.19
641.913	149.19
642.118	158.19
642.323	155.19
642.528	151.19
642.733	153.19
642.939	154.19
643.144	154.19
643.349	158.19
643.554	156.19
643.759	148.19
643.964	143.19
644.169	138.19
644.374	140.19
644.579	148.19
644.784	141.19
644.989	136.19
645.194	150.19
645.399	149.19
645.604	142.19
645.809	146.19
646.014	139.19
646.219	167.19
646.423	151.19
646.628	147.19
646.833	146.19
647.038	145.19
647.243	155.19
647.447	154.19
647.652	150.19
647.857	148.19
648.062	145.19
648.266	143.19
648.471	155.19
648.676	150.19
648.88	148.19
649.085	155.19
649.289	154.19
649.494	151.19
649.698	177.19
649.903	156.19
650.107	150.19
650.312	154.19
650.516	140.19
650.721	155.19
650.925	129.19
651.13	147.19
651.334	132.19
651.539	126.19
651.743	135.19
651.947	143.19
652.152	121.19
652.356	130.19
652.56	141.19
652.764	121.19
652.969	130.19
653.173	124.19
653.377	150.19
653.581	129.19
653.785	137.19
653.99	134.19
654.194	137.19
654.398	136.19
654.602	140.19
654.806	113.19
655.01	136.19
655.214	122.19
655.418	111.19
655.622	117.19
655.826	112.19
656.03	127.19
656.234	133.19
656.438	132.19
656.642	132.19
656.846	130.19
657.049	122.19
657.253	113.19
657.457	104.19
657.661	108.19
657.865	101.19
658.068	123.19
658.272	110.19
658.476	111.19
658.68	115.19
658.883	112.19
659.087	98.19
659.291	101.19
659.494	91.19
659.698	96.19
659.901	95.19
660.105	101.19
660.309	96.19
660.512	99.19
660.716	97.19
660.919	103.19
661.123	87.19
661.326	88.19
661.53	96.19
661.733	95.19
661.936	91.19
662.14	88.19
662.343	100.19
662.546	86.19
662.75	70.19
662.953	85.19
663.156	79.19
663.36	79.19
663.563	89.19
663.766	81.19
663.969	79.19
664.173	80.19
664.376	71.19
664.579	86.19
664.782	83.19
664.985	84.19
665.188	81.19
665.391	92.19
665.594	73.19
665.797	80.19
666	77.19
666.203	83.19
666.406	82.19
666.609	85.19
666.812	99.19
667.015	91.19
667.218	88.19
667.421	85.19
667.624	78.19
667.827	75.19
668.03	89.19
668.232	86.19
668.435	81.19
668.638	83.19
668.841	91.19
669.043	93.19
669.246	82.19
669.449	71.19
669.651	82.19
669.854	83.19
670.057	87.19
670.259	78.19
670.462	85.19
670.665	70.19
670.867	93.19
671.07	88.19
671.272	86.19
671.475	93.19
671.677	79.19
671.88	65.19
672.082	74.19
672.284	80.19
672.487	83.19
672.689	87.19
672.892	80.19
