Data from 1966.PennyLincolnUp.Lamp.En5.5.200Scan.071719.P1._HRD10591_14-13-29-913.txt Node
Date: Thu Jul 18 14:13:29 EDT 2019
User: cochatt
Spectrometer: HR+D1059
Trigger mode: 1
Integration Time (sec): 1.000000E-1
Scans to average: 1
Electric dark correction enabled: true
Nonlinearity correction enabled: false
Boxcar width: 0
XAxis mode: Wavelengths
Number of Pixels in Spectrum: 2048
>>>>>Begin Spectral Data<<<<<
223.165	-17
223.4	-17
223.635	-17
223.869	-16
224.104	-29
224.338	-2
224.573	-12
224.808	-14
225.042	-12
225.277	0
225.511	2
225.746	0
225.98	4
226.215	13
226.449	16
226.683	8
226.918	34
227.152	25
227.387	41
227.621	33
227.856	53
228.09	32
228.324	51
228.559	54
228.793	63
229.027	68
229.262	74
229.496	76
229.73	86
229.964	97
230.199	98
230.433	96
230.667	78
230.901	84
231.136	94
231.37	88
231.604	87
231.838	105
232.072	105
232.306	100
232.541	84
232.775	73
233.009	104
233.243	91
233.477	85
233.711	85
233.945	86
234.179	88
234.413	96
234.647	101
234.881	86
235.115	86
235.349	89
235.583	83
235.817	91
236.051	74
236.285	102
236.519	99
236.753	90
236.987	105
237.221	103
237.455	125
237.689	122
237.922	115
238.156	100
238.39	116
238.624	92
238.858	75
239.091	91
239.325	102
239.559	86
239.793	93
240.027	84
240.26	104
240.494	98
240.728	94
240.961	100
241.195	110
241.429	96
241.662	102
241.896	96
242.13	95
242.363	104
242.597	83
242.83	86
243.064	102
243.298	101
243.531	117
243.765	115
243.998	93
244.232	85
244.465	104
244.699	109
244.932	101
245.166	100
245.399	99
245.633	100
245.866	109
246.099	102
246.333	104
246.566	102
246.8	91
247.033	95
247.266	126
247.5	88
247.733	118
247.966	98
248.2	118
248.433	109
248.666	113
248.899	112
249.133	127
249.366	129
249.599	122
249.832	110
250.066	125
250.299	120
250.532	110
250.765	128
250.998	123
251.231	139
251.465	127
251.698	127
251.931	126
252.164	114
252.397	118
252.63	124
252.863	133
253.096	132
253.329	123
253.562	131
253.795	124
254.028	127
254.261	130
254.494	130
254.727	163
254.96	167
255.193	141
255.426	130
255.659	126
255.892	137
256.124	131
256.357	148
256.59	140
256.823	138
257.056	132
257.289	133
257.521	135
257.754	134
257.987	127
258.22	132
258.452	115
258.685	115
258.918	141
259.151	122
259.383	126
259.616	135
259.849	125
260.081	143
260.314	139
260.547	151
260.779	140
261.012	132
261.244	137
261.477	122
261.71	138
261.942	145
262.175	130
262.407	148
262.64	126
262.872	133
263.105	126
263.337	131
263.57	114
263.802	143
264.035	120
264.267	123
264.499	124
264.732	129
264.964	132
265.197	143
265.429	126
265.661	140
265.894	146
266.126	148
266.358	124
266.591	116
266.823	125
267.055	135
267.287	149
267.52	135
267.752	128
267.984	142
268.216	139
268.448	131
268.681	149
268.913	154
269.145	142
269.377	156
269.609	153
269.841	158
270.073	150
270.306	174
270.538	166
270.77	170
271.002	173
271.234	158
271.466	166
271.698	172
271.93	183
272.162	172
272.394	176
272.626	152
272.858	164
273.09	162
273.322	153
273.553	141
273.785	162
274.017	152
274.249	146
274.481	152
274.713	157
274.945	163
275.176	144
275.408	156
275.64	149
275.872	158
276.104	163
276.335	158
276.567	176
276.799	169
277.031	164
277.262	164
277.494	171
277.726	172
277.957	154
278.189	163
278.421	154
278.652	147
278.884	145
279.115	161
279.347	170
279.579	159
279.81	154
280.042	180
280.273	159
280.505	142
280.736	162
280.968	176
281.199	153
281.431	134
281.662	157
281.894	148
282.125	132
282.356	167
282.588	171
282.819	177
283.051	167
283.282	153
283.513	162
283.745	167
283.976	163
284.207	164
284.439	180
284.67	164
284.901	165
285.132	160
285.364	162
285.595	168
285.826	155
286.057	164
286.288	148
286.52	168
286.751	171
286.982	176
287.213	144
287.444	167
287.675	178
287.906	164
288.138	145
288.369	158
288.6	166
288.831	158
289.062	151
289.293	179
289.524	168
289.755	185
289.986	170
290.217	172
290.448	158
290.679	180
290.91	167
291.141	166
291.371	177
291.602	171
291.833	167
292.064	166
292.295	183
292.526	162
292.757	171
292.987	152
293.218	165
293.449	170
293.68	180
293.91	162
294.141	158
294.372	163
294.603	165
294.833	159
295.064	161
295.295	157
295.525	172
295.756	165
295.987	161
296.217	172
296.448	174
296.679	172
296.909	179
297.14	160
297.37	171
297.601	166
297.831	169
298.062	172
298.292	184
298.523	166
298.753	157
298.984	185
299.214	172
299.445	176
299.675	156
299.905	182
300.136	186
300.366	192
300.597	164
300.827	185
301.057	188
301.288	179
301.518	171
301.748	188
301.979	183
302.209	196
302.439	191
302.669	172
302.9	182
303.13	182
303.36	181
303.59	181
303.82	172
304.051	188
304.281	186
304.511	194
304.741	188
304.971	189
305.201	167
305.431	171
305.661	184
305.891	172
306.121	176
306.352	176
306.582	181
306.812	188
307.042	187
307.272	176
307.502	187
307.731	199
307.961	188
308.191	178
308.421	164
308.651	176
308.881	196
309.111	186
309.341	181
309.571	193
309.8	187
310.03	193
310.26	186
310.49	194
310.72	211
310.949	215
311.179	220
311.409	186
311.639	196
311.868	186
312.098	185
312.328	205
312.557	218
312.787	232
313.017	204
313.246	190
313.476	201
313.706	169
313.935	204
314.165	203
314.394	213
314.624	216
314.853	203
315.083	222
315.312	206
315.542	196
315.771	198
316.001	190
316.23	194
316.46	189
316.689	201
316.919	206
317.148	199
317.377	198
317.607	206
317.836	205
318.065	196
318.295	194
318.524	194
318.753	200
318.983	200
319.212	209
319.441	224
319.67	204
319.9	208
320.129	204
320.358	203
320.587	192
320.816	192
321.046	204
321.275	192
321.504	192
321.733	195
321.962	224
322.191	233
322.42	232
322.649	223
322.878	239
323.108	225
323.337	258
323.566	244
323.795	265
324.024	287
324.253	321
324.482	494
324.71	712
324.939	921
325.168	762
325.397	385
325.626	278
325.855	258
326.084	254
326.313	260
326.542	266
326.77	280
326.999	344
327.228	456
327.457	608
327.686	712
327.914	472
328.143	338
328.372	315
328.6	296
328.829	264
329.058	271
329.287	316
329.515	266
329.744	264
329.972	254
330.201	275
330.43	302
330.658	313
330.887	326
331.115	301
331.344	253
331.572	247
331.801	256
332.03	259
332.258	246
332.486	248
332.715	233
332.943	220
333.172	228
333.4	245
333.629	251
333.857	244
334.085	243
334.314	275
334.542	280
334.771	295
334.999	261
335.227	237
335.455	234
335.684	219
335.912	225
336.14	211
336.369	225
336.597	234
336.825	249
337.053	222
337.281	220
337.51	233
337.738	226
337.966	230
338.194	244
338.422	219
338.65	229
338.878	217
339.106	216
339.334	221
339.562	218
339.79	223
340.018	222
340.246	209
340.474	234
340.702	227
340.93	210
341.158	221
341.386	198
341.614	205
341.842	221
342.07	219
342.298	230
342.526	209
342.754	211
342.981	232
343.209	218
343.437	215
343.665	221
343.893	227
344.12	237
344.348	232
344.576	221
344.804	217
345.031	224
345.259	234
345.487	218
345.714	225
345.942	206
346.17	216
346.397	208
346.625	212
346.853	200
347.08	218
347.308	214
347.535	227
347.763	222
347.99	218
348.218	232
348.445	233
348.673	222
348.9	242
349.128	224
349.355	192
349.583	209
349.81	210
350.037	217
350.265	198
350.492	226
350.72	197
350.947	208
351.174	217
351.402	215
351.629	232
351.856	211
352.083	216
352.311	209
352.538	217
352.765	206
352.992	227
353.22	211
353.447	218
353.674	208
353.901	205
354.128	182
354.355	184
354.583	197
354.81	221
355.037	190
355.264	200
355.491	210
355.718	195
355.945	185
356.172	208
356.399	188
356.626	197
356.853	203
357.08	200
357.307	186
357.534	207
357.761	201
357.988	192
358.215	200
358.441	199
358.668	201
358.895	205
359.122	210
359.349	184
359.576	216
359.802	226
360.029	231
360.256	254
360.483	234
360.709	216
360.936	219
361.163	213
361.39	216
361.616	207
361.843	204
362.07	198
362.296	215
362.523	225
362.749	202
362.976	198
363.203	202
363.429	193
363.656	198
363.882	210
364.109	221
364.335	201
364.562	202
364.788	193
365.015	198
365.241	207
365.468	201
365.694	198
365.92	219
366.147	213
366.373	209
366.599	212
366.826	204
367.052	193
367.278	200
367.505	186
367.731	200
367.957	205
368.184	200
368.41	210
368.636	214
368.862	216
369.089	200
369.315	199
369.541	191
369.767	203
369.993	188
370.219	190
370.445	216
370.672	205
370.898	212
371.124	186
371.35	214
371.576	210
371.802	226
372.028	182
372.254	225
372.48	204
372.706	200
372.932	188
373.158	210
373.384	203
373.61	204
373.835	200
374.061	188
374.287	193
374.513	204
374.739	196
374.965	223
375.191	219
375.416	213
375.642	203
375.868	208
376.094	197
376.319	207
376.545	189
376.771	191
376.997	193
377.222	203
377.448	209
377.674	201
377.899	197
378.125	193
378.35	188
378.576	208
378.802	206
379.027	210
379.253	198
379.478	203
379.704	198
379.929	192
380.155	204
380.38	204
380.606	190
380.831	199
381.057	205
381.282	210
381.507	206
381.733	212
381.958	214
382.184	204
382.409	206
382.634	206
382.86	220
383.085	206
383.31	213
383.535	202
383.761	199
383.986	209
384.211	210
384.436	214
384.662	221
384.887	213
385.112	213
385.337	219
385.562	203
385.787	216
386.013	240
386.238	223
386.463	224
386.688	224
386.913	211
387.138	218
387.363	215
387.588	220
387.813	219
388.038	220
388.263	224
388.488	183
388.713	229
388.938	224
389.163	221
389.387	216
389.612	206
389.837	205
390.062	223
390.287	215
390.512	213
390.736	206
390.961	205
391.186	211
391.411	206
391.636	219
391.86	222
392.085	205
392.31	218
392.534	223
392.759	204
392.984	199
393.208	202
393.433	214
393.658	230
393.882	209
394.107	228
394.331	215
394.556	226
394.78	207
395.005	230
395.229	218
395.454	204
395.678	218
395.903	227
396.127	236
396.352	229
396.576	223
396.801	225
397.025	229
397.249	232
397.474	222
397.698	233
397.922	232
398.147	245
398.371	253
398.595	240
398.82	257
399.044	240
399.268	258
399.492	261
399.717	269
399.941	292
400.165	292
400.389	282
400.613	256
400.837	265
401.062	242
401.286	232
401.51	238
401.734	235
401.958	251
402.182	261
402.406	278
402.63	268
402.854	248
403.078	255
403.302	244
403.526	266
403.75	261
403.974	257
404.198	243
404.422	260
404.645	263
404.869	256
405.093	260
405.317	291
405.541	293
405.765	283
405.988	274
406.212	266
406.436	314
406.66	297
406.883	278
407.107	291
407.331	278
407.555	303
407.778	312
408.002	282
408.226	251
408.449	264
408.673	276
408.896	282
409.12	288
409.344	291
409.567	261
409.791	249
410.014	248
410.238	237
410.461	258
410.685	270
410.908	256
411.132	276
411.355	284
411.578	269
411.802	261
412.025	268
412.249	269
412.472	271
412.695	279
412.919	291
413.142	259
413.365	247
413.589	247
413.812	247
414.035	246
414.258	244
414.482	232
414.705	245
414.928	258
415.151	233
415.374	239
415.597	234
415.821	245
416.044	209
416.267	231
416.49	240
416.713	232
416.936	235
417.159	236
417.382	245
417.605	246
417.828	240
418.051	251
418.274	260
418.497	243
418.72	247
418.943	237
419.166	248
419.389	250
419.611	248
419.834	236
420.057	240
420.28	256
420.503	257
420.726	243
420.948	260
421.171	265
421.394	264
421.617	251
421.839	257
422.062	247
422.285	262
422.507	281
422.73	315
422.953	275
423.175	269
423.398	275
423.621	254
423.843	285
424.066	274
424.288	278
424.511	284
424.733	311
424.956	322
425.178	312
425.401	307
425.623	309
425.846	265
426.068	257
426.291	262
426.513	264
426.735	280
426.958	288
427.18	328
427.402	361
427.625	380
427.847	364
428.069	309
428.292	305
428.514	258
428.736	246
428.958	251
429.181	242
429.403	239
429.625	250
429.847	259
430.069	292
430.292	299
430.514	243
430.736	246
430.958	242
431.18	245
431.402	244
431.624	244
431.846	228
432.068	237
432.29	230
432.512	246
432.734	254
432.956	241
433.178	238
433.4	238
433.622	255
433.844	219
434.066	260
434.287	248
434.509	241
434.731	259
434.953	245
435.175	250
435.397	264
435.618	282
435.84	282
436.062	316
436.284	342
436.505	289
436.727	256
436.949	251
437.17	245
437.392	242
437.614	232
437.835	278
438.057	327
438.278	340
438.5	355
438.721	349
438.943	338
439.165	293
439.386	267
439.608	270
439.829	288
440.05	261
440.272	307
440.493	262
440.715	255
440.936	249
441.158	263
441.379	242
441.6	266
441.822	248
442.043	298
442.264	314
442.486	336
442.707	295
442.928	259
443.149	293
443.371	306
443.592	316
443.813	320
444.034	344
444.255	289
444.476	264
444.698	274
444.919	281
445.14	361
445.361	321
445.582	294
445.803	308
446.024	369
446.245	378
446.466	315
446.687	278
446.908	256
447.129	255
447.35	244
447.571	233
447.792	242
448.013	242
448.234	260
448.455	266
448.675	337
448.896	361
449.117	308
449.338	280
449.559	330
449.779	370
450	300
450.221	278
450.442	258
450.662	252
450.883	261
451.104	274
451.324	260
451.545	242
451.766	225
451.986	243
452.207	229
452.428	228
452.648	238
452.869	209
453.089	229
453.31	239
453.53	225
453.751	232
453.971	228
454.192	250
454.412	225
454.633	224
454.853	211
455.073	213
455.294	245
455.514	265
455.734	270
455.955	225
456.175	216
456.395	206
456.616	201
456.836	221
457.056	206
457.276	210
457.497	218
457.717	231
457.937	218
458.157	213
458.377	211
458.598	231
458.818	267
459.038	295
459.258	305
459.478	258
459.698	227
459.918	231
460.138	219
460.358	220
460.578	251
460.798	256
461.018	244
461.238	253
461.458	244
461.678	228
461.898	244
462.118	243
462.338	241
462.558	254
462.777	235
462.997	256
463.217	265
463.437	270
463.657	259
463.876	249
464.096	280
464.316	241
464.536	260
464.755	267
464.975	254
465.195	296
465.414	335
465.634	270
465.854	259
466.073	241
466.293	235
466.512	211
466.732	230
466.951	229
467.171	237
467.391	233
467.61	234
467.829	245
468.049	249
468.268	264
468.488	240
468.707	225
468.927	220
469.146	209
469.365	230
469.585	231
469.804	238
470.023	243
470.243	248
470.462	243
470.681	240
470.901	255
471.12	230
471.339	240
471.558	233
471.777	217
471.997	222
472.216	222
472.435	259
472.654	248
472.873	245
473.092	246
473.311	242
473.53	231
473.749	237
473.968	250
474.187	308
474.406	305
474.625	243
474.844	228
475.063	231
475.282	248
475.501	235
475.72	226
475.939	221
476.158	232
476.377	236
476.596	233
476.814	230
477.033	242
477.252	244
477.471	268
477.69	240
477.908	249
478.127	257
478.346	247
478.564	255
478.783	257
479.002	264
479.22	243
479.439	282
479.658	277
479.876	289
480.095	285
480.313	293
480.532	263
480.751	270
480.969	313
481.188	326
481.406	352
481.624	322
481.843	277
482.061	267
482.28	260
482.498	275
482.717	278
482.935	269
483.153	267
483.372	267
483.59	269
483.808	259
484.027	273
484.245	260
484.463	276
484.681	284
484.9	245
485.118	286
485.336	278
485.554	263
485.772	283
485.99	279
486.209	283
486.427	280
486.645	272
486.863	288
487.081	297
487.299	276
487.517	299
487.735	273
487.953	280
488.171	287
488.389	265
488.607	278
488.825	301
489.043	290
489.261	276
489.479	283
489.696	287
489.914	309
490.132	316
490.35	301
490.568	318
490.786	310
491.003	312
491.221	344
491.439	318
491.657	331
491.874	338
492.092	347
492.31	341
492.527	330
492.745	330
492.963	327
493.18	332
493.398	346
493.615	317
493.833	342
494.05	338
494.268	346
494.485	339
494.703	348
494.92	343
495.138	339
495.355	327
495.573	333
495.79	355
496.008	340
496.225	340
496.442	333
496.66	339
496.877	322
497.094	351
497.312	344
497.529	338
497.746	339
497.963	356
498.181	372
498.398	348
498.615	373
498.832	371
499.049	384
499.267	364
499.484	370
499.701	392
499.918	404
500.135	434
500.352	441
500.569	476
500.786	461
501.003	434
501.22	430
501.437	434
501.654	398
501.871	403
502.088	411
502.305	381
502.522	381
502.739	357
502.956	346
503.172	334
503.389	329
503.606	348
503.823	322
504.04	342
504.256	334
504.473	322
504.69	327
504.907	338
505.123	330
505.34	318
505.557	315
505.773	324
505.99	325
506.207	328
506.423	325
506.64	324
506.856	314
507.073	324
507.289	315
507.506	313
507.722	330
507.939	334
508.155	321
508.372	294
508.588	292
508.805	299
509.021	298
509.238	316
509.454	309
509.67	301
509.887	308
510.103	312
510.319	314
510.536	385
510.752	723
510.968	530
511.184	312
511.401	304
511.617	292
511.833	292
512.049	297
512.265	288
512.481	281
512.698	267
512.914	269
513.13	291
513.346	281
513.562	286
513.778	289
513.994	295
514.21	285
514.426	306
514.642	340
514.858	341
515.074	369
515.29	454
515.506	758
515.721	600
515.937	362
516.153	326
516.369	300
516.585	283
516.801	292
517.016	288
517.232	299
517.448	286
517.664	288
517.879	292
518.095	284
518.311	285
518.527	290
518.742	292
518.958	293
519.173	275
519.389	284
519.605	283
519.82	286
520.036	276
520.251	309
520.467	300
520.682	326
520.898	324
521.113	319
521.329	358
521.544	419
521.76	556
521.975	1057
522.19	1026
522.406	499
522.621	334
522.836	308
523.052	289
523.267	280
523.482	276
523.698	256
523.913	264
524.128	268
524.343	260
524.559	250
524.774	232
524.989	254
525.204	250
525.419	258
525.634	244
525.849	258
526.064	247
526.28	233
526.495	232
526.71	230
526.925	222
527.14	243
527.355	238
527.57	238
527.785	245
527.999	253
528.214	246
528.429	244
528.644	240
528.859	265
529.074	223
529.289	245
529.503	296
529.718	273
529.933	250
530.148	238
530.363	223
530.577	246
530.792	219
531.007	232
531.221	224
531.436	241
531.651	233
531.865	229
532.08	221
532.295	228
532.509	214
532.724	236
532.938	235
533.153	220
533.367	210
533.582	216
533.796	238
534.011	212
534.225	229
534.44	206
534.654	223
534.868	228
535.083	238
535.297	235
535.511	226
535.726	232
535.94	235
536.154	237
536.369	230
536.583	221
536.797	218
537.011	214
537.225	238
537.44	219
537.654	213
537.868	232
538.082	209
538.296	228
538.51	220
538.724	229
538.938	225
539.153	232
539.367	234
539.581	235
539.795	236
540.009	213
540.222	208
540.436	244
540.65	229
540.864	233
541.078	242
541.292	226
541.506	216
541.72	228
541.934	222
542.147	247
542.361	225
542.575	228
542.789	232
543.002	213
543.216	229
543.43	243
543.644	239
543.857	234
544.071	216
544.285	221
544.498	209
544.712	218
544.925	222
545.139	216
545.352	210
545.566	218
545.779	241
545.993	218
546.206	218
546.42	225
546.633	213
546.847	223
547.06	216
547.274	225
547.487	225
547.7	214
547.914	226
548.127	215
548.34	221
548.554	214
548.767	206
548.98	207
549.193	214
549.407	199
549.62	204
549.833	219
550.046	213
550.259	211
550.473	218
550.686	216
550.899	211
551.112	218
551.325	214
551.538	236
551.751	223
551.964	210
552.177	200
552.39	187
552.603	205
552.816	224
553.029	204
553.242	205
553.455	211
553.667	234
553.88	224
554.093	221
554.306	223
554.519	214
554.732	211
554.944	212
555.157	211
555.37	219
555.583	195
555.795	210
556.008	205
556.221	206
556.433	196
556.646	197
556.859	187
557.071	205
557.284	202
557.496	199
557.709	205
557.921	201
558.134	197
558.346	203
558.559	183
558.771	194
558.984	194
559.196	199
559.409	193
559.621	187
559.833	187
560.046	196
560.258	187
560.47	192
560.683	208
560.895	177
561.107	194
561.32	184
561.532	184
561.744	194
561.956	188
562.168	190
562.381	192
562.593	196
562.805	203
563.017	195
563.229	192
563.441	182
563.653	183
563.865	185
564.077	204
564.289	202
564.501	186
564.713	192
564.925	195
565.137	203
565.349	219
565.561	202
565.773	206
565.985	208
566.197	207
566.408	198
566.62	218
566.832	244
567.044	218
567.255	231
567.467	219
567.679	231
567.891	247
568.102	241
568.314	234
568.526	237
568.737	216
568.949	212
569.161	221
569.372	199
569.584	184
569.795	188
570.007	204
570.218	229
570.43	227
570.641	202
570.853	190
571.064	188
571.276	172
571.487	199
571.698	178
571.91	192
572.121	191
572.333	168
572.544	184
572.755	165
572.966	162
573.178	177
573.389	180
573.6	168
573.811	164
574.023	166
574.234	180
574.445	176
574.656	169
574.867	176
575.078	153
575.289	182
575.501	178
575.712	167
575.923	175
576.134	161
576.345	176
576.556	163
576.767	157
576.978	180
577.188	180
577.399	184
577.61	171
577.821	172
578.032	187
578.243	186
578.454	353
578.665	243
578.875	179
579.086	162
579.297	160
579.508	163
579.718	154
579.929	158
580.14	161
580.35	158
580.561	169
580.772	148
580.982	171
581.193	142
581.403	156
581.614	146
581.825	157
582.035	155
582.246	162
582.456	169
582.667	154
582.877	167
583.087	157
583.298	165
583.508	156
583.719	165
583.929	152
584.139	156
584.35	164
584.56	163
584.77	163
584.981	155
585.191	161
585.401	154
585.611	167
585.821	149
586.032	162
586.242	165
586.452	142
586.662	151
586.872	154
587.082	168
587.292	151
587.502	142
587.713	169
587.923	151
588.133	143
588.343	148
588.553	162
588.762	147
588.972	148
589.182	170
589.392	165
589.602	164
589.812	163
590.022	153
590.232	150
590.441	149
590.651	146
590.861	156
591.071	132
591.281	166
591.49	153
591.7	143
591.91	152
592.119	151
592.329	151
592.539	156
592.748	166
592.958	158
593.167	167
593.377	156
593.587	162
593.796	160
594.006	156
594.215	178
594.424	160
594.634	166
594.843	157
595.053	153
595.262	155
595.472	142
595.681	145
595.89	166
596.1	157
596.309	160
596.518	150
596.727	156
596.937	156
597.146	148
597.355	152
597.564	164
597.774	149
597.983	147
598.192	157
598.401	139
598.61	153
598.819	148
599.028	140
599.237	150
599.446	153
599.655	128
599.864	144
600.073	138
600.282	152
600.491	132
600.7	147
600.909	134
601.118	146
601.327	152
601.536	144
601.745	151
601.953	145
602.162	137
602.371	157
602.58	144
602.789	153
602.997	157
603.206	147
603.415	134
603.623	139
603.832	135
604.041	142
604.249	143
604.458	129
604.666	151
604.875	146
605.084	149
605.292	146
605.501	132
605.709	138
605.918	146
606.126	132
606.334	122
606.543	146
606.751	116
606.96	126
607.168	145
607.376	150
607.585	144
607.793	140
608.001	141
608.21	140
608.418	143
608.626	136
608.834	140
609.043	149
609.251	135
609.459	136
609.667	146
609.875	140
610.083	129
610.291	148
610.499	146
610.707	143
610.916	140
611.124	144
611.332	140
611.54	134
611.748	152
611.955	145
612.163	147
612.371	137
612.579	140
612.787	134
612.995	138
613.203	148
613.411	144
613.618	140
613.826	158
614.034	146
614.242	145
614.449	140
614.657	136
614.865	147
615.072	151
615.28	122
615.488	127
615.695	146
615.903	134
616.111	138
616.318	136
616.526	129
616.733	132
616.941	141
617.148	128
617.356	144
617.563	129
617.771	134
617.978	132
618.185	149
618.393	143
618.6	141
618.807	125
619.015	152
619.222	118
619.429	132
619.637	136
619.844	133
620.051	133
620.258	133
620.466	122
620.673	130
620.88	132
621.087	148
621.294	137
621.501	138
621.708	146
621.915	125
622.122	122
622.329	126
622.536	145
622.743	138
622.95	126
623.157	126
623.364	127
623.571	123
623.778	133
623.985	127
624.192	137
624.399	150
624.606	136
624.812	126
625.019	129
625.226	126
625.433	130
625.639	122
625.846	134
626.053	137
626.259	142
626.466	121
626.673	140
626.879	129
627.086	129
627.293	138
627.499	134
627.706	122
627.912	120
628.119	124
628.325	132
628.532	134
628.738	115
628.945	119
629.151	131
629.357	119
629.564	124
629.77	114
629.976	126
630.183	133
630.389	124
630.595	129
630.802	121
631.008	125
631.214	122
631.42	128
631.627	133
631.833	120
632.039	122
632.245	125
632.451	112
632.657	115
632.863	114
633.069	112
633.275	105
633.481	117
633.688	122
633.893	119
634.099	109
634.305	117
634.511	118
634.717	125
634.923	119
635.129	114
635.335	98
635.541	120
635.747	110
635.952	121
636.158	125
636.364	131
636.57	113
636.775	140
636.981	129
637.187	138
637.392	121
637.598	116
637.804	121
638.009	120
638.215	101
638.421	132
638.626	122
638.832	117
639.037	106
639.243	112
639.448	125
639.654	129
639.859	124
640.065	109
640.27	124
640.475	123
640.681	102
640.886	114
641.091	107
641.297	120
641.502	102
641.707	114
641.913	117
642.118	109
642.323	99
642.528	114
642.733	112
642.939	114
643.144	113
643.349	116
643.554	114
643.759	122
643.964	101
644.169	117
644.374	132
644.579	109
644.784	113
644.989	108
645.194	130
645.399	130
645.604	118
645.809	123
646.014	107
646.219	112
646.423	103
646.628	116
646.833	110
647.038	112
647.243	104
647.447	116
647.652	98
647.857	112
648.062	99
648.266	108
648.471	118
648.676	115
648.88	127
649.085	108
649.289	113
649.494	115
649.698	118
649.903	121
650.107	124
650.312	109
650.516	112
650.721	115
650.925	121
651.13	116
651.334	116
651.539	119
651.743	101
651.947	112
652.152	108
652.356	98
652.56	113
652.764	116
652.969	112
653.173	101
653.377	109
653.581	120
653.785	97
653.99	86
654.194	84
654.398	101
654.602	112
654.806	106
655.01	99
655.214	88
655.418	108
655.622	99
655.826	105
656.03	107
656.234	113
656.438	113
656.642	92
656.846	108
657.049	94
657.253	95
657.457	102
657.661	94
657.865	118
658.068	82
658.272	86
658.476	83
658.68	86
658.883	85
659.087	88
659.291	96
659.494	92
659.698	81
659.901	87
660.105	95
660.309	84
660.512	96
660.716	77
660.919	82
661.123	86
661.326	89
661.53	92
661.733	93
661.936	77
662.14	84
662.343	68
662.546	83
662.75	96
662.953	85
663.156	82
663.36	74
663.563	82
663.766	103
663.969	99
664.173	89
664.376	83
664.579	77
664.782	72
664.985	84
665.188	67
665.391	81
665.594	80
665.797	81
666	70
666.203	81
666.406	76
666.609	92
666.812	77
667.015	75
667.218	84
667.421	89
667.624	85
667.827	79
668.03	93
668.232	80
668.435	84
668.638	76
668.841	90
669.043	86
669.246	81
669.449	70
669.651	92
669.854	91
670.057	66
670.259	76
670.462	69
670.665	72
670.867	84
671.07	72
671.272	84
671.475	86
671.677	90
671.88	90
672.082	77
672.284	77
672.487	85
672.689	71
672.892	74
