Data from 1966.PennyLincolnUp.Lamp.En5.5.200Scan.071719.P1._HRD10591_14-15-10-929.txt Node
Date: Thu Jul 18 14:15:10 EDT 2019
User: cochatt
Spectrometer: HR+D1059
Trigger mode: 1
Integration Time (sec): 1.000000E-1
Scans to average: 1
Electric dark correction enabled: true
Nonlinearity correction enabled: false
Boxcar width: 0
XAxis mode: Wavelengths
Number of Pixels in Spectrum: 2048
>>>>>Begin Spectral Data<<<<<
223.165	-15.69
223.4	-15.69
223.635	-15.69
223.869	-20.69
224.104	-24.69
224.338	-19.69
224.573	-18.69
224.808	-20.69
225.042	-17.69
225.277	10.31
225.511	0.31
225.746	8.31
225.98	21.31
226.215	-2.69
226.449	27.31
226.683	16.31
226.918	28.31
227.152	28.31
227.387	29.31
227.621	27.31
227.856	43.31
228.09	50.31
228.324	50.31
228.559	56.31
228.793	57.31
229.027	81.31
229.262	77.31
229.496	85.31
229.73	109.31
229.964	99.31
230.199	103.31
230.433	88.31
230.667	75.31
230.901	100.31
231.136	87.31
231.37	99.31
231.604	102.31
231.838	100.31
232.072	98.31
232.306	84.31
232.541	104.31
232.775	89.31
233.009	88.31
233.243	103.31
233.477	105.31
233.711	88.31
233.945	95.31
234.179	90.31
234.413	94.31
234.647	99.31
234.881	102.31
235.115	97.31
235.349	86.31
235.583	103.31
235.817	109.31
236.051	102.31
236.285	107.31
236.519	107.31
236.753	91.31
236.987	118.31
237.221	138.31
237.455	150.31
237.689	125.31
237.922	101.31
238.156	106.31
238.39	99.31
238.624	100.31
238.858	102.31
239.091	92.31
239.325	93.31
239.559	95.31
239.793	91.31
240.027	99.31
240.26	105.31
240.494	102.31
240.728	114.31
240.961	109.31
241.195	96.31
241.429	111.31
241.662	115.31
241.896	116.31
242.13	110.31
242.363	108.31
242.597	103.31
242.83	100.31
243.064	104.31
243.298	116.31
243.531	112.31
243.765	96.31
243.998	97.31
244.232	104.31
244.465	94.31
244.699	116.31
244.932	118.31
245.166	111.31
245.399	107.31
245.633	99.31
245.866	91.31
246.099	107.31
246.333	104.31
246.566	111.31
246.8	116.31
247.033	114.31
247.266	91.31
247.5	105.31
247.733	116.31
247.966	137.31
248.2	134.31
248.433	120.31
248.666	129.31
248.899	127.31
249.133	144.31
249.366	129.31
249.599	150.31
249.832	134.31
250.066	123.31
250.299	124.31
250.532	132.31
250.765	138.31
250.998	147.31
251.231	152.31
251.465	136.31
251.698	138.31
251.931	134.31
252.164	128.31
252.397	134.31
252.63	127.31
252.863	135.31
253.096	131.31
253.329	144.31
253.562	158.31
253.795	147.31
254.028	136.31
254.261	151.31
254.494	142.31
254.727	174.31
254.96	194.31
255.193	181.31
255.426	159.31
255.659	140.31
255.892	168.31
256.124	147.31
256.357	126.31
256.59	148.31
256.823	137.31
257.056	124.31
257.289	125.31
257.521	138.31
257.754	123.31
257.987	154.31
258.22	127.31
258.452	133.31
258.685	127.31
258.918	138.31
259.151	151.31
259.383	142.31
259.616	146.31
259.849	148.31
260.081	129.31
260.314	157.31
260.547	151.31
260.779	161.31
261.012	153.31
261.244	135.31
261.477	156.31
261.71	135.31
261.942	136.31
262.175	156.31
262.407	152.31
262.64	145.31
262.872	152.31
263.105	130.31
263.337	146.31
263.57	148.31
263.802	137.31
264.035	134.31
264.267	136.31
264.499	127.31
264.732	142.31
264.964	154.31
265.197	140.31
265.429	140.31
265.661	135.31
265.894	133.31
266.126	136.31
266.358	136.31
266.591	142.31
266.823	139.31
267.055	144.31
267.287	151.31
267.52	148.31
267.752	133.31
267.984	131.31
268.216	150.31
268.448	153.31
268.681	147.31
268.913	161.31
269.145	175.31
269.377	178.31
269.609	168.31
269.841	168.31
270.073	190.31
270.306	178.31
270.538	195.31
270.77	185.31
271.002	190.31
271.234	171.31
271.466	191.31
271.698	183.31
271.93	198.31
272.162	200.31
272.394	198.31
272.626	191.31
272.858	173.31
273.09	184.31
273.322	164.31
273.553	186.31
273.785	158.31
274.017	160.31
274.249	156.31
274.481	160.31
274.713	156.31
274.945	155.31
275.176	153.31
275.408	160.31
275.64	157.31
275.872	155.31
276.104	162.31
276.335	173.31
276.567	159.31
276.799	185.31
277.031	184.31
277.262	184.31
277.494	215.31
277.726	186.31
277.957	171.31
278.189	167.31
278.421	150.31
278.652	164.31
278.884	147.31
279.115	143.31
279.347	163.31
279.579	162.31
279.81	158.31
280.042	163.31
280.273	170.31
280.505	170.31
280.736	165.31
280.968	165.31
281.199	154.31
281.431	171.31
281.662	159.31
281.894	159.31
282.125	173.31
282.356	182.31
282.588	176.31
282.819	193.31
283.051	154.31
283.282	173.31
283.513	171.31
283.745	164.31
283.976	174.31
284.207	188.31
284.439	178.31
284.67	172.31
284.901	159.31
285.132	156.31
285.364	178.31
285.595	170.31
285.826	168.31
286.057	179.31
286.288	171.31
286.52	176.31
286.751	175.31
286.982	154.31
287.213	160.31
287.444	171.31
287.675	172.31
287.906	194.31
288.138	170.31
288.369	190.31
288.6	167.31
288.831	180.31
289.062	180.31
289.293	167.31
289.524	173.31
289.755	147.31
289.986	182.31
290.217	181.31
290.448	167.31
290.679	176.31
290.91	166.31
291.141	162.31
291.371	175.31
291.602	164.31
291.833	190.31
292.064	162.31
292.295	163.31
292.526	173.31
292.757	174.31
292.987	172.31
293.218	173.31
293.449	182.31
293.68	164.31
293.91	190.31
294.141	175.31
294.372	168.31
294.603	179.31
294.833	179.31
295.064	181.31
295.295	175.31
295.525	179.31
295.756	172.31
295.987	186.31
296.217	189.31
296.448	201.31
296.679	185.31
296.909	185.31
297.14	185.31
297.37	179.31
297.601	188.31
297.831	186.31
298.062	192.31
298.292	184.31
298.523	190.31
298.753	179.31
298.984	176.31
299.214	158.31
299.445	174.31
299.675	190.31
299.905	187.31
300.136	190.31
300.366	198.31
300.597	181.31
300.827	202.31
301.057	189.31
301.288	192.31
301.518	195.31
301.748	191.31
301.979	195.31
302.209	186.31
302.439	205.31
302.669	190.31
302.9	182.31
303.13	186.31
303.36	209.31
303.59	172.31
303.82	202.31
304.051	206.31
304.281	178.31
304.511	188.31
304.741	195.31
304.971	178.31
305.201	164.31
305.431	204.31
305.661	170.31
305.891	191.31
306.121	214.31
306.352	208.31
306.582	202.31
306.812	166.31
307.042	189.31
307.272	205.31
307.502	183.31
307.731	191.31
307.961	197.31
308.191	192.31
308.421	191.31
308.651	183.31
308.881	211.31
309.111	188.31
309.341	197.31
309.571	196.31
309.8	212.31
310.03	219.31
310.26	226.31
310.49	222.31
310.72	223.31
310.949	216.31
311.179	242.31
311.409	210.31
311.639	215.31
311.868	217.31
312.098	220.31
312.328	211.31
312.557	227.31
312.787	244.31
313.017	233.31
313.246	206.31
313.476	206.31
313.706	195.31
313.935	212.31
314.165	231.31
314.394	228.31
314.624	230.31
314.853	219.31
315.083	202.31
315.312	219.31
315.542	203.31
315.771	205.31
316.001	216.31
316.23	202.31
316.46	222.31
316.689	211.31
316.919	214.31
317.148	222.31
317.377	212.31
317.607	220.31
317.836	208.31
318.065	220.31
318.295	216.31
318.524	204.31
318.753	212.31
318.983	213.31
319.212	199.31
319.441	212.31
319.67	234.31
319.9	219.31
320.129	218.31
320.358	209.31
320.587	220.31
320.816	214.31
321.046	229.31
321.275	224.31
321.504	221.31
321.733	229.31
321.962	230.31
322.191	227.31
322.42	242.31
322.649	234.31
322.878	245.31
323.108	243.31
323.337	261.31
323.566	278.31
323.795	307.31
324.024	311.31
324.253	376.31
324.482	550.31
324.71	830.31
324.939	1137.31
325.168	914.31
325.397	471.31
325.626	322.31
325.855	276.31
326.084	276.31
326.313	272.31
326.542	246.31
326.77	283.31
326.999	385.31
327.228	514.31
327.457	718.31
327.686	821.31
327.914	542.31
328.143	363.31
328.372	322.31
328.6	307.31
328.829	313.31
329.058	327.31
329.287	334.31
329.515	300.31
329.744	272.31
329.972	271.31
330.201	291.31
330.43	327.31
330.658	344.31
330.887	364.31
331.115	344.31
331.344	281.31
331.572	299.31
331.801	263.31
332.03	261.31
332.258	247.31
332.486	251.31
332.715	237.31
332.943	245.31
333.172	249.31
333.4	242.31
333.629	257.31
333.857	262.31
334.085	264.31
334.314	299.31
334.542	324.31
334.771	326.31
334.999	277.31
335.227	267.31
335.455	267.31
335.684	260.31
335.912	253.31
336.14	243.31
336.369	236.31
336.597	248.31
336.825	247.31
337.053	250.31
337.281	259.31
337.51	239.31
337.738	253.31
337.966	240.31
338.194	240.31
338.422	251.31
338.65	235.31
338.878	230.31
339.106	228.31
339.334	233.31
339.562	230.31
339.79	224.31
340.018	238.31
340.246	235.31
340.474	232.31
340.702	240.31
340.93	236.31
341.158	233.31
341.386	252.31
341.614	236.31
341.842	219.31
342.07	236.31
342.298	236.31
342.526	227.31
342.754	216.31
342.981	217.31
343.209	220.31
343.437	226.31
343.665	226.31
343.893	238.31
344.12	244.31
344.348	238.31
344.576	226.31
344.804	236.31
345.031	231.31
345.259	255.31
345.487	219.31
345.714	236.31
345.942	219.31
346.17	227.31
346.397	222.31
346.625	236.31
346.853	231.31
347.08	217.31
347.308	228.31
347.535	230.31
347.763	224.31
347.99	239.31
348.218	231.31
348.445	228.31
348.673	237.31
348.9	232.31
349.128	215.31
349.355	221.31
349.583	216.31
349.81	213.31
350.037	206.31
350.265	218.31
350.492	205.31
350.72	226.31
350.947	211.31
351.174	223.31
351.402	229.31
351.629	231.31
351.856	239.31
352.083	228.31
352.311	233.31
352.538	237.31
352.765	239.31
352.992	235.31
353.22	229.31
353.447	217.31
353.674	217.31
353.901	229.31
354.128	212.31
354.355	214.31
354.583	210.31
354.81	190.31
355.037	206.31
355.264	218.31
355.491	197.31
355.718	205.31
355.945	195.31
356.172	203.31
356.399	215.31
356.626	212.31
356.853	206.31
357.08	220.31
357.307	205.31
357.534	204.31
357.761	200.31
357.988	196.31
358.215	198.31
358.441	220.31
358.668	224.31
358.895	219.31
359.122	220.31
359.349	235.31
359.576	228.31
359.802	237.31
360.029	256.31
360.256	268.31
360.483	253.31
360.709	223.31
360.936	234.31
361.163	219.31
361.39	219.31
361.616	232.31
361.843	222.31
362.07	229.31
362.296	224.31
362.523	216.31
362.749	200.31
362.976	217.31
363.203	217.31
363.429	196.31
363.656	222.31
363.882	207.31
364.109	204.31
364.335	228.31
364.562	226.31
364.788	210.31
365.015	222.31
365.241	204.31
365.468	227.31
365.694	216.31
365.92	237.31
366.147	207.31
366.373	206.31
366.599	217.31
366.826	230.31
367.052	215.31
367.278	202.31
367.505	220.31
367.731	240.31
367.957	214.31
368.184	216.31
368.41	225.31
368.636	229.31
368.862	251.31
369.089	217.31
369.315	217.31
369.541	197.31
369.767	216.31
369.993	214.31
370.219	210.31
370.445	221.31
370.672	205.31
370.898	221.31
371.124	203.31
371.35	211.31
371.576	201.31
371.802	218.31
372.028	200.31
372.254	204.31
372.48	195.31
372.706	198.31
372.932	206.31
373.158	227.31
373.384	219.31
373.61	216.31
373.835	215.31
374.061	195.31
374.287	208.31
374.513	202.31
374.739	224.31
374.965	216.31
375.191	216.31
375.416	227.31
375.642	225.31
375.868	214.31
376.094	212.31
376.319	207.31
376.545	213.31
376.771	207.31
376.997	206.31
377.222	207.31
377.448	213.31
377.674	213.31
377.899	213.31
378.125	212.31
378.35	218.31
378.576	188.31
378.802	211.31
379.027	207.31
379.253	225.31
379.478	211.31
379.704	220.31
379.929	198.31
380.155	205.31
380.38	207.31
380.606	220.31
380.831	216.31
381.057	212.31
381.282	220.31
381.507	213.31
381.733	215.31
381.958	216.31
382.184	209.31
382.409	219.31
382.634	215.31
382.86	216.31
383.085	219.31
383.31	214.31
383.535	217.31
383.761	208.31
383.986	211.31
384.211	226.31
384.436	216.31
384.662	230.31
384.887	220.31
385.112	212.31
385.337	227.31
385.562	244.31
385.787	229.31
386.013	244.31
386.238	238.31
386.463	223.31
386.688	226.31
386.913	227.31
387.138	223.31
387.363	211.31
387.588	229.31
387.813	233.31
388.038	239.31
388.263	241.31
388.488	217.31
388.713	230.31
388.938	229.31
389.163	243.31
389.387	241.31
389.612	220.31
389.837	213.31
390.062	228.31
390.287	218.31
390.512	230.31
390.736	228.31
390.961	230.31
391.186	207.31
391.411	213.31
391.636	216.31
391.86	221.31
392.085	235.31
392.31	208.31
392.534	228.31
392.759	235.31
392.984	236.31
393.208	239.31
393.433	236.31
393.658	228.31
393.882	224.31
394.107	215.31
394.331	231.31
394.556	214.31
394.78	236.31
395.005	231.31
395.229	229.31
395.454	242.31
395.678	229.31
395.903	247.31
396.127	242.31
396.352	234.31
396.576	247.31
396.801	230.31
397.025	233.31
397.249	223.31
397.474	247.31
397.698	240.31
397.922	240.31
398.147	246.31
398.371	247.31
398.595	242.31
398.82	234.31
399.044	269.31
399.268	266.31
399.492	271.31
399.717	283.31
399.941	291.31
400.165	290.31
400.389	304.31
400.613	278.31
400.837	276.31
401.062	271.31
401.286	278.31
401.51	252.31
401.734	253.31
401.958	255.31
402.182	277.31
402.406	273.31
402.63	282.31
402.854	262.31
403.078	273.31
403.302	267.31
403.526	279.31
403.75	275.31
403.974	270.31
404.198	250.31
404.422	276.31
404.645	286.31
404.869	280.31
405.093	277.31
405.317	310.31
405.541	299.31
405.765	274.31
405.988	288.31
406.212	280.31
406.436	295.31
406.66	306.31
406.883	297.31
407.107	299.31
407.331	287.31
407.555	318.31
407.778	339.31
408.002	306.31
408.226	288.31
408.449	283.31
408.673	301.31
408.896	293.31
409.12	322.31
409.344	315.31
409.567	254.31
409.791	266.31
410.014	247.31
410.238	252.31
410.461	266.31
410.685	263.31
410.908	284.31
411.132	289.31
411.355	311.31
411.578	287.31
411.802	264.31
412.025	254.31
412.249	256.31
412.472	288.31
412.695	292.31
412.919	280.31
413.142	279.31
413.365	274.31
413.589	272.31
413.812	262.31
414.035	245.31
414.258	248.31
414.482	265.31
414.705	257.31
414.928	246.31
415.151	263.31
415.374	249.31
415.597	243.31
415.821	256.31
416.044	245.31
416.267	256.31
416.49	254.31
416.713	245.31
416.936	240.31
417.159	256.31
417.382	268.31
417.605	267.31
417.828	260.31
418.051	272.31
418.274	268.31
418.497	240.31
418.72	251.31
418.943	256.31
419.166	278.31
419.389	275.31
419.611	270.31
419.834	265.31
420.057	237.31
420.28	255.31
420.503	266.31
420.726	251.31
420.948	254.31
421.171	293.31
421.394	294.31
421.617	266.31
421.839	268.31
422.062	253.31
422.285	285.31
422.507	280.31
422.73	327.31
422.953	320.31
423.175	300.31
423.398	265.31
423.621	282.31
423.843	280.31
424.066	267.31
424.288	289.31
424.511	284.31
424.733	316.31
424.956	352.31
425.178	335.31
425.401	332.31
425.623	326.31
425.846	277.31
426.068	286.31
426.291	258.31
426.513	275.31
426.735	277.31
426.958	290.31
427.18	322.31
427.402	383.31
427.625	434.31
427.847	394.31
428.069	345.31
428.292	306.31
428.514	278.31
428.736	258.31
428.958	259.31
429.181	250.31
429.403	246.31
429.625	284.31
429.847	290.31
430.069	312.31
430.292	313.31
430.514	284.31
430.736	260.31
430.958	260.31
431.18	251.31
431.402	237.31
431.624	239.31
431.846	266.31
432.068	251.31
432.29	247.31
432.512	253.31
432.734	235.31
432.956	238.31
433.178	257.31
433.4	265.31
433.622	262.31
433.844	242.31
434.066	254.31
434.287	240.31
434.509	260.31
434.731	262.31
434.953	259.31
435.175	275.31
435.397	284.31
435.618	277.31
435.84	294.31
436.062	341.31
436.284	358.31
436.505	308.31
436.727	278.31
436.949	264.31
437.17	265.31
437.392	262.31
437.614	276.31
437.835	282.31
438.057	326.31
438.278	356.31
438.5	361.31
438.721	380.31
438.943	362.31
439.165	308.31
439.386	286.31
439.608	264.31
439.829	288.31
440.05	288.31
440.272	326.31
440.493	300.31
440.715	282.31
440.936	264.31
441.158	272.31
441.379	258.31
441.6	263.31
441.822	277.31
442.043	302.31
442.264	351.31
442.486	350.31
442.707	303.31
442.928	302.31
443.149	294.31
443.371	320.31
443.592	317.31
443.813	371.31
444.034	372.31
444.255	324.31
444.476	284.31
444.698	287.31
444.919	269.31
445.14	373.31
445.361	349.31
445.582	318.31
445.803	322.31
446.024	374.31
446.245	378.31
446.466	361.31
446.687	280.31
446.908	282.31
447.129	266.31
447.35	254.31
447.571	252.31
447.792	264.31
448.013	249.31
448.234	272.31
448.455	292.31
448.675	339.31
448.896	373.31
449.117	335.31
449.338	304.31
449.559	366.31
449.779	375.31
450	338.31
450.221	277.31
450.442	256.31
450.662	249.31
450.883	269.31
451.104	268.31
451.324	261.31
451.545	260.31
451.766	235.31
451.986	234.31
452.207	224.31
452.428	246.31
452.648	249.31
452.869	235.31
453.089	233.31
453.31	259.31
453.53	241.31
453.751	228.31
453.971	241.31
454.192	250.31
454.412	233.31
454.633	242.31
454.853	242.31
455.073	251.31
455.294	270.31
455.514	280.31
455.734	274.31
455.955	256.31
456.175	226.31
456.395	230.31
456.616	214.31
456.836	225.31
457.056	203.31
457.276	212.31
457.497	237.31
457.717	227.31
457.937	228.31
458.157	224.31
458.377	221.31
458.598	252.31
458.818	270.31
459.038	321.31
459.258	321.31
459.478	284.31
459.698	263.31
459.918	238.31
460.138	237.31
460.358	238.31
460.578	226.31
460.798	239.31
461.018	259.31
461.238	247.31
461.458	240.31
461.678	232.31
461.898	235.31
462.118	253.31
462.338	249.31
462.558	248.31
462.777	262.31
462.997	274.31
463.217	270.31
463.437	277.31
463.657	263.31
463.876	270.31
464.096	264.31
464.316	261.31
464.536	269.31
464.755	268.31
464.975	292.31
465.195	314.31
465.414	356.31
465.634	307.31
465.854	263.31
466.073	254.31
466.293	255.31
466.512	264.31
466.732	234.31
466.951	246.31
467.171	233.31
467.391	250.31
467.61	239.31
467.829	254.31
468.049	246.31
468.268	254.31
468.488	229.31
468.707	230.31
468.927	246.31
469.146	216.31
469.365	249.31
469.585	231.31
469.804	237.31
470.023	275.31
470.243	254.31
470.462	259.31
470.681	276.31
470.901	251.31
471.12	257.31
471.339	244.31
471.558	234.31
471.777	231.31
471.997	243.31
472.216	260.31
472.435	286.31
472.654	266.31
472.873	237.31
473.092	247.31
473.311	260.31
473.53	218.31
473.749	242.31
473.968	275.31
474.187	325.31
474.406	299.31
474.625	249.31
474.844	244.31
475.063	238.31
475.282	239.31
475.501	259.31
475.72	246.31
475.939	238.31
476.158	240.31
476.377	262.31
476.596	246.31
476.814	245.31
477.033	263.31
477.252	265.31
477.471	266.31
477.69	273.31
477.908	256.31
478.127	277.31
478.346	263.31
478.564	255.31
478.783	270.31
479.002	280.31
479.22	293.31
479.439	279.31
479.658	290.31
479.876	276.31
480.095	295.31
480.313	308.31
480.532	299.31
480.751	290.31
480.969	319.31
481.188	359.31
481.406	390.31
481.624	333.31
481.843	286.31
482.061	290.31
482.28	283.31
482.498	285.31
482.717	296.31
482.935	301.31
483.153	276.31
483.372	273.31
483.59	271.31
483.808	287.31
484.027	287.31
484.245	297.31
484.463	293.31
484.681	294.31
484.9	300.31
485.118	296.31
485.336	270.31
485.554	295.31
485.772	295.31
485.99	270.31
486.209	290.31
486.427	290.31
486.645	288.31
486.863	301.31
487.081	316.31
487.299	313.31
487.517	296.31
487.735	306.31
487.953	279.31
488.171	312.31
488.389	314.31
488.607	308.31
488.825	302.31
489.043	300.31
489.261	302.31
489.479	303.31
489.696	305.31
489.914	310.31
490.132	313.31
490.35	311.31
490.568	323.31
490.786	328.31
491.003	323.31
491.221	345.31
491.439	345.31
491.657	357.31
491.874	329.31
492.092	354.31
492.31	365.31
492.527	356.31
492.745	370.31
492.963	374.31
493.18	357.31
493.398	363.31
493.615	370.31
493.833	361.31
494.05	350.31
494.268	352.31
494.485	349.31
494.703	349.31
494.92	352.31
495.138	380.31
495.355	357.31
495.573	354.31
495.79	370.31
496.008	346.31
496.225	351.31
496.442	359.31
496.66	359.31
496.877	349.31
497.094	350.31
497.312	346.31
497.529	346.31
497.746	378.31
497.963	359.31
498.181	378.31
498.398	370.31
498.615	368.31
498.832	390.31
499.049	380.31
499.267	408.31
499.484	403.31
499.701	420.31
499.918	419.31
500.135	439.31
500.352	455.31
500.569	472.31
500.786	467.31
501.003	477.31
501.22	443.31
501.437	426.31
501.654	438.31
501.871	454.31
502.088	415.31
502.305	384.31
502.522	382.31
502.739	377.31
502.956	349.31
503.172	372.31
503.389	372.31
503.606	348.31
503.823	378.31
504.04	348.31
504.256	355.31
504.473	328.31
504.69	345.31
504.907	340.31
505.123	339.31
505.34	361.31
505.557	347.31
505.773	323.31
505.99	325.31
506.207	346.31
506.423	333.31
506.64	335.31
506.856	338.31
507.073	319.31
507.289	322.31
507.506	330.31
507.722	345.31
507.939	345.31
508.155	342.31
508.372	311.31
508.588	308.31
508.805	320.31
509.021	317.31
509.238	306.31
509.454	307.31
509.67	325.31
509.887	320.31
510.103	335.31
510.319	323.31
510.536	403.31
510.752	784.31
510.968	590.31
511.184	322.31
511.401	318.31
511.617	307.31
511.833	300.31
512.049	284.31
512.265	307.31
512.481	308.31
512.698	310.31
512.914	297.31
513.13	304.31
513.346	313.31
513.562	290.31
513.778	293.31
513.994	306.31
514.21	314.31
514.426	342.31
514.642	386.31
514.858	382.31
515.074	406.31
515.29	524.31
515.506	860.31
515.721	678.31
515.937	410.31
516.153	341.31
516.369	326.31
516.585	331.31
516.801	308.31
517.016	300.31
517.232	310.31
517.448	328.31
517.664	303.31
517.879	322.31
518.095	311.31
518.311	307.31
518.527	309.31
518.742	283.31
518.958	310.31
519.173	296.31
519.389	300.31
519.605	308.31
519.82	302.31
520.036	312.31
520.251	333.31
520.467	331.31
520.682	365.31
520.898	323.31
521.113	369.31
521.329	365.31
521.544	444.31
521.76	626.31
521.975	1147.31
522.19	1138.31
522.406	535.31
522.621	352.31
522.836	329.31
523.052	314.31
523.267	285.31
523.482	282.31
523.698	271.31
523.913	277.31
524.128	279.31
524.343	282.31
524.559	278.31
524.774	259.31
524.989	261.31
525.204	284.31
525.419	278.31
525.634	267.31
525.849	250.31
526.064	255.31
526.28	258.31
526.495	248.31
526.71	263.31
526.925	247.31
527.14	240.31
527.355	251.31
527.57	239.31
527.785	246.31
527.999	270.31
528.214	258.31
528.429	262.31
528.644	263.31
528.859	277.31
529.074	254.31
529.289	284.31
529.503	335.31
529.718	303.31
529.933	277.31
530.148	267.31
530.363	251.31
530.577	230.31
530.792	224.31
531.007	250.31
531.221	251.31
531.436	227.31
531.651	246.31
531.865	246.31
532.08	247.31
532.295	242.31
532.509	245.31
532.724	234.31
532.938	236.31
533.153	237.31
533.367	236.31
533.582	249.31
533.796	240.31
534.011	233.31
534.225	228.31
534.44	236.31
534.654	252.31
534.868	224.31
535.083	237.31
535.297	228.31
535.511	237.31
535.726	240.31
535.94	225.31
536.154	251.31
536.369	249.31
536.583	227.31
536.797	201.31
537.011	227.31
537.225	226.31
537.44	227.31
537.654	247.31
537.868	227.31
538.082	239.31
538.296	229.31
538.51	242.31
538.724	237.31
538.938	226.31
539.153	238.31
539.367	247.31
539.581	230.31
539.795	231.31
540.009	223.31
540.222	235.31
540.436	224.31
540.65	227.31
540.864	232.31
541.078	244.31
541.292	260.31
541.506	230.31
541.72	206.31
541.934	236.31
542.147	237.31
542.361	232.31
542.575	228.31
542.789	233.31
543.002	223.31
543.216	254.31
543.43	258.31
543.644	255.31
543.857	250.31
544.071	225.31
544.285	221.31
544.498	237.31
544.712	231.31
544.925	232.31
545.139	216.31
545.352	230.31
545.566	230.31
545.779	237.31
545.993	247.31
546.206	251.31
546.42	236.31
546.633	249.31
546.847	232.31
547.06	229.31
547.274	242.31
547.487	226.31
547.7	224.31
547.914	219.31
548.127	223.31
548.34	230.31
548.554	235.31
548.767	244.31
548.98	233.31
549.193	235.31
549.407	242.31
549.62	214.31
549.833	236.31
550.046	226.31
550.259	233.31
550.473	231.31
550.686	231.31
550.899	239.31
551.112	215.31
551.325	221.31
551.538	205.31
551.751	218.31
551.964	205.31
552.177	234.31
552.39	224.31
552.603	223.31
552.816	230.31
553.029	238.31
553.242	221.31
553.455	247.31
553.667	242.31
553.88	240.31
554.093	242.31
554.306	228.31
554.519	231.31
554.732	231.31
554.944	226.31
555.157	214.31
555.37	206.31
555.583	200.31
555.795	235.31
556.008	217.31
556.221	212.31
556.433	208.31
556.646	216.31
556.859	214.31
557.071	204.31
557.284	222.31
557.496	194.31
557.709	209.31
557.921	200.31
558.134	198.31
558.346	206.31
558.559	201.31
558.771	198.31
558.984	205.31
559.196	210.31
559.409	186.31
559.621	188.31
559.833	208.31
560.046	194.31
560.258	186.31
560.47	194.31
560.683	202.31
560.895	214.31
561.107	215.31
561.32	203.31
561.532	199.31
561.744	204.31
561.956	223.31
562.168	206.31
562.381	208.31
562.593	195.31
562.805	202.31
563.017	206.31
563.229	197.31
563.441	208.31
563.653	214.31
563.865	202.31
564.077	204.31
564.289	226.31
564.501	236.31
564.713	207.31
564.925	206.31
565.137	202.31
565.349	217.31
565.561	206.31
565.773	206.31
565.985	221.31
566.197	218.31
566.408	227.31
566.62	223.31
566.832	244.31
567.044	258.31
567.255	239.31
567.467	219.31
567.679	245.31
567.891	243.31
568.102	239.31
568.314	236.31
568.526	237.31
568.737	229.31
568.949	219.31
569.161	203.31
569.372	207.31
569.584	204.31
569.795	191.31
570.007	215.31
570.218	227.31
570.43	236.31
570.641	205.31
570.853	203.31
571.064	186.31
571.276	196.31
571.487	200.31
571.698	199.31
571.91	190.31
572.121	190.31
572.333	184.31
572.544	184.31
572.755	196.31
572.966	191.31
573.178	184.31
573.389	180.31
573.6	180.31
573.811	175.31
574.023	172.31
574.234	185.31
574.445	178.31
574.656	161.31
574.867	180.31
575.078	179.31
575.289	182.31
575.501	175.31
575.712	180.31
575.923	176.31
576.134	170.31
576.345	167.31
576.556	170.31
576.767	174.31
576.978	179.31
577.188	172.31
577.399	180.31
577.61	180.31
577.821	186.31
578.032	174.31
578.243	208.31
578.454	379.31
578.665	266.31
578.875	172.31
579.086	172.31
579.297	168.31
579.508	165.31
579.718	157.31
579.929	164.31
580.14	186.31
580.35	164.31
580.561	164.31
580.772	151.31
580.982	166.31
581.193	170.31
581.403	166.31
581.614	184.31
581.825	167.31
582.035	159.31
582.246	162.31
582.456	164.31
582.667	164.31
582.877	178.31
583.087	150.31
583.298	164.31
583.508	147.31
583.719	167.31
583.929	171.31
584.139	173.31
584.35	157.31
584.56	165.31
584.77	171.31
584.981	164.31
585.191	167.31
585.401	172.31
585.611	165.31
585.821	182.31
586.032	172.31
586.242	162.31
586.452	162.31
586.662	165.31
586.872	162.31
587.082	163.31
587.292	170.31
587.502	158.31
587.713	161.31
587.923	148.31
588.133	159.31
588.343	180.31
588.553	158.31
588.762	154.31
588.972	157.31
589.182	178.31
589.392	174.31
589.602	164.31
589.812	160.31
590.022	172.31
590.232	169.31
590.441	170.31
590.651	154.31
590.861	169.31
591.071	159.31
591.281	169.31
591.49	152.31
591.7	158.31
591.91	167.31
592.119	166.31
592.329	162.31
592.539	170.31
592.748	175.31
592.958	172.31
593.167	186.31
593.377	174.31
593.587	157.31
593.796	170.31
594.006	158.31
594.215	159.31
594.424	179.31
594.634	154.31
594.843	163.31
595.053	169.31
595.262	163.31
595.472	182.31
595.681	158.31
595.89	169.31
596.1	151.31
596.309	158.31
596.518	158.31
596.727	149.31
596.937	154.31
597.146	157.31
597.355	159.31
597.564	148.31
597.774	151.31
597.983	150.31
598.192	157.31
598.401	155.31
598.61	150.31
598.819	156.31
599.028	156.31
599.237	154.31
599.446	155.31
599.655	167.31
599.864	150.31
600.073	150.31
600.282	138.31
600.491	148.31
600.7	154.31
600.909	154.31
601.118	137.31
601.327	147.31
601.536	154.31
601.745	144.31
601.953	150.31
602.162	142.31
602.371	148.31
602.58	150.31
602.789	127.31
602.997	135.31
603.206	166.31
603.415	144.31
603.623	149.31
603.832	152.31
604.041	142.31
604.249	140.31
604.458	162.31
604.666	147.31
604.875	117.31
605.084	150.31
605.292	150.31
605.501	138.31
605.709	143.31
605.918	142.31
606.126	172.31
606.334	143.31
606.543	136.31
606.751	142.31
606.96	144.31
607.168	148.31
607.376	135.31
607.585	126.31
607.793	148.31
608.001	162.31
608.21	158.31
608.418	154.31
608.626	141.31
608.834	154.31
609.043	149.31
609.251	132.31
609.459	140.31
609.667	136.31
609.875	159.31
610.083	154.31
610.291	148.31
610.499	153.31
610.707	148.31
610.916	147.31
611.124	141.31
611.332	138.31
611.54	143.31
611.748	134.31
611.955	148.31
612.163	158.31
612.371	134.31
612.579	147.31
612.787	167.31
612.995	143.31
613.203	142.31
613.411	145.31
613.618	143.31
613.826	123.31
614.034	159.31
614.242	141.31
614.449	141.31
614.657	134.31
614.865	142.31
615.072	154.31
615.28	144.31
615.488	144.31
615.695	139.31
615.903	133.31
616.111	152.31
616.318	154.31
616.526	150.31
616.733	152.31
616.941	126.31
617.148	151.31
617.356	143.31
617.563	140.31
617.771	151.31
617.978	128.31
618.185	139.31
618.393	144.31
618.6	136.31
618.807	129.31
619.015	132.31
619.222	150.31
619.429	142.31
619.637	133.31
619.844	154.31
620.051	145.31
620.258	148.31
620.466	146.31
620.673	128.31
620.88	132.31
621.087	153.31
621.294	128.31
621.501	130.31
621.708	148.31
621.915	137.31
622.122	132.31
622.329	140.31
622.536	150.31
622.743	128.31
622.95	141.31
623.157	107.31
623.364	145.31
623.571	132.31
623.778	144.31
623.985	129.31
624.192	138.31
624.399	145.31
624.606	144.31
624.812	115.31
625.019	131.31
625.226	132.31
625.433	156.31
625.639	128.31
625.846	131.31
626.053	125.31
626.259	139.31
626.466	136.31
626.673	143.31
626.879	134.31
627.086	136.31
627.293	133.31
627.499	131.31
627.706	132.31
627.912	131.31
628.119	125.31
628.325	150.31
628.532	127.31
628.738	134.31
628.945	132.31
629.151	133.31
629.357	127.31
629.564	128.31
629.77	127.31
629.976	136.31
630.183	128.31
630.389	132.31
630.595	123.31
630.802	128.31
631.008	130.31
631.214	126.31
631.42	108.31
631.627	134.31
631.833	128.31
632.039	132.31
632.245	126.31
632.451	130.31
632.657	126.31
632.863	127.31
633.069	130.31
633.275	130.31
633.481	139.31
633.688	119.31
633.893	116.31
634.099	125.31
634.305	122.31
634.511	120.31
634.717	119.31
634.923	130.31
635.129	125.31
635.335	119.31
635.541	122.31
635.747	128.31
635.952	109.31
636.158	128.31
636.364	126.31
636.57	152.31
636.775	135.31
636.981	124.31
637.187	121.31
637.392	134.31
637.598	127.31
637.804	110.31
638.009	122.31
638.215	111.31
638.421	108.31
638.626	111.31
638.832	119.31
639.037	123.31
639.243	116.31
639.448	131.31
639.654	136.31
639.859	119.31
640.065	116.31
640.27	134.31
640.475	118.31
640.681	106.31
640.886	119.31
641.091	122.31
641.297	132.31
641.502	123.31
641.707	112.31
641.913	123.31
642.118	108.31
642.323	92.31
642.528	119.31
642.733	124.31
642.939	126.31
643.144	109.31
643.349	123.31
643.554	110.31
643.759	119.31
643.964	109.31
644.169	110.31
644.374	121.31
644.579	122.31
644.784	123.31
644.989	116.31
645.194	111.31
645.399	120.31
645.604	104.31
645.809	126.31
646.014	125.31
646.219	118.31
646.423	109.31
646.628	114.31
646.833	114.31
647.038	109.31
647.243	110.31
647.447	116.31
647.652	108.31
647.857	117.31
648.062	106.31
648.266	95.31
648.471	129.31
648.676	121.31
648.88	116.31
649.085	122.31
649.289	119.31
649.494	118.31
649.698	132.31
649.903	130.31
650.107	124.31
650.312	109.31
650.516	107.31
650.721	117.31
650.925	109.31
651.13	123.31
651.334	116.31
651.539	127.31
651.743	102.31
651.947	115.31
652.152	106.31
652.356	110.31
652.56	106.31
652.764	107.31
652.969	110.31
653.173	112.31
653.377	112.31
653.581	97.31
653.785	104.31
653.99	106.31
654.194	108.31
654.398	108.31
654.602	108.31
654.806	107.31
655.01	96.31
655.214	114.31
655.418	125.31
655.622	97.31
655.826	119.31
656.03	109.31
656.234	96.31
656.438	108.31
656.642	112.31
656.846	106.31
657.049	104.31
657.253	104.31
657.457	103.31
657.661	89.31
657.865	102.31
658.068	95.31
658.272	110.31
658.476	89.31
658.68	84.31
658.883	102.31
659.087	106.31
659.291	94.31
659.494	93.31
659.698	91.31
659.901	75.31
660.105	88.31
660.309	98.31
660.512	83.31
660.716	104.31
660.919	84.31
661.123	91.31
661.326	85.31
661.53	92.31
661.733	85.31
661.936	85.31
662.14	94.31
662.343	79.31
662.546	88.31
662.75	86.31
662.953	94.31
663.156	86.31
663.36	86.31
663.563	68.31
663.766	85.31
663.969	86.31
664.173	75.31
664.376	92.31
664.579	83.31
664.782	79.31
664.985	81.31
665.188	75.31
665.391	77.31
665.594	82.31
665.797	77.31
666	87.31
666.203	86.31
666.406	83.31
666.609	82.31
666.812	80.31
667.015	92.31
667.218	86.31
667.421	79.31
667.624	93.31
667.827	87.31
668.03	100.31
668.232	71.31
668.435	82.31
668.638	87.31
668.841	80.31
669.043	88.31
669.246	79.31
669.449	95.31
669.651	105.31
669.854	103.31
670.057	85.31
670.259	65.31
670.462	76.31
670.665	94.31
670.867	75.31
671.07	82.31
671.272	79.31
671.475	88.31
671.677	86.31
671.88	95.31
672.082	78.31
672.284	77.31
672.487	100.31
672.689	78.31
672.892	76.31
