Data from 1966.PennyLincolnUp.Lamp.En5.5.200Scan.071719.P1._HRD10591_14-13-01-913.txt Node
Date: Thu Jul 18 14:13:01 EDT 2019
User: cochatt
Spectrometer: HR+D1059
Trigger mode: 1
Integration Time (sec): 1.000000E-1
Scans to average: 1
Electric dark correction enabled: true
Nonlinearity correction enabled: false
Boxcar width: 0
XAxis mode: Wavelengths
Number of Pixels in Spectrum: 2048
>>>>>Begin Spectral Data<<<<<
223.165	-17
223.4	-17
223.635	-17
223.869	-12
224.104	-20
224.338	-15
224.573	-18
224.808	-17
225.042	-5
225.277	-10
225.511	-4
225.746	2
225.98	11
226.215	24
226.449	22
226.683	14
226.918	17
227.152	28
227.387	32
227.621	16
227.856	34
228.09	44
228.324	38
228.559	52
228.793	64
229.027	79
229.262	78
229.496	77
229.73	105
229.964	102
230.199	85
230.433	90
230.667	81
230.901	88
231.136	104
231.37	108
231.604	96
231.838	95
232.072	86
232.306	82
232.541	93
232.775	97
233.009	101
233.243	96
233.477	92
233.711	91
233.945	106
234.179	96
234.413	88
234.647	106
234.881	73
235.115	96
235.349	87
235.583	101
235.817	87
236.051	103
236.285	85
236.519	84
236.753	90
236.987	93
237.221	126
237.455	146
237.689	132
237.922	103
238.156	100
238.39	101
238.624	96
238.858	108
239.091	91
239.325	106
239.559	82
239.793	82
240.027	100
240.26	105
240.494	119
240.728	117
240.961	103
241.195	110
241.429	101
241.662	88
241.896	96
242.13	87
242.363	92
242.597	111
242.83	109
243.064	102
243.298	109
243.531	108
243.765	96
243.998	90
244.232	109
244.465	96
244.699	97
244.932	109
245.166	88
245.399	109
245.633	104
245.866	103
246.099	105
246.333	90
246.566	95
246.8	111
247.033	120
247.266	107
247.5	120
247.733	111
247.966	128
248.2	115
248.433	109
248.666	120
248.899	130
249.133	129
249.366	131
249.599	133
249.832	116
250.066	126
250.299	133
250.532	125
250.765	142
250.998	132
251.231	131
251.465	131
251.698	136
251.931	124
252.164	120
252.397	106
252.63	125
252.863	116
253.096	130
253.329	129
253.562	130
253.795	124
254.028	130
254.261	134
254.494	137
254.727	164
254.96	156
255.193	154
255.426	138
255.659	129
255.892	139
256.124	129
256.357	158
256.59	150
256.823	130
257.056	126
257.289	135
257.521	122
257.754	130
257.987	135
258.22	132
258.452	131
258.685	146
258.918	128
259.151	130
259.383	140
259.616	128
259.849	127
260.081	140
260.314	163
260.547	151
260.779	147
261.012	144
261.244	127
261.477	118
261.71	130
261.942	130
262.175	149
262.407	156
262.64	140
262.872	143
263.105	129
263.337	129
263.57	121
263.802	133
264.035	134
264.267	143
264.499	121
264.732	113
264.964	142
265.197	130
265.429	147
265.661	135
265.894	119
266.126	152
266.358	133
266.591	125
266.823	137
267.055	139
267.287	156
267.52	130
267.752	145
267.984	141
268.216	134
268.448	167
268.681	143
268.913	137
269.145	161
269.377	176
269.609	159
269.841	149
270.073	172
270.306	168
270.538	169
270.77	187
271.002	172
271.234	145
271.466	171
271.698	173
271.93	174
272.162	184
272.394	184
272.626	149
272.858	159
273.09	170
273.322	158
273.553	152
273.785	144
274.017	142
274.249	160
274.481	162
274.713	149
274.945	151
275.176	154
275.408	153
275.64	169
275.872	145
276.104	152
276.335	151
276.567	160
276.799	156
277.031	185
277.262	195
277.494	194
277.726	173
277.957	162
278.189	153
278.421	157
278.652	152
278.884	152
279.115	143
279.347	157
279.579	161
279.81	152
280.042	156
280.273	155
280.505	136
280.736	162
280.968	150
281.199	150
281.431	150
281.662	165
281.894	160
282.125	168
282.356	167
282.588	175
282.819	171
283.051	164
283.282	158
283.513	165
283.745	166
283.976	170
284.207	167
284.439	153
284.67	156
284.901	160
285.132	157
285.364	155
285.595	163
285.826	155
286.057	172
286.288	156
286.52	166
286.751	145
286.982	159
287.213	156
287.444	163
287.675	182
287.906	172
288.138	180
288.369	172
288.6	169
288.831	166
289.062	172
289.293	171
289.524	156
289.755	155
289.986	159
290.217	161
290.448	167
290.679	164
290.91	162
291.141	160
291.371	169
291.602	171
291.833	161
292.064	159
292.295	153
292.526	165
292.757	173
292.987	157
293.218	163
293.449	189
293.68	171
293.91	159
294.141	164
294.372	146
294.603	166
294.833	168
295.064	160
295.295	171
295.525	186
295.756	184
295.987	195
296.217	192
296.448	185
296.679	153
296.909	171
297.14	170
297.37	165
297.601	164
297.831	192
298.062	193
298.292	167
298.523	161
298.753	176
298.984	171
299.214	174
299.445	180
299.675	170
299.905	179
300.136	171
300.366	165
300.597	166
300.827	170
301.057	173
301.288	192
301.518	180
301.748	179
301.979	169
302.209	196
302.439	177
302.669	186
302.9	184
303.13	174
303.36	190
303.59	171
303.82	176
304.051	171
304.281	180
304.511	183
304.741	178
304.971	172
305.201	160
305.431	193
305.661	178
305.891	176
306.121	171
306.352	188
306.582	195
306.812	174
307.042	185
307.272	190
307.502	191
307.731	167
307.961	186
308.191	192
308.421	173
308.651	188
308.881	182
309.111	193
309.341	192
309.571	187
309.8	184
310.03	186
310.26	201
310.49	193
310.72	214
310.949	208
311.179	209
311.409	199
311.639	183
311.868	201
312.098	196
312.328	182
312.557	194
312.787	213
313.017	220
313.246	189
313.476	189
313.706	187
313.935	201
314.165	203
314.394	213
314.624	208
314.853	212
315.083	202
315.312	207
315.542	201
315.771	204
316.001	198
316.23	198
316.46	197
316.689	180
316.919	193
317.148	214
317.377	199
317.607	201
317.836	194
318.065	216
318.295	192
318.524	197
318.753	177
318.983	201
319.212	203
319.441	196
319.67	213
319.9	196
320.129	202
320.358	224
320.587	201
320.816	217
321.046	215
321.275	212
321.504	188
321.733	220
321.962	222
322.191	214
322.42	230
322.649	222
322.878	234
323.108	249
323.337	251
323.566	256
323.795	265
324.024	264
324.253	352
324.482	491
324.71	704
324.939	940
325.168	771
325.397	416
325.626	292
325.855	272
326.084	236
326.313	240
326.542	246
326.77	279
326.999	338
327.228	431
327.457	630
327.686	714
327.914	473
328.143	338
328.372	308
328.6	292
328.829	291
329.058	278
329.287	311
329.515	284
329.744	248
329.972	258
330.201	274
330.43	278
330.658	312
330.887	319
331.115	298
331.344	281
331.572	242
331.801	260
332.03	250
332.258	238
332.486	220
332.715	233
332.943	218
333.172	228
333.4	236
333.629	209
333.857	245
334.085	265
334.314	273
334.542	282
334.771	294
334.999	250
335.227	238
335.455	224
335.684	226
335.912	227
336.14	212
336.369	216
336.597	235
336.825	229
337.053	230
337.281	232
337.51	209
337.738	221
337.966	213
338.194	236
338.422	235
338.65	212
338.878	220
339.106	216
339.334	221
339.562	214
339.79	207
340.018	203
340.246	220
340.474	229
340.702	217
340.93	209
341.158	242
341.386	221
341.614	217
341.842	219
342.07	215
342.298	205
342.526	225
342.754	203
342.981	204
343.209	204
343.437	225
343.665	215
343.893	205
344.12	223
344.348	221
344.576	217
344.804	233
345.031	219
345.259	237
345.487	220
345.714	229
345.942	223
346.17	225
346.397	217
346.625	210
346.853	216
347.08	203
347.308	202
347.535	224
347.763	220
347.99	214
348.218	227
348.445	217
348.673	219
348.9	222
349.128	203
349.355	207
349.583	216
349.81	205
350.037	197
350.265	201
350.492	212
350.72	208
350.947	216
351.174	224
351.402	231
351.629	216
351.856	205
352.083	215
352.311	230
352.538	205
352.765	213
352.992	215
353.22	210
353.447	224
353.674	224
353.901	214
354.128	206
354.355	196
354.583	202
354.81	199
355.037	204
355.264	205
355.491	191
355.718	208
355.945	217
356.172	216
356.399	198
356.626	186
356.853	192
357.08	210
357.307	196
357.534	205
357.761	202
357.988	191
358.215	224
358.441	195
358.668	191
358.895	209
359.122	210
359.349	216
359.576	205
359.802	220
360.029	240
360.256	242
360.483	238
360.709	201
360.936	231
361.163	224
361.39	227
361.616	216
361.843	206
362.07	223
362.296	203
362.523	208
362.749	206
362.976	212
363.203	212
363.429	201
363.656	199
363.882	200
364.109	217
364.335	211
364.562	193
364.788	198
365.015	204
365.241	207
365.468	196
365.694	202
365.92	224
366.147	209
366.373	197
366.599	203
366.826	196
367.052	201
367.278	182
367.505	205
367.731	208
367.957	184
368.184	199
368.41	196
368.636	214
368.862	200
369.089	206
369.315	188
369.541	196
369.767	209
369.993	198
370.219	211
370.445	205
370.672	205
370.898	209
371.124	193
371.35	218
371.576	208
371.802	208
372.028	215
372.254	205
372.48	188
372.706	203
372.932	203
373.158	209
373.384	215
373.61	221
373.835	195
374.061	204
374.287	205
374.513	204
374.739	204
374.965	196
375.191	189
375.416	198
375.642	207
375.868	183
376.094	207
376.319	196
376.545	196
376.771	208
376.997	202
377.222	219
377.448	202
377.674	193
377.899	210
378.125	202
378.35	210
378.576	212
378.802	196
379.027	206
379.253	216
379.478	202
379.704	204
379.929	207
380.155	200
380.38	198
380.606	198
380.831	203
381.057	201
381.282	217
381.507	186
381.733	210
381.958	202
382.184	187
382.409	216
382.634	200
382.86	190
383.085	209
383.31	207
383.535	215
383.761	210
383.986	200
384.211	207
384.436	215
384.662	205
384.887	220
385.112	212
385.337	212
385.562	192
385.787	212
386.013	228
386.238	233
386.463	217
386.688	206
386.913	204
387.138	210
387.363	222
387.588	217
387.813	207
388.038	202
388.263	210
388.488	208
388.713	220
388.938	206
389.163	216
389.387	213
389.612	210
389.837	213
390.062	200
390.287	229
390.512	220
390.736	207
390.961	204
391.186	209
391.411	205
391.636	216
391.86	219
392.085	229
392.31	227
392.534	227
392.759	224
392.984	232
393.208	216
393.433	215
393.658	217
393.882	213
394.107	222
394.331	203
394.556	208
394.78	221
395.005	209
395.229	219
395.454	217
395.678	200
395.903	230
396.127	238
396.352	232
396.576	222
396.801	233
397.025	221
397.249	217
397.474	221
397.698	219
397.922	238
398.147	235
398.371	247
398.595	235
398.82	237
399.044	233
399.268	254
399.492	272
399.717	250
399.941	292
400.165	304
400.389	276
400.613	265
400.837	258
401.062	236
401.286	250
401.51	248
401.734	223
401.958	234
402.182	232
402.406	246
402.63	261
402.854	264
403.078	254
403.302	232
403.526	248
403.75	250
403.974	245
404.198	261
404.422	248
404.645	276
404.869	253
405.093	268
405.317	293
405.541	300
405.765	273
405.988	269
406.212	281
406.436	288
406.66	289
406.883	268
407.107	292
407.331	293
407.555	312
407.778	282
408.002	281
408.226	292
408.449	277
408.673	265
408.896	272
409.12	298
409.344	297
409.567	250
409.791	235
410.014	232
410.238	250
410.461	255
410.685	240
410.908	271
411.132	266
411.355	266
411.578	278
411.802	256
412.025	264
412.249	259
412.472	281
412.695	274
412.919	264
413.142	274
413.365	249
413.589	247
413.812	226
414.035	250
414.258	250
414.482	260
414.705	256
414.928	237
415.151	227
415.374	266
415.597	222
415.821	225
416.044	247
416.267	247
416.49	248
416.713	241
416.936	236
417.159	232
417.382	237
417.605	235
417.828	251
418.051	242
418.274	253
418.497	264
418.72	243
418.943	226
419.166	262
419.389	268
419.611	252
419.834	251
420.057	272
420.28	265
420.503	248
420.726	264
420.948	254
421.171	274
421.394	282
421.617	273
421.839	239
422.062	220
422.285	256
422.507	273
422.73	311
422.953	305
423.175	276
423.398	262
423.621	276
423.843	263
424.066	283
424.288	268
424.511	262
424.733	296
424.956	351
425.178	308
425.401	305
425.623	323
425.846	276
426.068	265
426.291	263
426.513	265
426.735	272
426.958	294
427.18	318
427.402	358
427.625	409
427.847	359
428.069	310
428.292	282
428.514	265
428.736	249
428.958	245
429.181	248
429.403	244
429.625	244
429.847	281
430.069	290
430.292	291
430.514	244
430.736	264
430.958	245
431.18	229
431.402	249
431.624	233
431.846	240
432.068	241
432.29	254
432.512	248
432.734	226
432.956	224
433.178	254
433.4	238
433.622	248
433.844	244
434.066	227
434.287	229
434.509	245
434.731	237
434.953	247
435.175	270
435.397	240
435.618	277
435.84	284
436.062	296
436.284	348
436.505	282
436.727	257
436.949	250
437.17	245
437.392	263
437.614	261
437.835	258
438.057	319
438.278	359
438.5	335
438.721	365
438.943	344
439.165	285
439.386	260
439.608	270
439.829	290
440.05	274
440.272	288
440.493	269
440.715	267
440.936	263
441.158	248
441.379	253
441.6	262
441.822	265
442.043	268
442.264	298
442.486	339
442.707	284
442.928	276
443.149	277
443.371	310
443.592	290
443.813	325
444.034	343
444.255	285
444.476	282
444.698	275
444.919	264
445.14	353
445.361	314
445.582	274
445.803	326
446.024	343
446.245	352
446.466	322
446.687	282
446.908	259
447.129	256
447.35	245
447.571	248
447.792	224
448.013	237
448.234	265
448.455	265
448.675	333
448.896	363
449.117	323
449.338	313
449.559	357
449.779	354
450	296
450.221	268
450.442	244
450.662	233
450.883	248
451.104	266
451.324	250
451.545	241
451.766	230
451.986	214
452.207	220
452.428	235
452.648	225
452.869	225
453.089	244
453.31	234
453.53	231
453.751	218
453.971	235
454.192	240
454.412	238
454.633	213
454.853	208
455.073	207
455.294	241
455.514	265
455.734	257
455.955	229
456.175	216
456.395	206
456.616	206
456.836	202
457.056	205
457.276	229
457.497	219
457.717	216
457.937	226
458.157	212
458.377	215
458.598	249
458.818	265
459.038	296
459.258	304
459.478	253
459.698	232
459.918	236
460.138	248
460.358	236
460.578	248
460.798	237
461.018	241
461.238	232
461.458	259
461.678	234
461.898	229
462.118	225
462.338	261
462.558	240
462.777	248
462.997	274
463.217	256
463.437	267
463.657	246
463.876	236
464.096	256
464.316	269
464.536	260
464.755	259
464.975	263
465.195	286
465.414	328
465.634	272
465.854	220
466.073	249
466.293	230
466.512	233
466.732	231
466.951	242
467.171	229
467.391	233
467.61	238
467.829	248
468.049	234
468.268	238
468.488	229
468.707	229
468.927	221
469.146	226
469.365	229
469.585	222
469.804	238
470.023	228
470.243	242
470.462	240
470.681	253
470.901	229
471.12	232
471.339	225
471.558	237
471.777	225
471.997	228
472.216	255
472.435	278
472.654	250
472.873	230
473.092	231
473.311	234
473.53	233
473.749	248
473.968	239
474.187	305
474.406	284
474.625	261
474.844	239
475.063	228
475.282	232
475.501	240
475.72	252
475.939	232
476.158	248
476.377	234
476.596	264
476.814	252
477.033	248
477.252	261
477.471	239
477.69	237
477.908	250
478.127	244
478.346	255
478.564	250
478.783	272
479.002	251
479.22	233
479.439	245
479.658	279
479.876	274
480.095	268
480.313	284
480.532	291
480.751	272
480.969	268
481.188	324
481.406	354
481.624	295
481.843	288
482.061	287
482.28	272
482.498	275
482.717	265
482.935	258
483.153	263
483.372	256
483.59	260
483.808	266
484.027	270
484.245	269
484.463	288
484.681	290
484.9	273
485.118	259
485.336	269
485.554	278
485.772	272
485.99	269
486.209	261
486.427	281
486.645	286
486.863	292
487.081	294
487.299	264
487.517	293
487.735	275
487.953	285
488.171	265
488.389	282
488.607	290
488.825	284
489.043	271
489.261	282
489.479	298
489.696	282
489.914	293
490.132	287
490.35	302
490.568	299
490.786	318
491.003	301
491.221	324
491.439	324
491.657	317
491.874	331
492.092	330
492.31	338
492.527	331
492.745	324
492.963	331
493.18	327
493.398	349
493.615	345
493.833	344
494.05	334
494.268	317
494.485	333
494.703	336
494.92	338
495.138	342
495.355	327
495.573	324
495.79	334
496.008	327
496.225	326
496.442	332
496.66	322
496.877	339
497.094	324
497.312	345
497.529	324
497.746	335
497.963	327
498.181	350
498.398	344
498.615	357
498.832	357
499.049	378
499.267	379
499.484	386
499.701	382
499.918	400
500.135	428
500.352	442
500.569	437
500.786	424
501.003	437
501.22	402
501.437	402
501.654	411
501.871	396
502.088	392
502.305	349
502.522	353
502.739	357
502.956	337
503.172	334
503.389	329
503.606	350
503.823	340
504.04	337
504.256	339
504.473	314
504.69	323
504.907	340
505.123	320
505.34	315
505.557	313
505.773	327
505.99	320
506.207	331
506.423	326
506.64	310
506.856	314
507.073	322
507.289	299
507.506	296
507.722	310
507.939	311
508.155	294
508.372	295
508.588	289
508.805	285
509.021	300
509.238	316
509.454	315
509.67	315
509.887	311
510.103	295
510.319	298
510.536	363
510.752	696
510.968	525
511.184	316
511.401	301
511.617	273
511.833	296
512.049	284
512.265	287
512.481	281
512.698	284
512.914	269
513.13	274
513.346	258
513.562	298
513.778	301
513.994	287
514.21	290
514.426	323
514.642	326
514.858	358
515.074	359
515.29	460
515.506	734
515.721	571
515.937	332
516.153	302
516.369	319
516.585	286
516.801	294
517.016	285
517.232	289
517.448	264
517.664	296
517.879	306
518.095	306
518.311	287
518.527	288
518.742	295
518.958	279
519.173	297
519.389	296
519.605	284
519.82	298
520.036	293
520.251	301
520.467	335
520.682	314
520.898	314
521.113	339
521.329	350
521.544	410
521.76	534
521.975	1022
522.19	975
522.406	473
522.621	349
522.836	293
523.052	288
523.267	264
523.482	269
523.698	258
523.913	248
524.128	274
524.343	262
524.559	266
524.774	248
524.989	254
525.204	253
525.419	275
525.634	250
525.849	229
526.064	238
526.28	236
526.495	230
526.71	245
526.925	240
527.14	246
527.355	228
527.57	246
527.785	226
527.999	224
528.214	228
528.429	215
528.644	220
528.859	245
529.074	258
529.289	258
529.503	302
529.718	289
529.933	239
530.148	238
530.363	239
530.577	224
530.792	226
531.007	235
531.221	228
531.436	213
531.651	207
531.865	228
532.08	244
532.295	240
532.509	222
532.724	230
532.938	239
533.153	232
533.367	209
533.582	217
533.796	240
534.011	230
534.225	228
534.44	218
534.654	219
534.868	236
535.083	235
535.297	240
535.511	221
535.726	233
535.94	253
536.154	242
536.369	225
536.583	206
536.797	210
537.011	223
537.225	223
537.44	217
537.654	222
537.868	220
538.082	225
538.296	234
538.51	224
538.724	221
538.938	220
539.153	237
539.367	242
539.581	232
539.795	214
540.009	224
540.222	212
540.436	217
540.65	223
540.864	223
541.078	239
541.292	236
541.506	238
541.72	217
541.934	240
542.147	222
542.361	220
542.575	234
542.789	230
543.002	221
543.216	232
543.43	222
543.644	224
543.857	226
544.071	227
544.285	235
544.498	228
544.712	234
544.925	233
545.139	223
545.352	228
545.566	232
545.779	206
545.993	248
546.206	248
546.42	238
546.633	226
546.847	225
547.06	216
547.274	211
547.487	195
547.7	222
547.914	213
548.127	217
548.34	223
548.554	215
548.767	221
548.98	230
549.193	199
549.407	203
549.62	207
549.833	215
550.046	216
550.259	224
550.473	207
550.686	235
550.899	231
551.112	200
551.325	215
551.538	200
551.751	230
551.964	211
552.177	213
552.39	213
552.603	231
552.816	207
553.029	198
553.242	217
553.455	220
553.667	212
553.88	228
554.093	244
554.306	213
554.519	202
554.732	220
554.944	197
555.157	188
555.37	194
555.583	214
555.795	202
556.008	204
556.221	207
556.433	188
556.646	207
556.859	204
557.071	209
557.284	194
557.496	191
557.709	202
557.921	202
558.134	200
558.346	196
558.559	209
558.771	193
558.984	187
559.196	201
559.409	192
559.621	206
559.833	212
560.046	197
560.258	200
560.47	209
560.683	190
560.895	193
561.107	206
561.32	194
561.532	192
561.744	191
561.956	196
562.168	193
562.381	198
562.593	196
562.805	196
563.017	199
563.229	206
563.441	199
563.653	208
563.865	181
564.077	202
564.289	201
564.501	189
564.713	190
564.925	207
565.137	219
565.349	209
565.561	202
565.773	195
565.985	202
566.197	210
566.408	221
566.62	218
566.832	242
567.044	230
567.255	222
567.467	238
567.679	218
567.891	237
568.102	233
568.314	228
568.526	232
568.737	231
568.949	209
569.161	213
569.372	206
569.584	205
569.795	185
570.007	211
570.218	238
570.43	225
570.641	207
570.853	171
571.064	199
571.276	190
571.487	183
571.698	184
571.91	194
572.121	191
572.333	172
572.544	171
572.755	179
572.966	169
573.178	183
573.389	174
573.6	180
573.811	183
574.023	175
574.234	181
574.445	175
574.656	184
574.867	177
575.078	177
575.289	178
575.501	162
575.712	160
575.923	168
576.134	196
576.345	150
576.556	166
576.767	175
576.978	182
577.188	169
577.399	169
577.61	160
577.821	165
578.032	170
578.243	180
578.454	339
578.665	244
578.875	162
579.086	162
579.297	184
579.508	173
579.718	174
579.929	156
580.14	155
580.35	145
580.561	158
580.772	168
580.982	156
581.193	161
581.403	169
581.614	175
581.825	149
582.035	164
582.246	160
582.456	165
582.667	155
582.877	150
583.087	159
583.298	159
583.508	153
583.719	155
583.929	171
584.139	163
584.35	153
584.56	162
584.77	162
584.981	161
585.191	166
585.401	154
585.611	159
585.821	172
586.032	169
586.242	138
586.452	175
586.662	161
586.872	160
587.082	157
587.292	152
587.502	161
587.713	154
587.923	160
588.133	148
588.343	151
588.553	156
588.762	164
588.972	162
589.182	168
589.392	184
589.602	164
589.812	172
590.022	159
590.232	162
590.441	166
590.651	156
590.861	147
591.071	151
591.281	165
591.49	154
591.7	168
591.91	138
592.119	160
592.329	162
592.539	158
592.748	163
592.958	174
593.167	162
593.377	154
593.587	173
593.796	168
594.006	164
594.215	166
594.424	169
594.634	170
594.843	169
595.053	160
595.262	158
595.472	173
595.681	143
595.89	163
596.1	157
596.309	144
596.518	148
596.727	164
596.937	160
597.146	154
597.355	155
597.564	144
597.774	163
597.983	149
598.192	141
598.401	160
598.61	150
598.819	146
599.028	148
599.237	157
599.446	157
599.655	154
599.864	151
600.073	154
600.282	160
600.491	143
600.7	154
600.909	157
601.118	144
601.327	160
601.536	152
601.745	157
601.953	144
602.162	148
602.371	127
602.58	144
602.789	135
602.997	145
603.206	143
603.415	147
603.623	135
603.832	141
604.041	137
604.249	153
604.458	134
604.666	141
604.875	145
605.084	136
605.292	132
605.501	135
605.709	144
605.918	132
606.126	142
606.334	139
606.543	150
606.751	161
606.96	144
607.168	136
607.376	151
607.585	132
607.793	139
608.001	152
608.21	138
608.418	139
608.626	141
608.834	157
609.043	131
609.251	133
609.459	152
609.667	156
609.875	150
610.083	132
610.291	135
610.499	156
610.707	143
610.916	136
611.124	142
611.332	140
611.54	170
611.748	150
611.955	153
612.163	157
612.371	153
612.579	139
612.787	146
612.995	149
613.203	144
613.411	147
613.618	144
613.826	140
614.034	147
614.242	153
614.449	136
614.657	135
614.865	139
615.072	146
615.28	145
615.488	150
615.695	136
615.903	140
616.111	136
616.318	146
616.526	146
616.733	146
616.941	142
617.148	145
617.356	141
617.563	127
617.771	134
617.978	130
618.185	148
618.393	125
618.6	140
618.807	139
619.015	128
619.222	136
619.429	140
619.637	127
619.844	134
620.051	150
620.258	136
620.466	120
620.673	118
620.88	130
621.087	146
621.294	140
621.501	135
621.708	132
621.915	136
622.122	145
622.329	150
622.536	143
622.743	152
622.95	136
623.157	113
623.364	133
623.571	126
623.778	150
623.985	131
624.192	141
624.399	133
624.606	145
624.812	126
625.019	134
625.226	127
625.433	128
625.639	128
625.846	120
626.053	119
626.259	118
626.466	122
626.673	132
626.879	134
627.086	136
627.293	132
627.499	137
627.706	124
627.912	133
628.119	125
628.325	132
628.532	113
628.738	119
628.945	128
629.151	129
629.357	130
629.564	125
629.77	126
629.976	122
630.183	121
630.389	127
630.595	121
630.802	126
631.008	123
631.214	122
631.42	120
631.627	135
631.833	133
632.039	138
632.245	111
632.451	130
632.657	129
632.863	128
633.069	116
633.275	112
633.481	140
633.688	136
633.893	120
634.099	128
634.305	130
634.511	116
634.717	113
634.923	118
635.129	130
635.335	123
635.541	114
635.747	114
635.952	110
636.158	126
636.364	120
636.57	122
636.775	143
636.981	144
637.187	142
637.392	128
637.598	127
637.804	126
638.009	137
638.215	122
638.421	118
638.626	115
638.832	125
639.037	112
639.243	121
639.448	121
639.654	138
639.859	113
640.065	112
640.27	123
640.475	104
640.681	128
640.886	120
641.091	119
641.297	119
641.502	120
641.707	118
641.913	119
642.118	134
642.323	103
642.528	124
642.733	122
642.939	99
643.144	118
643.349	128
643.554	113
643.759	121
643.964	109
644.169	111
644.374	126
644.579	110
644.784	122
644.989	122
645.194	117
645.399	118
645.604	109
645.809	120
646.014	122
646.219	123
646.423	105
646.628	120
646.833	108
647.038	119
647.243	113
647.447	133
647.652	130
647.857	130
648.062	109
648.266	110
648.471	116
648.676	104
648.88	114
649.085	100
649.289	120
649.494	126
649.698	132
649.903	127
650.107	132
650.312	126
650.516	105
650.721	116
650.925	107
651.13	112
651.334	114
651.539	128
651.743	127
651.947	111
652.152	111
652.356	109
652.56	118
652.764	109
652.969	124
653.173	113
653.377	105
653.581	94
653.785	89
653.99	110
654.194	124
654.398	98
654.602	88
654.806	110
655.01	105
655.214	94
655.418	113
655.622	103
655.826	126
656.03	104
656.234	116
656.438	118
656.642	125
656.846	102
657.049	104
657.253	111
657.457	113
657.661	97
657.865	109
658.068	98
658.272	82
658.476	82
658.68	98
658.883	96
659.087	78
659.291	87
659.494	97
659.698	102
659.901	97
660.105	93
660.309	89
660.512	90
660.716	97
660.919	85
661.123	92
661.326	92
661.53	84
661.733	87
661.936	89
662.14	92
662.343	85
662.546	74
662.75	82
662.953	88
663.156	90
663.36	79
663.563	79
663.766	75
663.969	78
664.173	100
664.376	86
664.579	81
664.782	80
664.985	80
665.188	88
665.391	81
665.594	73
665.797	84
666	84
666.203	74
666.406	84
666.609	96
666.812	81
667.015	74
667.218	82
667.421	68
667.624	80
667.827	83
668.03	92
668.232	92
668.435	85
668.638	94
668.841	93
669.043	92
669.246	65
669.449	79
669.651	76
669.854	82
670.057	90
670.259	84
670.462	72
670.665	82
670.867	89
671.07	92
671.272	96
671.475	95
671.677	80
671.88	82
672.082	85
672.284	89
672.487	75
672.689	82
672.892	86
