Data from 1966.PennyLincolnUp.Lamp.En5.5.200Scan.071719.P1._HRD10591_14-15-18-939.txt Node
Date: Thu Jul 18 14:15:18 EDT 2019
User: cochatt
Spectrometer: HR+D1059
Trigger mode: 1
Integration Time (sec): 1.000000E-1
Scans to average: 1
Electric dark correction enabled: true
Nonlinearity correction enabled: false
Boxcar width: 0
XAxis mode: Wavelengths
Number of Pixels in Spectrum: 2048
>>>>>Begin Spectral Data<<<<<
223.165	-28.81
223.4	-28.81
223.635	-28.81
223.869	-11.81
224.104	-19.81
224.338	-21.81
224.573	9.19
224.808	6.19
225.042	-12.81
225.277	-23.81
225.511	6.19
225.746	-6.81
225.98	7.19
226.215	13.19
226.449	22.19
226.683	11.19
226.918	23.19
227.152	27.19
227.387	36.19
227.621	37.19
227.856	42.19
228.09	51.19
228.324	46.19
228.559	53.19
228.793	59.19
229.027	70.19
229.262	85.19
229.496	68.19
229.73	101.19
229.964	102.19
230.199	109.19
230.433	99.19
230.667	83.19
230.901	87.19
231.136	97.19
231.37	94.19
231.604	99.19
231.838	94.19
232.072	77.19
232.306	89.19
232.541	106.19
232.775	102.19
233.009	99.19
233.243	104.19
233.477	91.19
233.711	80.19
233.945	82.19
234.179	93.19
234.413	101.19
234.647	95.19
234.881	90.19
235.115	87.19
235.349	105.19
235.583	91.19
235.817	90.19
236.051	99.19
236.285	104.19
236.519	90.19
236.753	95.19
236.987	107.19
237.221	132.19
237.455	147.19
237.689	114.19
237.922	85.19
238.156	97.19
238.39	94.19
238.624	100.19
238.858	95.19
239.091	91.19
239.325	113.19
239.559	101.19
239.793	98.19
240.027	104.19
240.26	86.19
240.494	113.19
240.728	135.19
240.961	114.19
241.195	107.19
241.429	101.19
241.662	102.19
241.896	94.19
242.13	108.19
242.363	105.19
242.597	98.19
242.83	108.19
243.064	106.19
243.298	122.19
243.531	97.19
243.765	100.19
243.998	115.19
244.232	111.19
244.465	99.19
244.699	102.19
244.932	107.19
245.166	101.19
245.399	98.19
245.633	109.19
245.866	108.19
246.099	105.19
246.333	106.19
246.566	112.19
246.8	117.19
247.033	110.19
247.266	121.19
247.5	99.19
247.733	121.19
247.966	127.19
248.2	120.19
248.433	124.19
248.666	114.19
248.899	120.19
249.133	113.19
249.366	141.19
249.599	129.19
249.832	104.19
250.066	115.19
250.299	133.19
250.532	144.19
250.765	142.19
250.998	139.19
251.231	150.19
251.465	155.19
251.698	129.19
251.931	134.19
252.164	124.19
252.397	138.19
252.63	127.19
252.863	140.19
253.096	136.19
253.329	146.19
253.562	145.19
253.795	135.19
254.028	152.19
254.261	138.19
254.494	153.19
254.727	169.19
254.96	181.19
255.193	169.19
255.426	145.19
255.659	135.19
255.892	154.19
256.124	158.19
256.357	151.19
256.59	147.19
256.823	135.19
257.056	137.19
257.289	136.19
257.521	131.19
257.754	134.19
257.987	122.19
258.22	143.19
258.452	128.19
258.685	155.19
258.918	136.19
259.151	125.19
259.383	136.19
259.616	149.19
259.849	133.19
260.081	155.19
260.314	170.19
260.547	153.19
260.779	168.19
261.012	139.19
261.244	143.19
261.477	143.19
261.71	153.19
261.942	139.19
262.175	156.19
262.407	144.19
262.64	146.19
262.872	143.19
263.105	145.19
263.337	151.19
263.57	140.19
263.802	137.19
264.035	137.19
264.267	134.19
264.499	143.19
264.732	138.19
264.964	145.19
265.197	124.19
265.429	131.19
265.661	137.19
265.894	115.19
266.126	156.19
266.358	139.19
266.591	147.19
266.823	142.19
267.055	135.19
267.287	150.19
267.52	137.19
267.752	131.19
267.984	127.19
268.216	136.19
268.448	150.19
268.681	141.19
268.913	165.19
269.145	165.19
269.377	180.19
269.609	160.19
269.841	162.19
270.073	170.19
270.306	157.19
270.538	185.19
270.77	185.19
271.002	177.19
271.234	159.19
271.466	189.19
271.698	211.19
271.93	193.19
272.162	198.19
272.394	184.19
272.626	181.19
272.858	179.19
273.09	161.19
273.322	153.19
273.553	154.19
273.785	149.19
274.017	151.19
274.249	181.19
274.481	163.19
274.713	157.19
274.945	159.19
275.176	153.19
275.408	170.19
275.64	164.19
275.872	158.19
276.104	169.19
276.335	165.19
276.567	169.19
276.799	174.19
277.031	187.19
277.262	191.19
277.494	182.19
277.726	172.19
277.957	163.19
278.189	170.19
278.421	167.19
278.652	155.19
278.884	149.19
279.115	148.19
279.347	165.19
279.579	154.19
279.81	171.19
280.042	156.19
280.273	166.19
280.505	169.19
280.736	156.19
280.968	169.19
281.199	144.19
281.431	159.19
281.662	164.19
281.894	153.19
282.125	172.19
282.356	173.19
282.588	181.19
282.819	177.19
283.051	143.19
283.282	164.19
283.513	172.19
283.745	171.19
283.976	161.19
284.207	174.19
284.439	161.19
284.67	174.19
284.901	183.19
285.132	161.19
285.364	161.19
285.595	174.19
285.826	152.19
286.057	179.19
286.288	162.19
286.52	172.19
286.751	174.19
286.982	157.19
287.213	166.19
287.444	167.19
287.675	172.19
287.906	191.19
288.138	192.19
288.369	185.19
288.6	178.19
288.831	167.19
289.062	169.19
289.293	170.19
289.524	161.19
289.755	165.19
289.986	163.19
290.217	179.19
290.448	175.19
290.679	161.19
290.91	181.19
291.141	158.19
291.371	162.19
291.602	179.19
291.833	169.19
292.064	176.19
292.295	182.19
292.526	169.19
292.757	157.19
292.987	168.19
293.218	165.19
293.449	180.19
293.68	179.19
293.91	160.19
294.141	167.19
294.372	178.19
294.603	167.19
294.833	170.19
295.064	173.19
295.295	170.19
295.525	165.19
295.756	183.19
295.987	184.19
296.217	186.19
296.448	191.19
296.679	189.19
296.909	168.19
297.14	173.19
297.37	162.19
297.601	167.19
297.831	167.19
298.062	170.19
298.292	185.19
298.523	174.19
298.753	191.19
298.984	178.19
299.214	175.19
299.445	170.19
299.675	175.19
299.905	180.19
300.136	187.19
300.366	173.19
300.597	173.19
300.827	185.19
301.057	202.19
301.288	186.19
301.518	179.19
301.748	180.19
301.979	196.19
302.209	188.19
302.439	187.19
302.669	178.19
302.9	183.19
303.13	202.19
303.36	183.19
303.59	196.19
303.82	177.19
304.051	195.19
304.281	193.19
304.511	194.19
304.741	204.19
304.971	189.19
305.201	189.19
305.431	191.19
305.661	187.19
305.891	190.19
306.121	188.19
306.352	192.19
306.582	196.19
306.812	197.19
307.042	190.19
307.272	189.19
307.502	179.19
307.731	190.19
307.961	199.19
308.191	193.19
308.421	186.19
308.651	194.19
308.881	192.19
309.111	211.19
309.341	200.19
309.571	189.19
309.8	206.19
310.03	202.19
310.26	206.19
310.49	209.19
310.72	220.19
310.949	218.19
311.179	211.19
311.409	220.19
311.639	189.19
311.868	206.19
312.098	218.19
312.328	230.19
312.557	225.19
312.787	235.19
313.017	237.19
313.246	216.19
313.476	219.19
313.706	219.19
313.935	206.19
314.165	219.19
314.394	222.19
314.624	214.19
314.853	209.19
315.083	216.19
315.312	222.19
315.542	211.19
315.771	204.19
316.001	203.19
316.23	216.19
316.46	194.19
316.689	204.19
316.919	211.19
317.148	223.19
317.377	232.19
317.607	203.19
317.836	212.19
318.065	209.19
318.295	203.19
318.524	201.19
318.753	195.19
318.983	186.19
319.212	212.19
319.441	201.19
319.67	205.19
319.9	206.19
320.129	197.19
320.358	209.19
320.587	214.19
320.816	197.19
321.046	212.19
321.275	210.19
321.504	216.19
321.733	230.19
321.962	229.19
322.191	219.19
322.42	221.19
322.649	251.19
322.878	239.19
323.108	257.19
323.337	270.19
323.566	273.19
323.795	301.19
324.024	315.19
324.253	373.19
324.482	553.19
324.71	809.19
324.939	1078.19
325.168	883.19
325.397	430.19
325.626	321.19
325.855	270.19
326.084	253.19
326.313	259.19
326.542	294.19
326.77	290.19
326.999	350.19
327.228	486.19
327.457	729.19
327.686	821.19
327.914	542.19
328.143	369.19
328.372	337.19
328.6	311.19
328.829	303.19
329.058	307.19
329.287	327.19
329.515	300.19
329.744	289.19
329.972	276.19
330.201	297.19
330.43	330.19
330.658	336.19
330.887	349.19
331.115	334.19
331.344	289.19
331.572	271.19
331.801	263.19
332.03	265.19
332.258	268.19
332.486	230.19
332.715	244.19
332.943	239.19
333.172	257.19
333.4	265.19
333.629	244.19
333.857	261.19
334.085	274.19
334.314	284.19
334.542	307.19
334.771	328.19
334.999	287.19
335.227	260.19
335.455	264.19
335.684	252.19
335.912	228.19
336.14	226.19
336.369	236.19
336.597	246.19
336.825	247.19
337.053	211.19
337.281	235.19
337.51	222.19
337.738	247.19
337.966	237.19
338.194	249.19
338.422	236.19
338.65	250.19
338.878	220.19
339.106	230.19
339.334	245.19
339.562	234.19
339.79	239.19
340.018	242.19
340.246	227.19
340.474	245.19
340.702	232.19
340.93	224.19
341.158	215.19
341.386	244.19
341.614	230.19
341.842	228.19
342.07	237.19
342.298	221.19
342.526	205.19
342.754	221.19
342.981	227.19
343.209	231.19
343.437	227.19
343.665	230.19
343.893	223.19
344.12	236.19
344.348	215.19
344.576	251.19
344.804	260.19
345.031	245.19
345.259	255.19
345.487	227.19
345.714	232.19
345.942	217.19
346.17	231.19
346.397	220.19
346.625	229.19
346.853	210.19
347.08	227.19
347.308	243.19
347.535	214.19
347.763	216.19
347.99	218.19
348.218	218.19
348.445	233.19
348.673	243.19
348.9	229.19
349.128	229.19
349.355	210.19
349.583	212.19
349.81	221.19
350.037	221.19
350.265	222.19
350.492	220.19
350.72	205.19
350.947	224.19
351.174	231.19
351.402	223.19
351.629	218.19
351.856	214.19
352.083	226.19
352.311	236.19
352.538	219.19
352.765	234.19
352.992	215.19
353.22	226.19
353.447	225.19
353.674	236.19
353.901	219.19
354.128	216.19
354.355	205.19
354.583	217.19
354.81	207.19
355.037	210.19
355.264	207.19
355.491	198.19
355.718	198.19
355.945	205.19
356.172	222.19
356.399	204.19
356.626	187.19
356.853	191.19
357.08	200.19
357.307	218.19
357.534	217.19
357.761	197.19
357.988	215.19
358.215	214.19
358.441	216.19
358.668	214.19
358.895	225.19
359.122	185.19
359.349	211.19
359.576	236.19
359.802	238.19
360.029	253.19
360.256	267.19
360.483	260.19
360.709	226.19
360.936	230.19
361.163	207.19
361.39	215.19
361.616	237.19
361.843	230.19
362.07	222.19
362.296	222.19
362.523	227.19
362.749	239.19
362.976	207.19
363.203	230.19
363.429	214.19
363.656	201.19
363.882	207.19
364.109	210.19
364.335	219.19
364.562	218.19
364.788	203.19
365.015	202.19
365.241	202.19
365.468	213.19
365.694	217.19
365.92	223.19
366.147	215.19
366.373	205.19
366.599	207.19
366.826	210.19
367.052	204.19
367.278	227.19
367.505	212.19
367.731	213.19
367.957	202.19
368.184	205.19
368.41	220.19
368.636	236.19
368.862	226.19
369.089	224.19
369.315	212.19
369.541	227.19
369.767	215.19
369.993	206.19
370.219	215.19
370.445	210.19
370.672	208.19
370.898	206.19
371.124	227.19
371.35	194.19
371.576	209.19
371.802	209.19
372.028	215.19
372.254	199.19
372.48	206.19
372.706	211.19
372.932	195.19
373.158	202.19
373.384	206.19
373.61	208.19
373.835	193.19
374.061	215.19
374.287	229.19
374.513	220.19
374.739	213.19
374.965	210.19
375.191	221.19
375.416	191.19
375.642	213.19
375.868	217.19
376.094	216.19
376.319	214.19
376.545	213.19
376.771	196.19
376.997	213.19
377.222	196.19
377.448	194.19
377.674	226.19
377.899	214.19
378.125	198.19
378.35	207.19
378.576	207.19
378.802	202.19
379.027	220.19
379.253	222.19
379.478	214.19
379.704	205.19
379.929	214.19
380.155	218.19
380.38	213.19
380.606	212.19
380.831	213.19
381.057	218.19
381.282	211.19
381.507	210.19
381.733	207.19
381.958	203.19
382.184	205.19
382.409	218.19
382.634	213.19
382.86	200.19
383.085	213.19
383.31	210.19
383.535	213.19
383.761	215.19
383.986	219.19
384.211	215.19
384.436	211.19
384.662	221.19
384.887	231.19
385.112	218.19
385.337	199.19
385.562	214.19
385.787	205.19
386.013	237.19
386.238	231.19
386.463	227.19
386.688	221.19
386.913	229.19
387.138	222.19
387.363	236.19
387.588	226.19
387.813	220.19
388.038	220.19
388.263	227.19
388.488	228.19
388.713	232.19
388.938	218.19
389.163	229.19
389.387	229.19
389.612	227.19
389.837	197.19
390.062	229.19
390.287	218.19
390.512	205.19
390.736	228.19
390.961	212.19
391.186	216.19
391.411	215.19
391.636	231.19
391.86	227.19
392.085	237.19
392.31	234.19
392.534	225.19
392.759	238.19
392.984	243.19
393.208	217.19
393.433	247.19
393.658	239.19
393.882	209.19
394.107	227.19
394.331	212.19
394.556	200.19
394.78	210.19
395.005	224.19
395.229	216.19
395.454	239.19
395.678	235.19
395.903	226.19
396.127	246.19
396.352	233.19
396.576	221.19
396.801	236.19
397.025	220.19
397.249	234.19
397.474	213.19
397.698	225.19
397.922	238.19
398.147	244.19
398.371	237.19
398.595	235.19
398.82	232.19
399.044	251.19
399.268	281.19
399.492	265.19
399.717	285.19
399.941	286.19
400.165	311.19
400.389	289.19
400.613	279.19
400.837	268.19
401.062	265.19
401.286	266.19
401.51	263.19
401.734	252.19
401.958	257.19
402.182	243.19
402.406	251.19
402.63	276.19
402.854	276.19
403.078	263.19
403.302	262.19
403.526	260.19
403.75	268.19
403.974	260.19
404.198	261.19
404.422	280.19
404.645	281.19
404.869	292.19
405.093	281.19
405.317	310.19
405.541	322.19
405.765	293.19
405.988	278.19
406.212	293.19
406.436	292.19
406.66	297.19
406.883	292.19
407.107	303.19
407.331	287.19
407.555	325.19
407.778	339.19
408.002	300.19
408.226	291.19
408.449	289.19
408.673	283.19
408.896	276.19
409.12	287.19
409.344	315.19
409.567	269.19
409.791	281.19
410.014	266.19
410.238	265.19
410.461	238.19
410.685	281.19
410.908	254.19
411.132	295.19
411.355	309.19
411.578	300.19
411.802	256.19
412.025	256.19
412.249	263.19
412.472	274.19
412.695	301.19
412.919	277.19
413.142	249.19
413.365	258.19
413.589	252.19
413.812	259.19
414.035	261.19
414.258	265.19
414.482	260.19
414.705	262.19
414.928	238.19
415.151	251.19
415.374	242.19
415.597	251.19
415.821	243.19
416.044	254.19
416.267	265.19
416.49	255.19
416.713	247.19
416.936	248.19
417.159	243.19
417.382	257.19
417.605	245.19
417.828	258.19
418.051	263.19
418.274	268.19
418.497	248.19
418.72	245.19
418.943	236.19
419.166	264.19
419.389	269.19
419.611	247.19
419.834	259.19
420.057	284.19
420.28	279.19
420.503	254.19
420.726	264.19
420.948	251.19
421.171	263.19
421.394	299.19
421.617	273.19
421.839	267.19
422.062	266.19
422.285	263.19
422.507	302.19
422.73	335.19
422.953	317.19
423.175	262.19
423.398	267.19
423.621	274.19
423.843	275.19
424.066	268.19
424.288	285.19
424.511	283.19
424.733	317.19
424.956	348.19
425.178	311.19
425.401	322.19
425.623	325.19
425.846	283.19
426.068	260.19
426.291	262.19
426.513	265.19
426.735	275.19
426.958	311.19
427.18	346.19
427.402	385.19
427.625	415.19
427.847	369.19
428.069	332.19
428.292	268.19
428.514	264.19
428.736	256.19
428.958	246.19
429.181	259.19
429.403	253.19
429.625	250.19
429.847	283.19
430.069	302.19
430.292	287.19
430.514	272.19
430.736	250.19
430.958	253.19
431.18	246.19
431.402	235.19
431.624	235.19
431.846	229.19
432.068	244.19
432.29	247.19
432.512	248.19
432.734	238.19
432.956	243.19
433.178	264.19
433.4	267.19
433.622	250.19
433.844	250.19
434.066	247.19
434.287	238.19
434.509	245.19
434.731	256.19
434.953	267.19
435.175	265.19
435.397	268.19
435.618	276.19
435.84	300.19
436.062	346.19
436.284	367.19
436.505	284.19
436.727	271.19
436.949	251.19
437.17	259.19
437.392	246.19
437.614	281.19
437.835	281.19
438.057	334.19
438.278	381.19
438.5	355.19
438.721	389.19
438.943	386.19
439.165	310.19
439.386	275.19
439.608	267.19
439.829	279.19
440.05	303.19
440.272	312.19
440.493	301.19
440.715	294.19
440.936	260.19
441.158	274.19
441.379	257.19
441.6	272.19
441.822	283.19
442.043	283.19
442.264	336.19
442.486	358.19
442.707	294.19
442.928	280.19
443.149	279.19
443.371	297.19
443.592	323.19
443.813	352.19
444.034	376.19
444.255	312.19
444.476	291.19
444.698	275.19
444.919	282.19
445.14	371.19
445.361	323.19
445.582	284.19
445.803	326.19
446.024	373.19
446.245	352.19
446.466	326.19
446.687	290.19
446.908	261.19
447.129	272.19
447.35	268.19
447.571	256.19
447.792	264.19
448.013	266.19
448.234	265.19
448.455	316.19
448.675	333.19
448.896	381.19
449.117	328.19
449.338	321.19
449.559	344.19
449.779	396.19
450	302.19
450.221	270.19
450.442	248.19
450.662	252.19
450.883	271.19
451.104	272.19
451.324	271.19
451.545	257.19
451.766	234.19
451.986	222.19
452.207	209.19
452.428	231.19
452.648	231.19
452.869	238.19
453.089	252.19
453.31	249.19
453.53	228.19
453.751	236.19
453.971	236.19
454.192	248.19
454.412	250.19
454.633	230.19
454.853	230.19
455.073	226.19
455.294	258.19
455.514	297.19
455.734	272.19
455.955	231.19
456.175	236.19
456.395	230.19
456.616	221.19
456.836	218.19
457.056	225.19
457.276	232.19
457.497	232.19
457.717	231.19
457.937	223.19
458.157	228.19
458.377	220.19
458.598	260.19
458.818	297.19
459.038	340.19
459.258	287.19
459.478	278.19
459.698	250.19
459.918	226.19
460.138	244.19
460.358	249.19
460.578	246.19
460.798	226.19
461.018	255.19
461.238	241.19
461.458	256.19
461.678	238.19
461.898	238.19
462.118	249.19
462.338	269.19
462.558	268.19
462.777	251.19
462.997	258.19
463.217	276.19
463.437	276.19
463.657	249.19
463.876	259.19
464.096	263.19
464.316	265.19
464.536	274.19
464.755	279.19
464.975	276.19
465.195	334.19
465.414	363.19
465.634	292.19
465.854	252.19
466.073	251.19
466.293	249.19
466.512	245.19
466.732	238.19
466.951	241.19
467.171	221.19
467.391	223.19
467.61	246.19
467.829	251.19
468.049	239.19
468.268	239.19
468.488	243.19
468.707	230.19
468.927	240.19
469.146	221.19
469.365	241.19
469.585	242.19
469.804	235.19
470.023	253.19
470.243	246.19
470.462	273.19
470.681	284.19
470.901	265.19
471.12	248.19
471.339	249.19
471.558	246.19
471.777	235.19
471.997	232.19
472.216	263.19
472.435	305.19
472.654	297.19
472.873	246.19
473.092	255.19
473.311	256.19
473.53	245.19
473.749	250.19
473.968	285.19
474.187	337.19
474.406	326.19
474.625	269.19
474.844	253.19
475.063	242.19
475.282	230.19
475.501	249.19
475.72	239.19
475.939	230.19
476.158	247.19
476.377	249.19
476.596	249.19
476.814	246.19
477.033	270.19
477.252	249.19
477.471	254.19
477.69	263.19
477.908	282.19
478.127	264.19
478.346	253.19
478.564	244.19
478.783	295.19
479.002	269.19
479.22	281.19
479.439	296.19
479.658	304.19
479.876	298.19
480.095	295.19
480.313	299.19
480.532	291.19
480.751	310.19
480.969	317.19
481.188	369.19
481.406	410.19
481.624	313.19
481.843	293.19
482.061	286.19
482.28	284.19
482.498	288.19
482.717	282.19
482.935	267.19
483.153	271.19
483.372	286.19
483.59	287.19
483.808	279.19
484.027	274.19
484.245	265.19
484.463	292.19
484.681	285.19
484.9	280.19
485.118	288.19
485.336	268.19
485.554	289.19
485.772	287.19
485.99	295.19
486.209	301.19
486.427	294.19
486.645	298.19
486.863	293.19
487.081	309.19
487.299	298.19
487.517	291.19
487.735	302.19
487.953	304.19
488.171	308.19
488.389	304.19
488.607	303.19
488.825	300.19
489.043	294.19
489.261	306.19
489.479	290.19
489.696	317.19
489.914	305.19
490.132	313.19
490.35	321.19
490.568	323.19
490.786	313.19
491.003	314.19
491.221	335.19
491.439	349.19
491.657	360.19
491.874	350.19
492.092	338.19
492.31	358.19
492.527	342.19
492.745	376.19
492.963	341.19
493.18	335.19
493.398	357.19
493.615	356.19
493.833	356.19
494.05	367.19
494.268	346.19
494.485	345.19
494.703	347.19
494.92	358.19
495.138	342.19
495.355	347.19
495.573	349.19
495.79	358.19
496.008	344.19
496.225	344.19
496.442	350.19
496.66	346.19
496.877	359.19
497.094	353.19
497.312	371.19
497.529	350.19
497.746	379.19
497.963	373.19
498.181	384.19
498.398	388.19
498.615	375.19
498.832	387.19
499.049	395.19
499.267	388.19
499.484	410.19
499.701	423.19
499.918	421.19
500.135	438.19
500.352	466.19
500.569	454.19
500.786	457.19
501.003	463.19
501.22	452.19
501.437	449.19
501.654	425.19
501.871	444.19
502.088	408.19
502.305	385.19
502.522	384.19
502.739	380.19
502.956	373.19
503.172	336.19
503.389	347.19
503.606	374.19
503.823	348.19
504.04	332.19
504.256	340.19
504.473	340.19
504.69	347.19
504.907	334.19
505.123	362.19
505.34	332.19
505.557	333.19
505.773	349.19
505.99	329.19
506.207	319.19
506.423	337.19
506.64	331.19
506.856	333.19
507.073	317.19
507.289	340.19
507.506	327.19
507.722	346.19
507.939	343.19
508.155	321.19
508.372	312.19
508.588	311.19
508.805	315.19
509.021	328.19
509.238	335.19
509.454	334.19
509.67	340.19
509.887	328.19
510.103	317.19
510.319	319.19
510.536	416.19
510.752	769.19
510.968	577.19
511.184	352.19
511.401	303.19
511.617	306.19
511.833	308.19
512.049	309.19
512.265	302.19
512.481	293.19
512.698	297.19
512.914	310.19
513.13	303.19
513.346	283.19
513.562	296.19
513.778	279.19
513.994	291.19
514.21	303.19
514.426	326.19
514.642	343.19
514.858	365.19
515.074	392.19
515.29	518.19
515.506	867.19
515.721	666.19
515.937	390.19
516.153	353.19
516.369	328.19
516.585	300.19
516.801	300.19
517.016	302.19
517.232	322.19
517.448	308.19
517.664	307.19
517.879	315.19
518.095	311.19
518.311	303.19
518.527	285.19
518.742	292.19
518.958	297.19
519.173	313.19
519.389	305.19
519.605	292.19
519.82	291.19
520.036	301.19
520.251	320.19
520.467	331.19
520.682	340.19
520.898	339.19
521.113	349.19
521.329	371.19
521.544	454.19
521.76	602.19
521.975	1171.19
522.19	1164.19
522.406	577.19
522.621	375.19
522.836	306.19
523.052	301.19
523.267	269.19
523.482	290.19
523.698	265.19
523.913	286.19
524.128	269.19
524.343	282.19
524.559	277.19
524.774	270.19
524.989	266.19
525.204	267.19
525.419	247.19
525.634	267.19
525.849	251.19
526.064	253.19
526.28	261.19
526.495	275.19
526.71	243.19
526.925	247.19
527.14	245.19
527.355	232.19
527.57	244.19
527.785	252.19
527.999	238.19
528.214	251.19
528.429	236.19
528.644	241.19
528.859	263.19
529.074	252.19
529.289	274.19
529.503	333.19
529.718	313.19
529.933	262.19
530.148	254.19
530.363	256.19
530.577	222.19
530.792	233.19
531.007	247.19
531.221	241.19
531.436	234.19
531.651	250.19
531.865	218.19
532.08	236.19
532.295	250.19
532.509	236.19
532.724	243.19
532.938	228.19
533.153	217.19
533.367	241.19
533.582	254.19
533.796	234.19
534.011	229.19
534.225	242.19
534.44	230.19
534.654	237.19
534.868	221.19
535.083	227.19
535.297	230.19
535.511	245.19
535.726	250.19
535.94	243.19
536.154	241.19
536.369	241.19
536.583	231.19
536.797	228.19
537.011	219.19
537.225	242.19
537.44	237.19
537.654	220.19
537.868	219.19
538.082	224.19
538.296	228.19
538.51	216.19
538.724	227.19
538.938	239.19
539.153	238.19
539.367	249.19
539.581	259.19
539.795	247.19
540.009	228.19
540.222	234.19
540.436	230.19
540.65	251.19
540.864	235.19
541.078	237.19
541.292	265.19
541.506	230.19
541.72	233.19
541.934	237.19
542.147	247.19
542.361	233.19
542.575	223.19
542.789	240.19
543.002	234.19
543.216	253.19
543.43	241.19
543.644	243.19
543.857	234.19
544.071	233.19
544.285	224.19
544.498	244.19
544.712	214.19
544.925	238.19
545.139	230.19
545.352	235.19
545.566	231.19
545.779	215.19
545.993	221.19
546.206	219.19
546.42	229.19
546.633	215.19
546.847	223.19
547.06	210.19
547.274	231.19
547.487	225.19
547.7	237.19
547.914	227.19
548.127	221.19
548.34	215.19
548.554	227.19
548.767	221.19
548.98	215.19
549.193	219.19
549.407	227.19
549.62	222.19
549.833	240.19
550.046	234.19
550.259	226.19
550.473	217.19
550.686	226.19
550.899	228.19
551.112	221.19
551.325	226.19
551.538	206.19
551.751	205.19
551.964	214.19
552.177	222.19
552.39	220.19
552.603	214.19
552.816	206.19
553.029	238.19
553.242	208.19
553.455	220.19
553.667	227.19
553.88	251.19
554.093	230.19
554.306	228.19
554.519	228.19
554.732	224.19
554.944	215.19
555.157	204.19
555.37	224.19
555.583	219.19
555.795	215.19
556.008	217.19
556.221	206.19
556.433	204.19
556.646	211.19
556.859	206.19
557.071	210.19
557.284	199.19
557.496	193.19
557.709	202.19
557.921	214.19
558.134	200.19
558.346	202.19
558.559	200.19
558.771	191.19
558.984	196.19
559.196	209.19
559.409	202.19
559.621	198.19
559.833	174.19
560.046	197.19
560.258	208.19
560.47	191.19
560.683	194.19
560.895	211.19
561.107	197.19
561.32	176.19
561.532	191.19
561.744	190.19
561.956	216.19
562.168	202.19
562.381	207.19
562.593	192.19
562.805	196.19
563.017	212.19
563.229	194.19
563.441	199.19
563.653	194.19
563.865	199.19
564.077	216.19
564.289	188.19
564.501	203.19
564.713	208.19
564.925	209.19
565.137	205.19
565.349	213.19
565.561	212.19
565.773	218.19
565.985	208.19
566.197	206.19
566.408	217.19
566.62	232.19
566.832	219.19
567.044	234.19
567.255	218.19
567.467	238.19
567.679	236.19
567.891	249.19
568.102	232.19
568.314	231.19
568.526	229.19
568.737	241.19
568.949	215.19
569.161	209.19
569.372	207.19
569.584	210.19
569.795	199.19
570.007	212.19
570.218	239.19
570.43	220.19
570.641	196.19
570.853	191.19
571.064	186.19
571.276	188.19
571.487	213.19
571.698	185.19
571.91	198.19
572.121	172.19
572.333	177.19
572.544	172.19
572.755	177.19
572.966	174.19
573.178	182.19
573.389	184.19
573.6	175.19
573.811	182.19
574.023	186.19
574.234	177.19
574.445	171.19
574.656	180.19
574.867	177.19
575.078	182.19
575.289	174.19
575.501	175.19
575.712	173.19
575.923	173.19
576.134	162.19
576.345	181.19
576.556	179.19
576.767	172.19
576.978	159.19
577.188	170.19
577.399	178.19
577.61	183.19
577.821	174.19
578.032	163.19
578.243	201.19
578.454	386.19
578.665	249.19
578.875	187.19
579.086	180.19
579.297	158.19
579.508	170.19
579.718	165.19
579.929	178.19
580.14	174.19
580.35	172.19
580.561	178.19
580.772	173.19
580.982	150.19
581.193	179.19
581.403	176.19
581.614	174.19
581.825	163.19
582.035	179.19
582.246	175.19
582.456	159.19
582.667	157.19
582.877	157.19
583.087	167.19
583.298	161.19
583.508	163.19
583.719	150.19
583.929	170.19
584.139	161.19
584.35	153.19
584.56	161.19
584.77	162.19
584.981	155.19
585.191	155.19
585.401	171.19
585.611	149.19
585.821	163.19
586.032	166.19
586.242	164.19
586.452	158.19
586.662	162.19
586.872	153.19
587.082	164.19
587.292	158.19
587.502	158.19
587.713	172.19
587.923	165.19
588.133	169.19
588.343	150.19
588.553	141.19
588.762	175.19
588.972	173.19
589.182	157.19
589.392	161.19
589.602	155.19
589.812	147.19
590.022	161.19
590.232	165.19
590.441	156.19
590.651	147.19
590.861	149.19
591.071	178.19
591.281	160.19
591.49	150.19
591.7	158.19
591.91	165.19
592.119	155.19
592.329	167.19
592.539	188.19
592.748	172.19
592.958	166.19
593.167	168.19
593.377	170.19
593.587	168.19
593.796	151.19
594.006	190.19
594.215	177.19
594.424	149.19
594.634	180.19
594.843	149.19
595.053	160.19
595.262	153.19
595.472	157.19
595.681	150.19
595.89	174.19
596.1	159.19
596.309	152.19
596.518	159.19
596.727	134.19
596.937	150.19
597.146	146.19
597.355	147.19
597.564	137.19
597.774	150.19
597.983	157.19
598.192	155.19
598.401	133.19
598.61	139.19
598.819	149.19
599.028	158.19
599.237	139.19
599.446	153.19
599.655	153.19
599.864	154.19
600.073	153.19
600.282	140.19
600.491	143.19
600.7	149.19
600.909	161.19
601.118	149.19
601.327	146.19
601.536	163.19
601.745	156.19
601.953	161.19
602.162	161.19
602.371	148.19
602.58	149.19
602.789	155.19
602.997	154.19
603.206	156.19
603.415	168.19
603.623	139.19
603.832	147.19
604.041	124.19
604.249	143.19
604.458	145.19
604.666	131.19
604.875	136.19
605.084	137.19
605.292	138.19
605.501	148.19
605.709	155.19
605.918	143.19
606.126	157.19
606.334	152.19
606.543	136.19
606.751	155.19
606.96	138.19
607.168	129.19
607.376	135.19
607.585	147.19
607.793	131.19
608.001	143.19
608.21	149.19
608.418	155.19
608.626	142.19
608.834	154.19
609.043	154.19
609.251	145.19
609.459	142.19
609.667	141.19
609.875	137.19
610.083	153.19
610.291	136.19
610.499	149.19
610.707	139.19
610.916	151.19
611.124	149.19
611.332	151.19
611.54	159.19
611.748	145.19
611.955	153.19
612.163	138.19
612.371	141.19
612.579	135.19
612.787	138.19
612.995	139.19
613.203	143.19
613.411	146.19
613.618	149.19
613.826	141.19
614.034	149.19
614.242	135.19
614.449	130.19
614.657	127.19
614.865	134.19
615.072	154.19
615.28	137.19
615.488	138.19
615.695	131.19
615.903	140.19
616.111	147.19
616.318	141.19
616.526	144.19
616.733	143.19
616.941	133.19
617.148	146.19
617.356	138.19
617.563	143.19
617.771	160.19
617.978	127.19
618.185	140.19
618.393	143.19
618.6	149.19
618.807	135.19
619.015	140.19
619.222	134.19
619.429	138.19
619.637	147.19
619.844	139.19
620.051	150.19
620.258	141.19
620.466	139.19
620.673	139.19
620.88	132.19
621.087	145.19
621.294	132.19
621.501	141.19
621.708	134.19
621.915	133.19
622.122	129.19
622.329	130.19
622.536	131.19
622.743	134.19
622.95	126.19
623.157	137.19
623.364	129.19
623.571	133.19
623.778	137.19
623.985	127.19
624.192	141.19
624.399	124.19
624.606	142.19
624.812	139.19
625.019	127.19
625.226	131.19
625.433	127.19
625.639	132.19
625.846	131.19
626.053	128.19
626.259	136.19
626.466	114.19
626.673	127.19
626.879	125.19
627.086	146.19
627.293	134.19
627.499	141.19
627.706	127.19
627.912	141.19
628.119	141.19
628.325	117.19
628.532	147.19
628.738	125.19
628.945	131.19
629.151	124.19
629.357	128.19
629.564	114.19
629.77	123.19
629.976	127.19
630.183	135.19
630.389	123.19
630.595	131.19
630.802	132.19
631.008	123.19
631.214	127.19
631.42	117.19
631.627	111.19
631.833	122.19
632.039	116.19
632.245	134.19
632.451	109.19
632.657	126.19
632.863	122.19
633.069	146.19
633.275	127.19
633.481	119.19
633.688	101.19
633.893	122.19
634.099	123.19
634.305	143.19
634.511	110.19
634.717	113.19
634.923	124.19
635.129	105.19
635.335	125.19
635.541	123.19
635.747	109.19
635.952	113.19
636.158	121.19
636.364	123.19
636.57	118.19
636.775	105.19
636.981	121.19
637.187	116.19
637.392	126.19
637.598	123.19
637.804	115.19
638.009	121.19
638.215	120.19
638.421	110.19
638.626	121.19
638.832	116.19
639.037	117.19
639.243	109.19
639.448	103.19
639.654	123.19
639.859	107.19
640.065	134.19
640.27	121.19
640.475	118.19
640.681	108.19
640.886	133.19
641.091	121.19
641.297	115.19
641.502	118.19
641.707	100.19
641.913	120.19
642.118	125.19
642.323	125.19
642.528	131.19
642.733	117.19
642.939	130.19
643.144	125.19
643.349	125.19
643.554	130.19
643.759	119.19
643.964	128.19
644.169	107.19
644.374	116.19
644.579	119.19
644.784	115.19
644.989	110.19
645.194	110.19
645.399	124.19
645.604	120.19
645.809	114.19
646.014	109.19
646.219	120.19
646.423	124.19
646.628	107.19
646.833	108.19
647.038	115.19
647.243	105.19
647.447	113.19
647.652	121.19
647.857	135.19
648.062	115.19
648.266	121.19
648.471	125.19
648.676	118.19
648.88	127.19
649.085	113.19
649.289	114.19
649.494	115.19
649.698	130.19
649.903	113.19
650.107	120.19
650.312	129.19
650.516	124.19
650.721	110.19
650.925	119.19
651.13	105.19
651.334	110.19
651.539	104.19
651.743	125.19
651.947	107.19
652.152	119.19
652.356	100.19
652.56	104.19
652.764	108.19
652.969	99.19
653.173	104.19
653.377	91.19
653.581	89.19
653.785	100.19
653.99	110.19
654.194	100.19
654.398	98.19
654.602	117.19
654.806	107.19
655.01	118.19
655.214	114.19
655.418	118.19
655.622	116.19
655.826	104.19
656.03	102.19
656.234	103.19
656.438	106.19
656.642	125.19
656.846	109.19
657.049	118.19
657.253	117.19
657.457	96.19
657.661	98.19
657.865	103.19
658.068	92.19
658.272	96.19
658.476	91.19
658.68	94.19
658.883	93.19
659.087	95.19
659.291	95.19
659.494	95.19
659.698	98.19
659.901	91.19
660.105	79.19
660.309	85.19
660.512	86.19
660.716	86.19
660.919	98.19
661.123	89.19
661.326	90.19
661.53	95.19
661.733	84.19
661.936	85.19
662.14	77.19
662.343	93.19
662.546	86.19
662.75	75.19
662.953	77.19
663.156	81.19
663.36	94.19
663.563	91.19
663.766	90.19
663.969	83.19
664.173	80.19
664.376	107.19
664.579	86.19
664.782	102.19
664.985	86.19
665.188	66.19
665.391	74.19
665.594	76.19
665.797	78.19
666	86.19
666.203	83.19
666.406	73.19
666.609	92.19
666.812	86.19
667.015	102.19
667.218	88.19
667.421	85.19
667.624	68.19
667.827	73.19
668.03	93.19
668.232	83.19
668.435	80.19
668.638	90.19
668.841	75.19
669.043	103.19
669.246	92.19
669.449	85.19
669.651	80.19
669.854	77.19
670.057	94.19
670.259	86.19
670.462	77.19
670.665	77.19
670.867	83.19
671.07	85.19
671.272	75.19
671.475	91.19
671.677	83.19
671.88	77.19
672.082	84.19
672.284	80.19
672.487	83.19
672.689	94.19
672.892	88.19
