Data from 1966.PennyLincolnUp.Lamp.En5.5.200Scan.071719.P1._HRD10591_14-13-28-914.txt Node
Date: Thu Jul 18 14:13:28 EDT 2019
User: cochatt
Spectrometer: HR+D1059
Trigger mode: 1
Integration Time (sec): 1.000000E-1
Scans to average: 1
Electric dark correction enabled: true
Nonlinearity correction enabled: false
Boxcar width: 0
XAxis mode: Wavelengths
Number of Pixels in Spectrum: 2048
>>>>>Begin Spectral Data<<<<<
223.165	-14
223.4	-14
223.635	-14
223.869	-13
224.104	-12
224.338	-5
224.573	-21
224.808	-8
225.042	-14
225.277	-4
225.511	0
225.746	-1
225.98	-4
226.215	15
226.449	9
226.683	18
226.918	30
227.152	24
227.387	17
227.621	31
227.856	44
228.09	47
228.324	51
228.559	39
228.793	57
229.027	73
229.262	80
229.496	90
229.73	101
229.964	93
230.199	100
230.433	84
230.667	90
230.901	89
231.136	91
231.37	87
231.604	90
231.838	94
232.072	100
232.306	86
232.541	95
232.775	97
233.009	96
233.243	87
233.477	101
233.711	97
233.945	101
234.179	98
234.413	94
234.647	108
234.881	94
235.115	106
235.349	81
235.583	86
235.817	86
236.051	83
236.285	94
236.519	94
236.753	100
236.987	102
237.221	125
237.455	132
237.689	126
237.922	88
238.156	96
238.39	94
238.624	98
238.858	107
239.091	99
239.325	82
239.559	91
239.793	96
240.027	110
240.26	97
240.494	116
240.728	114
240.961	116
241.195	102
241.429	94
241.662	103
241.896	95
242.13	101
242.363	100
242.597	87
242.83	86
243.064	85
243.298	107
243.531	92
243.765	114
243.998	93
244.232	103
244.465	105
244.699	92
244.932	103
245.166	101
245.399	120
245.633	103
245.866	100
246.099	93
246.333	123
246.566	106
246.8	101
247.033	109
247.266	121
247.5	104
247.733	99
247.966	111
248.2	123
248.433	125
248.666	111
248.899	113
249.133	125
249.366	124
249.599	114
249.832	123
250.066	120
250.299	114
250.532	121
250.765	134
250.998	137
251.231	142
251.465	120
251.698	129
251.931	127
252.164	128
252.397	124
252.63	111
252.863	118
253.096	132
253.329	150
253.562	137
253.795	132
254.028	128
254.261	131
254.494	150
254.727	164
254.96	155
255.193	153
255.426	159
255.659	143
255.892	127
256.124	133
256.357	145
256.59	138
256.823	125
257.056	138
257.289	138
257.521	146
257.754	120
257.987	126
258.22	117
258.452	144
258.685	133
258.918	127
259.151	134
259.383	132
259.616	133
259.849	130
260.081	130
260.314	158
260.547	159
260.779	131
261.012	144
261.244	138
261.477	136
261.71	142
261.942	147
262.175	134
262.407	139
262.64	134
262.872	132
263.105	121
263.337	128
263.57	127
263.802	135
264.035	138
264.267	136
264.499	122
264.732	139
264.964	128
265.197	135
265.429	136
265.661	147
265.894	127
266.126	132
266.358	152
266.591	142
266.823	131
267.055	150
267.287	142
267.52	148
267.752	136
267.984	144
268.216	136
268.448	132
268.681	139
268.913	168
269.145	167
269.377	169
269.609	162
269.841	147
270.073	150
270.306	157
270.538	173
270.77	183
271.002	163
271.234	183
271.466	160
271.698	171
271.93	171
272.162	185
272.394	189
272.626	176
272.858	171
273.09	160
273.322	150
273.553	155
273.785	148
274.017	143
274.249	156
274.481	152
274.713	151
274.945	153
275.176	143
275.408	158
275.64	152
275.872	164
276.104	162
276.335	165
276.567	154
276.799	164
277.031	175
277.262	174
277.494	179
277.726	162
277.957	159
278.189	148
278.421	164
278.652	152
278.884	150
279.115	152
279.347	159
279.579	158
279.81	150
280.042	148
280.273	167
280.505	150
280.736	168
280.968	134
281.199	146
281.431	144
281.662	146
281.894	157
282.125	152
282.356	186
282.588	172
282.819	163
283.051	162
283.282	166
283.513	163
283.745	173
283.976	165
284.207	164
284.439	147
284.67	166
284.901	168
285.132	150
285.364	161
285.595	170
285.826	172
286.057	159
286.288	157
286.52	173
286.751	182
286.982	164
287.213	160
287.444	164
287.675	163
287.906	184
288.138	160
288.369	164
288.6	168
288.831	148
289.062	152
289.293	165
289.524	162
289.755	164
289.986	155
290.217	180
290.448	158
290.679	167
290.91	156
291.141	165
291.371	156
291.602	169
291.833	158
292.064	169
292.295	180
292.526	166
292.757	154
292.987	169
293.218	168
293.449	175
293.68	157
293.91	172
294.141	154
294.372	163
294.603	165
294.833	166
295.064	160
295.295	159
295.525	166
295.756	165
295.987	187
296.217	180
296.448	182
296.679	176
296.909	175
297.14	170
297.37	176
297.601	187
297.831	165
298.062	166
298.292	145
298.523	174
298.753	182
298.984	162
299.214	178
299.445	168
299.675	178
299.905	194
300.136	183
300.366	198
300.597	171
300.827	189
301.057	190
301.288	178
301.518	197
301.748	176
301.979	180
302.209	169
302.439	184
302.669	178
302.9	190
303.13	174
303.36	183
303.59	173
303.82	198
304.051	193
304.281	182
304.511	174
304.741	176
304.971	173
305.201	184
305.431	188
305.661	179
305.891	184
306.121	191
306.352	183
306.582	187
306.812	174
307.042	192
307.272	173
307.502	195
307.731	186
307.961	179
308.191	192
308.421	169
308.651	194
308.881	198
309.111	183
309.341	182
309.571	192
309.8	177
310.03	197
310.26	194
310.49	203
310.72	213
310.949	218
311.179	204
311.409	201
311.639	199
311.868	213
312.098	202
312.328	192
312.557	207
312.787	223
313.017	228
313.246	212
313.476	197
313.706	203
313.935	199
314.165	218
314.394	229
314.624	230
314.853	208
315.083	209
315.312	186
315.542	192
315.771	184
316.001	188
316.23	196
316.46	198
316.689	204
316.919	208
317.148	198
317.377	221
317.607	223
317.836	196
318.065	201
318.295	212
318.524	198
318.753	204
318.983	207
319.212	190
319.441	210
319.67	214
319.9	204
320.129	201
320.358	185
320.587	222
320.816	214
321.046	209
321.275	216
321.504	197
321.733	211
321.962	211
322.191	217
322.42	216
322.649	243
322.878	256
323.108	247
323.337	255
323.566	246
323.795	258
324.024	308
324.253	348
324.482	471
324.71	715
324.939	930
325.168	782
325.397	392
325.626	316
325.855	263
326.084	262
326.313	237
326.542	256
326.77	292
326.999	319
327.228	452
327.457	642
327.686	715
327.914	452
328.143	348
328.372	306
328.6	286
328.829	286
329.058	299
329.287	302
329.515	268
329.744	268
329.972	270
330.201	271
330.43	307
330.658	316
330.887	323
331.115	318
331.344	273
331.572	244
331.801	265
332.03	246
332.258	254
332.486	251
332.715	236
332.943	227
333.172	231
333.4	241
333.629	222
333.857	256
334.085	254
334.314	295
334.542	294
334.771	306
334.999	270
335.227	236
335.455	246
335.684	229
335.912	218
336.14	217
336.369	212
336.597	230
336.825	231
337.053	234
337.281	231
337.51	220
337.738	232
337.966	247
338.194	235
338.422	248
338.65	229
338.878	226
339.106	235
339.334	234
339.562	212
339.79	221
340.018	231
340.246	209
340.474	222
340.702	232
340.93	208
341.158	216
341.386	231
341.614	211
341.842	217
342.07	214
342.298	227
342.526	225
342.754	219
342.981	235
343.209	224
343.437	207
343.665	227
343.893	227
344.12	236
344.348	247
344.576	222
344.804	242
345.031	215
345.259	229
345.487	220
345.714	229
345.942	221
346.17	216
346.397	214
346.625	219
346.853	206
347.08	220
347.308	229
347.535	222
347.763	204
347.99	238
348.218	231
348.445	220
348.673	233
348.9	235
349.128	203
349.355	194
349.583	203
349.81	224
350.037	235
350.265	209
350.492	221
350.72	219
350.947	209
351.174	214
351.402	229
351.629	217
351.856	219
352.083	215
352.311	218
352.538	234
352.765	228
352.992	235
353.22	218
353.447	238
353.674	206
353.901	214
354.128	208
354.355	186
354.583	204
354.81	214
355.037	186
355.264	208
355.491	208
355.718	205
355.945	207
356.172	195
356.399	196
356.626	202
356.853	205
357.08	192
357.307	221
357.534	222
357.761	197
357.988	206
358.215	212
358.441	197
358.668	204
358.895	182
359.122	215
359.349	226
359.576	212
359.802	215
360.029	238
360.256	262
360.483	229
360.709	207
360.936	228
361.163	218
361.39	205
361.616	220
361.843	232
362.07	216
362.296	219
362.523	217
362.749	228
362.976	217
363.203	207
363.429	210
363.656	194
363.882	202
364.109	208
364.335	202
364.562	200
364.788	192
365.015	197
365.241	218
365.468	211
365.694	213
365.92	216
366.147	210
366.373	206
366.599	195
366.826	227
367.052	206
367.278	211
367.505	199
367.731	208
367.957	205
368.184	207
368.41	199
368.636	205
368.862	227
369.089	216
369.315	195
369.541	214
369.767	197
369.993	181
370.219	215
370.445	216
370.672	194
370.898	201
371.124	206
371.35	219
371.576	206
371.802	209
372.028	199
372.254	209
372.48	204
372.706	211
372.932	193
373.158	215
373.384	200
373.61	211
373.835	206
374.061	215
374.287	191
374.513	211
374.739	205
374.965	198
375.191	200
375.416	217
375.642	214
375.868	218
376.094	194
376.319	217
376.545	195
376.771	211
376.997	192
377.222	215
377.448	220
377.674	217
377.899	202
378.125	200
378.35	212
378.576	191
378.802	202
379.027	189
379.253	209
379.478	199
379.704	206
379.929	188
380.155	216
380.38	187
380.606	215
380.831	198
381.057	205
381.282	202
381.507	201
381.733	192
381.958	214
382.184	190
382.409	196
382.634	212
382.86	208
383.085	194
383.31	205
383.535	220
383.761	218
383.986	213
384.211	212
384.436	238
384.662	215
384.887	212
385.112	203
385.337	219
385.562	210
385.787	234
386.013	216
386.238	232
386.463	218
386.688	219
386.913	228
387.138	212
387.363	216
387.588	222
387.813	225
388.038	213
388.263	219
388.488	226
388.713	225
388.938	226
389.163	229
389.387	227
389.612	204
389.837	213
390.062	216
390.287	235
390.512	219
390.736	220
390.961	187
391.186	228
391.411	226
391.636	207
391.86	226
392.085	215
392.31	213
392.534	225
392.759	213
392.984	222
393.208	206
393.433	217
393.658	217
393.882	213
394.107	218
394.331	226
394.556	213
394.78	224
395.005	221
395.229	229
395.454	225
395.678	225
395.903	207
396.127	235
396.352	235
396.576	222
396.801	216
397.025	218
397.249	235
397.474	244
397.698	213
397.922	246
398.147	242
398.371	252
398.595	231
398.82	244
399.044	258
399.268	237
399.492	251
399.717	279
399.941	283
400.165	313
400.389	298
400.613	273
400.837	249
401.062	244
401.286	248
401.51	237
401.734	240
401.958	238
402.182	256
402.406	264
402.63	254
402.854	263
403.078	248
403.302	268
403.526	255
403.75	258
403.974	246
404.198	255
404.422	271
404.645	262
404.869	282
405.093	264
405.317	292
405.541	288
405.765	280
405.988	266
406.212	269
406.436	286
406.66	308
406.883	285
407.107	290
407.331	299
407.555	323
407.778	307
408.002	295
408.226	291
408.449	269
408.673	269
408.896	284
409.12	291
409.344	292
409.567	277
409.791	268
410.014	244
410.238	274
410.461	233
410.685	260
410.908	267
411.132	282
411.355	283
411.578	265
411.802	246
412.025	243
412.249	254
412.472	269
412.695	266
412.919	296
413.142	272
413.365	253
413.589	268
413.812	238
414.035	256
414.258	250
414.482	244
414.705	251
414.928	248
415.151	248
415.374	243
415.597	246
415.821	236
416.044	239
416.267	235
416.49	233
416.713	233
416.936	248
417.159	236
417.382	252
417.605	247
417.828	236
418.051	271
418.274	246
418.497	243
418.72	257
418.943	244
419.166	251
419.389	263
419.611	290
419.834	249
420.057	261
420.28	251
420.503	233
420.726	246
420.948	263
421.171	286
421.394	288
421.617	266
421.839	255
422.062	262
422.285	253
422.507	298
422.73	319
422.953	301
423.175	284
423.398	255
423.621	267
423.843	278
424.066	279
424.288	278
424.511	284
424.733	286
424.956	329
425.178	293
425.401	288
425.623	310
425.846	271
426.068	271
426.291	270
426.513	264
426.735	277
426.958	303
427.18	339
427.402	363
427.625	392
427.847	353
428.069	310
428.292	280
428.514	257
428.736	258
428.958	240
429.181	239
429.403	257
429.625	244
429.847	266
430.069	300
430.292	291
430.514	262
430.736	244
430.958	245
431.18	243
431.402	244
431.624	239
431.846	235
432.068	224
432.29	234
432.512	236
432.734	249
432.956	234
433.178	246
433.4	244
433.622	235
433.844	237
434.066	244
434.287	239
434.509	256
434.731	244
434.953	237
435.175	258
435.397	269
435.618	260
435.84	275
436.062	310
436.284	323
436.505	283
436.727	264
436.949	268
437.17	275
437.392	254
437.614	260
437.835	280
438.057	331
438.278	325
438.5	344
438.721	371
438.943	340
439.165	295
439.386	264
439.608	272
439.829	264
440.05	296
440.272	302
440.493	277
440.715	267
440.936	254
441.158	264
441.379	247
441.6	270
441.822	258
442.043	286
442.264	334
442.486	343
442.707	288
442.928	267
443.149	274
443.371	292
443.592	313
443.813	324
444.034	365
444.255	298
444.476	289
444.698	268
444.919	272
445.14	346
445.361	308
445.582	307
445.803	318
446.024	374
446.245	371
446.466	329
446.687	288
446.908	264
447.129	254
447.35	253
447.571	246
447.792	256
448.013	262
448.234	250
448.455	272
448.675	311
448.896	358
449.117	303
449.338	323
449.559	350
449.779	361
450	294
450.221	258
450.442	248
450.662	260
450.883	253
451.104	260
451.324	262
451.545	236
451.766	235
451.986	232
452.207	216
452.428	230
452.648	222
452.869	231
453.089	239
453.31	258
453.53	223
453.751	232
453.971	235
454.192	256
454.412	235
454.633	218
454.853	215
455.073	228
455.294	228
455.514	276
455.734	266
455.955	224
456.175	223
456.395	219
456.616	226
456.836	215
457.056	215
457.276	207
457.497	226
457.717	219
457.937	213
458.157	228
458.377	217
458.598	221
458.818	258
459.038	323
459.258	312
459.478	269
459.698	227
459.918	251
460.138	256
460.358	248
460.578	237
460.798	236
461.018	248
461.238	242
461.458	271
461.678	233
461.898	227
462.118	239
462.338	234
462.558	264
462.777	264
462.997	270
463.217	243
463.437	259
463.657	260
463.876	269
464.096	270
464.316	249
464.536	268
464.755	261
464.975	270
465.195	282
465.414	338
465.634	299
465.854	273
466.073	251
466.293	224
466.512	217
466.732	235
466.951	228
467.171	226
467.391	251
467.61	237
467.829	244
468.049	234
468.268	236
468.488	231
468.707	229
468.927	230
469.146	217
469.365	239
469.585	229
469.804	225
470.023	245
470.243	243
470.462	244
470.681	246
470.901	247
471.12	223
471.339	237
471.558	236
471.777	219
471.997	237
472.216	252
472.435	278
472.654	257
472.873	250
473.092	230
473.311	230
473.53	217
473.749	231
473.968	260
474.187	308
474.406	287
474.625	252
474.844	228
475.063	242
475.282	252
475.501	224
475.72	251
475.939	231
476.158	229
476.377	245
476.596	245
476.814	242
477.033	270
477.252	258
477.471	241
477.69	255
477.908	258
478.127	268
478.346	262
478.564	264
478.783	250
479.002	266
479.22	277
479.439	267
479.658	286
479.876	282
480.095	277
480.313	316
480.532	282
480.751	301
480.969	292
481.188	348
481.406	367
481.624	303
481.843	286
482.061	284
482.28	281
482.498	261
482.717	272
482.935	269
483.153	258
483.372	250
483.59	263
483.808	289
484.027	271
484.245	267
484.463	275
484.681	265
484.9	278
485.118	282
485.336	264
485.554	280
485.772	299
485.99	279
486.209	280
486.427	288
486.645	296
486.863	306
487.081	302
487.299	303
487.517	300
487.735	293
487.953	294
488.171	294
488.389	294
488.607	282
488.825	281
489.043	280
489.261	297
489.479	302
489.696	291
489.914	307
490.132	296
490.35	314
490.568	306
490.786	315
491.003	318
491.221	319
491.439	336
491.657	323
491.874	352
492.092	349
492.31	339
492.527	330
492.745	351
492.963	335
493.18	333
493.398	342
493.615	348
493.833	343
494.05	348
494.268	362
494.485	329
494.703	342
494.92	336
495.138	332
495.355	341
495.573	352
495.79	333
496.008	341
496.225	346
496.442	357
496.66	338
496.877	318
497.094	330
497.312	334
497.529	336
497.746	344
497.963	356
498.181	339
498.398	354
498.615	356
498.832	381
499.049	378
499.267	366
499.484	366
499.701	391
499.918	421
500.135	419
500.352	454
500.569	446
500.786	454
501.003	443
501.22	435
501.437	437
501.654	416
501.871	399
502.088	400
502.305	381
502.522	373
502.739	357
502.956	348
503.172	339
503.389	319
503.606	347
503.823	362
504.04	338
504.256	337
504.473	338
504.69	326
504.907	343
505.123	334
505.34	326
505.557	336
505.773	329
505.99	323
506.207	315
506.423	314
506.64	301
506.856	331
507.073	309
507.289	312
507.506	310
507.722	326
507.939	334
508.155	303
508.372	294
508.588	298
508.805	302
509.021	310
509.238	314
509.454	309
509.67	315
509.887	303
510.103	302
510.319	290
510.536	383
510.752	722
510.968	520
511.184	341
511.401	318
511.617	301
511.833	288
512.049	297
512.265	284
512.481	293
512.698	301
512.914	281
513.13	288
513.346	294
513.562	275
513.778	282
513.994	299
514.21	297
514.426	311
514.642	329
514.858	362
515.074	370
515.29	479
515.506	775
515.721	604
515.937	365
516.153	336
516.369	310
516.585	301
516.801	286
517.016	292
517.232	282
517.448	295
517.664	295
517.879	299
518.095	280
518.311	300
518.527	288
518.742	285
518.958	289
519.173	293
519.389	272
519.605	287
519.82	297
520.036	286
520.251	318
520.467	308
520.682	312
520.898	342
521.113	332
521.329	370
521.544	423
521.76	558
521.975	1060
522.19	1020
522.406	471
522.621	330
522.836	302
523.052	287
523.267	286
523.482	282
523.698	274
523.913	268
524.128	253
524.343	261
524.559	265
524.774	249
524.989	243
525.204	251
525.419	263
525.634	257
525.849	263
526.064	244
526.28	269
526.495	231
526.71	236
526.925	240
527.14	236
527.355	256
527.57	242
527.785	250
527.999	238
528.214	247
528.429	244
528.644	246
528.859	238
529.074	235
529.289	257
529.503	319
529.718	293
529.933	265
530.148	232
530.363	221
530.577	233
530.792	230
531.007	226
531.221	238
531.436	211
531.651	226
531.865	222
532.08	230
532.295	244
532.509	236
532.724	232
532.938	238
533.153	235
533.367	208
533.582	226
533.796	226
534.011	246
534.225	233
534.44	219
534.654	215
534.868	227
535.083	228
535.297	231
535.511	229
535.726	232
535.94	248
536.154	247
536.369	232
536.583	224
536.797	229
537.011	217
537.225	225
537.44	214
537.654	221
537.868	221
538.082	244
538.296	225
538.51	232
538.724	243
538.938	235
539.153	232
539.367	232
539.581	222
539.795	223
540.009	224
540.222	227
540.436	221
540.65	227
540.864	230
541.078	239
541.292	223
541.506	243
541.72	232
541.934	232
542.147	223
542.361	220
542.575	207
542.789	229
543.002	211
543.216	205
543.43	237
543.644	230
543.857	229
544.071	240
544.285	229
544.498	207
544.712	243
544.925	213
545.139	227
545.352	231
545.566	230
545.779	208
545.993	233
546.206	236
546.42	224
546.633	222
546.847	233
547.06	233
547.274	244
547.487	222
547.7	183
547.914	221
548.127	224
548.34	231
548.554	216
548.767	248
548.98	227
549.193	205
549.407	206
549.62	208
549.833	206
550.046	204
550.259	221
550.473	219
550.686	207
550.899	212
551.112	225
551.325	214
551.538	212
551.751	229
551.964	207
552.177	226
552.39	226
552.603	220
552.816	209
553.029	206
553.242	221
553.455	208
553.667	226
553.88	247
554.093	228
554.306	229
554.519	211
554.732	214
554.944	222
555.157	213
555.37	217
555.583	208
555.795	221
556.008	216
556.221	210
556.433	200
556.646	208
556.859	192
557.071	203
557.284	189
557.496	187
557.709	196
557.921	200
558.134	206
558.346	201
558.559	199
558.771	210
558.984	186
559.196	205
559.409	211
559.621	197
559.833	206
560.046	195
560.258	187
560.47	206
560.683	200
560.895	211
561.107	188
561.32	194
561.532	180
561.744	200
561.956	199
562.168	199
562.381	196
562.593	197
562.805	178
563.017	224
563.229	195
563.441	198
563.653	220
563.865	195
564.077	194
564.289	208
564.501	186
564.713	203
564.925	201
565.137	188
565.349	211
565.561	220
565.773	210
565.985	219
566.197	233
566.408	206
566.62	223
566.832	231
567.044	240
567.255	221
567.467	234
567.679	235
567.891	243
568.102	244
568.314	240
568.526	228
568.737	229
568.949	215
569.161	210
569.372	201
569.584	194
569.795	196
570.007	207
570.218	221
570.43	238
570.641	212
570.853	182
571.064	205
571.276	174
571.487	191
571.698	200
571.91	178
572.121	182
572.333	178
572.544	187
572.755	172
572.966	181
573.178	172
573.389	164
573.6	171
573.811	175
574.023	173
574.234	170
574.445	182
574.656	175
574.867	175
575.078	172
575.289	173
575.501	175
575.712	169
575.923	182
576.134	160
576.345	178
576.556	158
576.767	186
576.978	180
577.188	172
577.399	163
577.61	170
577.821	177
578.032	176
578.243	221
578.454	373
578.665	254
578.875	173
579.086	166
579.297	166
579.508	153
579.718	155
579.929	163
580.14	160
580.35	153
580.561	164
580.772	173
580.982	163
581.193	172
581.403	161
581.614	171
581.825	173
582.035	167
582.246	162
582.456	159
582.667	157
582.877	176
583.087	160
583.298	157
583.508	155
583.719	144
583.929	166
584.139	170
584.35	158
584.56	172
584.77	147
584.981	159
585.191	155
585.401	183
585.611	163
585.821	166
586.032	158
586.242	159
586.452	179
586.662	156
586.872	162
587.082	159
587.292	160
587.502	142
587.713	168
587.923	162
588.133	150
588.343	175
588.553	172
588.762	169
588.972	159
589.182	182
589.392	174
589.602	169
589.812	169
590.022	171
590.232	160
590.441	158
590.651	130
590.861	162
591.071	154
591.281	145
591.49	162
591.7	167
591.91	161
592.119	148
592.329	162
592.539	179
592.748	164
592.958	159
593.167	162
593.377	158
593.587	182
593.796	154
594.006	182
594.215	153
594.424	160
594.634	163
594.843	159
595.053	160
595.262	154
595.472	152
595.681	150
595.89	166
596.1	151
596.309	156
596.518	158
596.727	161
596.937	154
597.146	141
597.355	148
597.564	153
597.774	148
597.983	134
598.192	152
598.401	163
598.61	156
598.819	164
599.028	150
599.237	136
599.446	143
599.655	153
599.864	153
600.073	146
600.282	148
600.491	139
600.7	143
600.909	139
601.118	148
601.327	158
601.536	162
601.745	146
601.953	140
602.162	145
602.371	156
602.58	147
602.789	152
602.997	136
603.206	160
603.415	131
603.623	148
603.832	143
604.041	144
604.249	145
604.458	140
604.666	142
604.875	135
605.084	139
605.292	142
605.501	157
605.709	144
605.918	150
606.126	134
606.334	134
606.543	138
606.751	143
606.96	145
607.168	135
607.376	132
607.585	143
607.793	152
608.001	136
608.21	147
608.418	154
608.626	147
608.834	153
609.043	136
609.251	134
609.459	138
609.667	141
609.875	134
610.083	148
610.291	142
610.499	143
610.707	131
610.916	159
611.124	155
611.332	141
611.54	146
611.748	146
611.955	141
612.163	138
612.371	135
612.579	132
612.787	132
612.995	155
613.203	145
613.411	128
613.618	142
613.826	132
614.034	143
614.242	136
614.449	150
614.657	138
614.865	135
615.072	150
615.28	156
615.488	138
615.695	135
615.903	131
616.111	153
616.318	144
616.526	140
616.733	144
616.941	141
617.148	143
617.356	134
617.563	139
617.771	132
617.978	139
618.185	128
618.393	159
618.6	135
618.807	148
619.015	147
619.222	138
619.429	126
619.637	115
619.844	149
620.051	129
620.258	129
620.466	143
620.673	132
620.88	127
621.087	131
621.294	143
621.501	141
621.708	133
621.915	151
622.122	145
622.329	145
622.536	145
622.743	122
622.95	142
623.157	124
623.364	132
623.571	135
623.778	124
623.985	132
624.192	128
624.399	140
624.606	131
624.812	120
625.019	131
625.226	122
625.433	140
625.639	134
625.846	124
626.053	123
626.259	110
626.466	122
626.673	135
626.879	120
627.086	114
627.293	131
627.499	128
627.706	134
627.912	129
628.119	136
628.325	146
628.532	139
628.738	135
628.945	115
629.151	129
629.357	119
629.564	120
629.77	138
629.976	126
630.183	134
630.389	130
630.595	122
630.802	125
631.008	128
631.214	129
631.42	134
631.627	128
631.833	115
632.039	122
632.245	111
632.451	111
632.657	125
632.863	125
633.069	126
633.275	132
633.481	103
633.688	121
633.893	126
634.099	123
634.305	121
634.511	121
634.717	117
634.923	112
635.129	130
635.335	123
635.541	125
635.747	108
635.952	118
636.158	120
636.364	112
636.57	115
636.775	131
636.981	113
637.187	126
637.392	112
637.598	116
637.804	120
638.009	123
638.215	117
638.421	123
638.626	110
638.832	126
639.037	120
639.243	128
639.448	110
639.654	132
639.859	108
640.065	120
640.27	135
640.475	110
640.681	104
640.886	118
641.091	122
641.297	123
641.502	121
641.707	114
641.913	119
642.118	124
642.323	130
642.528	111
642.733	114
642.939	106
643.144	118
643.349	120
643.554	120
643.759	132
643.964	113
644.169	104
644.374	127
644.579	116
644.784	125
644.989	125
645.194	117
645.399	114
645.604	126
645.809	110
646.014	116
646.219	116
646.423	109
646.628	111
646.833	118
647.038	112
647.243	122
647.447	124
647.652	117
647.857	118
648.062	114
648.266	121
648.471	123
648.676	119
648.88	121
649.085	124
649.289	131
649.494	119
649.698	123
649.903	126
650.107	114
650.312	108
650.516	121
650.721	114
650.925	100
651.13	106
651.334	105
651.539	110
651.743	86
651.947	99
652.152	111
652.356	111
652.56	122
652.764	108
652.969	114
653.173	114
653.377	96
653.581	116
653.785	107
653.99	116
654.194	116
654.398	104
654.602	102
654.806	109
655.01	108
655.214	114
655.418	111
655.622	106
655.826	104
656.03	103
656.234	116
656.438	118
656.642	116
656.846	110
657.049	109
657.253	114
657.457	107
657.661	95
657.865	96
658.068	99
658.272	99
658.476	94
658.68	90
658.883	92
659.087	84
659.291	94
659.494	87
659.698	78
659.901	79
660.105	87
660.309	99
660.512	94
660.716	82
660.919	88
661.123	98
661.326	93
661.53	90
661.733	75
661.936	87
662.14	84
662.343	89
662.546	77
662.75	92
662.953	90
663.156	81
663.36	91
663.563	79
663.766	91
663.969	70
664.173	78
664.376	86
664.579	74
664.782	76
664.985	85
665.188	71
665.391	82
665.594	93
665.797	69
666	93
666.203	93
666.406	74
666.609	78
666.812	100
667.015	79
667.218	87
667.421	76
667.624	74
667.827	87
668.03	80
668.232	100
668.435	93
668.638	68
668.841	72
669.043	79
669.246	72
669.449	80
669.651	80
669.854	62
670.057	90
670.259	82
670.462	79
670.665	93
670.867	71
671.07	78
671.272	68
671.475	88
671.677	90
671.88	85
672.082	81
672.284	84
672.487	84
672.689	86
672.892	87
