Data from 1966.PennyLincolnUp.Lamp.En5.5.200Scan.071719.P1._HRD10591_14-12-16-913.txt Node
Date: Thu Jul 18 14:12:16 EDT 2019
User: cochatt
Spectrometer: HR+D1059
Trigger mode: 1
Integration Time (sec): 1.000000E-1
Scans to average: 1
Electric dark correction enabled: true
Nonlinearity correction enabled: false
Boxcar width: 0
XAxis mode: Wavelengths
Number of Pixels in Spectrum: 2048
>>>>>Begin Spectral Data<<<<<
223.165	-15
223.4	-15
223.635	-15
223.869	-13
224.104	-26
224.338	-24
224.573	-11
224.808	-9
225.042	-1
225.277	-8
225.511	-12
225.746	0
225.98	4
226.215	12
226.449	17
226.683	29
226.918	28
227.152	29
227.387	26
227.621	31
227.856	43
228.09	53
228.324	50
228.559	58
228.793	71
229.027	89
229.262	73
229.496	88
229.73	81
229.964	88
230.199	97
230.433	93
230.667	89
230.901	96
231.136	72
231.37	95
231.604	90
231.838	87
232.072	94
232.306	89
232.541	104
232.775	92
233.009	86
233.243	93
233.477	83
233.711	103
233.945	97
234.179	87
234.413	92
234.647	95
234.881	93
235.115	93
235.349	98
235.583	96
235.817	88
236.051	104
236.285	83
236.519	84
236.753	92
236.987	108
237.221	101
237.455	133
237.689	108
237.922	98
238.156	88
238.39	88
238.624	80
238.858	90
239.091	97
239.325	83
239.559	92
239.793	82
240.027	97
240.26	103
240.494	103
240.728	93
240.961	97
241.195	100
241.429	78
241.662	94
241.896	108
242.13	90
242.363	92
242.597	91
242.83	101
243.064	96
243.298	100
243.531	91
243.765	91
243.998	85
244.232	107
244.465	108
244.699	100
244.932	98
245.166	93
245.399	106
245.633	87
245.866	90
246.099	97
246.333	99
246.566	99
246.8	107
247.033	105
247.266	87
247.5	99
247.733	103
247.966	89
248.2	116
248.433	112
248.666	119
248.899	125
249.133	116
249.366	122
249.599	100
249.832	116
250.066	113
250.299	127
250.532	115
250.765	121
250.998	132
251.231	123
251.465	123
251.698	125
251.931	111
252.164	116
252.397	120
252.63	123
252.863	127
253.096	130
253.329	133
253.562	130
253.795	114
254.028	122
254.261	133
254.494	142
254.727	141
254.96	150
255.193	130
255.426	134
255.659	140
255.892	154
256.124	122
256.357	129
256.59	131
256.823	112
257.056	118
257.289	109
257.521	123
257.754	124
257.987	117
258.22	128
258.452	133
258.685	140
258.918	113
259.151	123
259.383	139
259.616	128
259.849	137
260.081	143
260.314	135
260.547	132
260.779	136
261.012	127
261.244	120
261.477	123
261.71	143
261.942	133
262.175	150
262.407	134
262.64	117
262.872	133
263.105	134
263.337	141
263.57	126
263.802	129
264.035	116
264.267	132
264.499	127
264.732	120
264.964	111
265.197	132
265.429	117
265.661	113
265.894	115
266.126	129
266.358	122
266.591	141
266.823	130
267.055	137
267.287	137
267.52	129
267.752	146
267.984	146
268.216	131
268.448	139
268.681	128
268.913	131
269.145	145
269.377	142
269.609	157
269.841	160
270.073	146
270.306	140
270.538	184
270.77	155
271.002	143
271.234	150
271.466	156
271.698	166
271.93	161
272.162	173
272.394	176
272.626	150
272.858	147
273.09	155
273.322	147
273.553	137
273.785	141
274.017	151
274.249	141
274.481	144
274.713	150
274.945	145
275.176	154
275.408	162
275.64	159
275.872	149
276.104	146
276.335	138
276.567	153
276.799	152
277.031	162
277.262	175
277.494	172
277.726	156
277.957	156
278.189	142
278.421	149
278.652	138
278.884	130
279.115	152
279.347	145
279.579	150
279.81	162
280.042	149
280.273	141
280.505	142
280.736	128
280.968	152
281.199	150
281.431	144
281.662	153
281.894	158
282.125	160
282.356	178
282.588	178
282.819	171
283.051	148
283.282	145
283.513	164
283.745	147
283.976	154
284.207	164
284.439	164
284.67	165
284.901	149
285.132	152
285.364	128
285.595	160
285.826	137
286.057	154
286.288	153
286.52	162
286.751	155
286.982	162
287.213	172
287.444	157
287.675	154
287.906	168
288.138	181
288.369	163
288.6	152
288.831	158
289.062	159
289.293	164
289.524	148
289.755	152
289.986	158
290.217	166
290.448	160
290.679	155
290.91	165
291.141	166
291.371	156
291.602	164
291.833	157
292.064	162
292.295	153
292.526	163
292.757	154
292.987	155
293.218	154
293.449	160
293.68	152
293.91	168
294.141	146
294.372	145
294.603	162
294.833	164
295.064	156
295.295	151
295.525	149
295.756	160
295.987	168
296.217	189
296.448	182
296.679	156
296.909	156
297.14	157
297.37	148
297.601	171
297.831	171
298.062	174
298.292	168
298.523	170
298.753	176
298.984	154
299.214	147
299.445	165
299.675	161
299.905	167
300.136	161
300.366	171
300.597	139
300.827	165
301.057	182
301.288	172
301.518	167
301.748	161
301.979	198
302.209	179
302.439	187
302.669	159
302.9	164
303.13	176
303.36	164
303.59	192
303.82	184
304.051	180
304.281	169
304.511	184
304.741	176
304.971	172
305.201	176
305.431	157
305.661	173
305.891	179
306.121	170
306.352	173
306.582	172
306.812	165
307.042	172
307.272	186
307.502	183
307.731	169
307.961	166
308.191	158
308.421	177
308.651	171
308.881	159
309.111	179
309.341	188
309.571	199
309.8	189
310.03	201
310.26	182
310.49	186
310.72	208
310.949	199
311.179	208
311.409	189
311.639	192
311.868	195
312.098	190
312.328	180
312.557	212
312.787	219
313.017	211
313.246	207
313.476	185
313.706	197
313.935	188
314.165	186
314.394	210
314.624	218
314.853	206
315.083	202
315.312	196
315.542	189
315.771	195
316.001	194
316.23	201
316.46	183
316.689	196
316.919	192
317.148	198
317.377	208
317.607	205
317.836	200
318.065	210
318.295	203
318.524	191
318.753	188
318.983	204
319.212	189
319.441	190
319.67	184
319.9	193
320.129	189
320.358	190
320.587	193
320.816	212
321.046	214
321.275	205
321.504	197
321.733	195
321.962	198
322.191	205
322.42	220
322.649	223
322.878	230
323.108	235
323.337	235
323.566	261
323.795	272
324.024	288
324.253	371
324.482	551
324.71	842
324.939	1158
325.168	916
325.397	448
325.626	301
325.855	254
326.084	240
326.313	239
326.542	257
326.77	271
326.999	357
327.228	498
327.457	762
327.686	838
327.914	532
328.143	354
328.372	317
328.6	301
328.829	281
329.058	299
329.287	300
329.515	272
329.744	237
329.972	258
330.201	282
330.43	308
330.658	320
330.887	311
331.115	326
331.344	267
331.572	256
331.801	265
332.03	241
332.258	234
332.486	218
332.715	221
332.943	215
333.172	217
333.4	221
333.629	221
333.857	237
334.085	237
334.314	262
334.542	302
334.771	323
334.999	263
335.227	245
335.455	231
335.684	221
335.912	235
336.14	221
336.369	230
336.597	219
336.825	222
337.053	218
337.281	213
337.51	210
337.738	218
337.966	208
338.194	233
338.422	228
338.65	220
338.878	205
339.106	206
339.334	221
339.562	198
339.79	208
340.018	212
340.246	205
340.474	208
340.702	216
340.93	217
341.158	204
341.386	216
341.614	222
341.842	200
342.07	207
342.298	216
342.526	200
342.754	212
342.981	223
343.209	215
343.437	201
343.665	212
343.893	208
344.12	198
344.348	220
344.576	212
344.804	212
345.031	208
345.259	227
345.487	218
345.714	211
345.942	208
346.17	206
346.397	220
346.625	190
346.853	205
347.08	214
347.308	201
347.535	212
347.763	210
347.99	210
348.218	217
348.445	220
348.673	200
348.9	212
349.128	198
349.355	187
349.583	212
349.81	197
350.037	196
350.265	184
350.492	181
350.72	204
350.947	203
351.174	200
351.402	203
351.629	222
351.856	214
352.083	230
352.311	217
352.538	213
352.765	213
352.992	205
353.22	215
353.447	206
353.674	184
353.901	209
354.128	199
354.355	182
354.583	181
354.81	201
355.037	200
355.264	199
355.491	181
355.718	198
355.945	200
356.172	186
356.399	190
356.626	175
356.853	203
357.08	197
357.307	179
357.534	181
357.761	193
357.988	198
358.215	193
358.441	198
358.668	203
358.895	192
359.122	189
359.349	216
359.576	203
359.802	231
360.029	242
360.256	244
360.483	235
360.709	205
360.936	195
361.163	240
361.39	210
361.616	226
361.843	210
362.07	208
362.296	208
362.523	189
362.749	208
362.976	204
363.203	221
363.429	186
363.656	197
363.882	209
364.109	187
364.335	213
364.562	189
364.788	194
365.015	198
365.241	178
365.468	214
365.694	200
365.92	206
366.147	189
366.373	197
366.599	185
366.826	201
367.052	206
367.278	184
367.505	178
367.731	204
367.957	214
368.184	201
368.41	209
368.636	216
368.862	205
369.089	201
369.315	198
369.541	184
369.767	200
369.993	193
370.219	172
370.445	194
370.672	188
370.898	194
371.124	206
371.35	201
371.576	184
371.802	199
372.028	196
372.254	205
372.48	190
372.706	189
372.932	182
373.158	194
373.384	199
373.61	204
373.835	179
374.061	188
374.287	204
374.513	190
374.739	200
374.965	203
375.191	212
375.416	185
375.642	192
375.868	202
376.094	197
376.319	194
376.545	193
376.771	191
376.997	197
377.222	186
377.448	198
377.674	193
377.899	203
378.125	187
378.35	182
378.576	194
378.802	190
379.027	198
379.253	197
379.478	185
379.704	179
379.929	195
380.155	196
380.38	194
380.606	201
380.831	198
381.057	192
381.282	202
381.507	204
381.733	212
381.958	199
382.184	188
382.409	197
382.634	205
382.86	194
383.085	188
383.31	214
383.535	217
383.761	203
383.986	208
384.211	194
384.436	216
384.662	236
384.887	220
385.112	207
385.337	205
385.562	213
385.787	213
386.013	214
386.238	224
386.463	223
386.688	220
386.913	229
387.138	217
387.363	219
387.588	220
387.813	218
388.038	209
388.263	200
388.488	219
388.713	210
388.938	198
389.163	211
389.387	207
389.612	201
389.837	222
390.062	221
390.287	201
390.512	218
390.736	224
390.961	205
391.186	196
391.411	215
391.636	204
391.86	211
392.085	210
392.31	226
392.534	224
392.759	221
392.984	226
393.208	233
393.433	285
393.658	281
393.882	224
394.107	217
394.331	217
394.556	196
394.78	211
395.005	212
395.229	203
395.454	199
395.678	234
395.903	227
396.127	217
396.352	234
396.576	249
396.801	257
397.025	261
397.249	248
397.474	204
397.698	230
397.922	218
398.147	224
398.371	232
398.595	229
398.82	237
399.044	250
399.268	256
399.492	260
399.717	272
399.941	278
400.165	278
400.389	283
400.613	247
400.837	240
401.062	234
401.286	235
401.51	241
401.734	234
401.958	235
402.182	237
402.406	254
402.63	256
402.854	258
403.078	248
403.302	257
403.526	271
403.75	266
403.974	268
404.198	261
404.422	243
404.645	257
404.869	258
405.093	269
405.317	264
405.541	280
405.765	266
405.988	279
406.212	265
406.436	292
406.66	304
406.883	278
407.107	284
407.331	299
407.555	317
407.778	310
408.002	281
408.226	266
408.449	265
408.673	248
408.896	276
409.12	283
409.344	266
409.567	239
409.791	240
410.014	240
410.238	259
410.461	261
410.685	258
410.908	260
411.132	276
411.355	265
411.578	261
411.802	241
412.025	247
412.249	242
412.472	241
412.695	262
412.919	266
413.142	245
413.365	258
413.589	234
413.812	239
414.035	242
414.258	233
414.482	214
414.705	228
414.928	246
415.151	233
415.374	231
415.597	227
415.821	227
416.044	248
416.267	246
416.49	236
416.713	240
416.936	232
417.159	232
417.382	251
417.605	248
417.828	235
418.051	258
418.274	247
418.497	238
418.72	238
418.943	217
419.166	241
419.389	244
419.611	246
419.834	246
420.057	245
420.28	262
420.503	231
420.726	241
420.948	250
421.171	286
421.394	277
421.617	245
421.839	241
422.062	245
422.285	241
422.507	271
422.73	323
422.953	304
423.175	284
423.398	249
423.621	258
423.843	275
424.066	258
424.288	258
424.511	265
424.733	283
424.956	312
425.178	302
425.401	295
425.623	302
425.846	281
426.068	250
426.291	267
426.513	269
426.735	264
426.958	260
427.18	286
427.402	373
427.625	396
427.847	348
428.069	307
428.292	277
428.514	270
428.736	246
428.958	233
429.181	233
429.403	236
429.625	234
429.847	240
430.069	281
430.292	289
430.514	258
430.736	233
430.958	248
431.18	233
431.402	222
431.624	220
431.846	220
432.068	233
432.29	230
432.512	234
432.734	237
432.956	240
433.178	225
433.4	248
433.622	218
433.844	228
434.066	251
434.287	227
434.509	247
434.731	234
434.953	237
435.175	247
435.397	270
435.618	268
435.84	269
436.062	314
436.284	322
436.505	276
436.727	280
436.949	247
437.17	246
437.392	228
437.614	243
437.835	266
438.057	313
438.278	336
438.5	325
438.721	366
438.943	330
439.165	270
439.386	263
439.608	258
439.829	276
440.05	297
440.272	307
440.493	278
440.715	257
440.936	248
441.158	246
441.379	248
441.6	248
441.822	261
442.043	288
442.264	307
442.486	315
442.707	276
442.928	263
443.149	275
443.371	285
443.592	286
443.813	338
444.034	356
444.255	311
444.476	261
444.698	256
444.919	270
445.14	376
445.361	301
445.582	298
445.803	324
446.024	370
446.245	343
446.466	331
446.687	260
446.908	276
447.129	247
447.35	247
447.571	235
447.792	224
448.013	233
448.234	232
448.455	249
448.675	317
448.896	352
449.117	301
449.338	284
449.559	325
449.779	350
450	295
450.221	239
450.442	248
450.662	224
450.883	241
451.104	260
451.324	256
451.545	236
451.766	216
451.986	221
452.207	218
452.428	219
452.648	223
452.869	219
453.089	224
453.31	239
453.53	229
453.751	220
453.971	241
454.192	233
454.412	226
454.633	209
454.853	220
455.073	216
455.294	234
455.514	265
455.734	255
455.955	211
456.175	206
456.395	206
456.616	228
456.836	197
457.056	214
457.276	199
457.497	200
457.717	209
457.937	209
458.157	209
458.377	228
458.598	233
458.818	270
459.038	316
459.258	309
459.478	237
459.698	242
459.918	212
460.138	229
460.358	236
460.578	244
460.798	242
461.018	238
461.238	229
461.458	253
461.678	233
461.898	230
462.118	243
462.338	248
462.558	262
462.777	256
462.997	271
463.217	251
463.437	250
463.657	241
463.876	250
464.096	243
464.316	260
464.536	256
464.755	264
464.975	263
465.195	316
465.414	336
465.634	277
465.854	258
466.073	252
466.293	229
466.512	234
466.732	233
466.951	221
467.171	210
467.391	227
467.61	235
467.829	253
468.049	240
468.268	249
468.488	235
468.707	236
468.927	213
469.146	208
469.365	226
469.585	227
469.804	217
470.023	230
470.243	240
470.462	233
470.681	244
470.901	237
471.12	240
471.339	234
471.558	226
471.777	229
471.997	218
472.216	246
472.435	284
472.654	253
472.873	221
473.092	207
473.311	220
473.53	225
473.749	234
473.968	250
474.187	284
474.406	290
474.625	236
474.844	232
475.063	231
475.282	212
475.501	218
475.72	232
475.939	222
476.158	237
476.377	228
476.596	244
476.814	229
477.033	237
477.252	241
477.471	244
477.69	255
477.908	231
478.127	250
478.346	240
478.564	238
478.783	258
479.002	284
479.22	262
479.439	274
479.658	290
479.876	267
480.095	255
480.313	299
480.532	273
480.751	263
480.969	291
481.188	349
481.406	389
481.624	299
481.843	284
482.061	264
482.28	257
482.498	260
482.717	278
482.935	256
483.153	264
483.372	267
483.59	251
483.808	268
484.027	263
484.245	279
484.463	264
484.681	273
484.9	275
485.118	269
485.336	288
485.554	264
485.772	261
485.99	267
486.209	278
486.427	270
486.645	279
486.863	301
487.081	304
487.299	296
487.517	284
487.735	267
487.953	276
488.171	306
488.389	269
488.607	282
488.825	277
489.043	293
489.261	288
489.479	286
489.696	284
489.914	284
490.132	275
490.35	292
490.568	298
490.786	309
491.003	296
491.221	295
491.439	305
491.657	310
491.874	323
492.092	312
492.31	334
492.527	325
492.745	329
492.963	324
493.18	309
493.398	318
493.615	329
493.833	321
494.05	323
494.268	336
494.485	330
494.703	322
494.92	312
495.138	323
495.355	344
495.573	310
495.79	344
496.008	332
496.225	320
496.442	301
496.66	335
496.877	310
497.094	326
497.312	332
497.529	334
497.746	306
497.963	330
498.181	323
498.398	340
498.615	348
498.832	354
499.049	356
499.267	368
499.484	372
499.701	385
499.918	389
500.135	404
500.352	425
500.569	422
500.786	425
501.003	430
501.22	419
501.437	404
501.654	405
501.871	405
502.088	386
502.305	355
502.522	340
502.739	338
502.956	324
503.172	319
503.389	338
503.606	323
503.823	332
504.04	325
504.256	326
504.473	300
504.69	314
504.907	310
505.123	300
505.34	314
505.557	308
505.773	293
505.99	296
506.207	308
506.423	294
506.64	304
506.856	295
507.073	298
507.289	296
507.506	310
507.722	309
507.939	317
508.155	297
508.372	279
508.588	307
508.805	273
509.021	278
509.238	298
509.454	297
509.67	294
509.887	286
510.103	295
510.319	299
510.536	393
510.752	797
510.968	573
511.184	311
511.401	294
511.617	271
511.833	266
512.049	273
512.265	278
512.481	250
512.698	258
512.914	259
513.13	278
513.346	268
513.562	258
513.778	278
513.994	253
514.21	284
514.426	312
514.642	329
514.858	336
515.074	382
515.29	521
515.506	931
515.721	686
515.937	368
516.153	308
516.369	304
516.585	295
516.801	296
517.016	305
517.232	274
517.448	291
517.664	288
517.879	287
518.095	280
518.311	285
518.527	292
518.742	278
518.958	258
519.173	267
519.389	256
519.605	301
519.82	281
520.036	289
520.251	305
520.467	306
520.682	288
520.898	304
521.113	327
521.329	380
521.544	438
521.76	609
521.975	1265
522.19	1238
522.406	566
522.621	356
522.836	300
523.052	308
523.267	277
523.482	267
523.698	244
523.913	272
524.128	244
524.343	269
524.559	253
524.774	243
524.989	261
525.204	233
525.419	254
525.634	249
525.849	242
526.064	220
526.28	233
526.495	229
526.71	226
526.925	245
527.14	235
527.355	210
527.57	232
527.785	222
527.999	237
528.214	241
528.429	226
528.644	235
528.859	255
529.074	220
529.289	249
529.503	327
529.718	288
529.933	250
530.148	238
530.363	226
530.577	228
530.792	233
531.007	219
531.221	242
531.436	222
531.651	232
531.865	222
532.08	206
532.295	227
532.509	237
532.724	220
532.938	210
533.153	216
533.367	210
533.582	225
533.796	220
534.011	208
534.225	212
534.44	204
534.654	235
534.868	205
535.083	217
535.297	199
535.511	224
535.726	237
535.94	234
536.154	228
536.369	217
536.583	230
536.797	226
537.011	211
537.225	221
537.44	216
537.654	205
537.868	209
538.082	213
538.296	207
538.51	209
538.724	224
538.938	230
539.153	232
539.367	224
539.581	211
539.795	235
540.009	217
540.222	200
540.436	205
540.65	207
540.864	202
541.078	229
541.292	227
541.506	222
541.72	219
541.934	221
542.147	236
542.361	232
542.575	226
542.789	214
543.002	227
543.216	224
543.43	219
543.644	226
543.857	221
544.071	218
544.285	213
544.498	221
544.712	213
544.925	232
545.139	212
545.352	217
545.566	211
545.779	224
545.993	209
546.206	204
546.42	239
546.633	208
546.847	208
547.06	225
547.274	211
547.487	218
547.7	208
547.914	214
548.127	200
548.34	238
548.554	206
548.767	219
548.98	215
549.193	220
549.407	216
549.62	212
549.833	213
550.046	203
550.259	221
550.473	196
550.686	187
550.899	209
551.112	206
551.325	210
551.538	225
551.751	193
551.964	196
552.177	213
552.39	206
552.603	200
552.816	215
553.029	210
553.242	229
553.455	233
553.667	220
553.88	233
554.093	219
554.306	231
554.519	207
554.732	214
554.944	219
555.157	227
555.37	206
555.583	195
555.795	188
556.008	199
556.221	204
556.433	202
556.646	199
556.859	186
557.071	194
557.284	178
557.496	188
557.709	172
557.921	195
558.134	182
558.346	197
558.559	187
558.771	187
558.984	189
559.196	201
559.409	215
559.621	203
559.833	194
560.046	196
560.258	181
560.47	198
560.683	216
560.895	200
561.107	193
561.32	176
561.532	186
561.744	195
561.956	185
562.168	183
562.381	185
562.593	196
562.805	192
563.017	173
563.229	188
563.441	193
563.653	176
563.865	192
564.077	182
564.289	180
564.501	185
564.713	203
564.925	193
565.137	202
565.349	202
565.561	199
565.773	201
565.985	207
566.197	205
566.408	203
566.62	236
566.832	215
567.044	227
567.255	220
567.467	229
567.679	236
567.891	242
568.102	240
568.314	214
568.526	214
568.737	217
568.949	204
569.161	214
569.372	190
569.584	186
569.795	192
570.007	189
570.218	229
570.43	212
570.641	173
570.853	193
571.064	200
571.276	172
571.487	171
571.698	171
571.91	177
572.121	184
572.333	169
572.544	182
572.755	157
572.966	170
573.178	168
573.389	178
573.6	180
573.811	172
574.023	162
574.234	172
574.445	153
574.656	164
574.867	174
575.078	177
575.289	176
575.501	163
575.712	175
575.923	181
576.134	167
576.345	156
576.556	179
576.767	137
576.978	176
577.188	180
577.399	150
577.61	157
577.821	178
578.032	167
578.243	198
578.454	398
578.665	274
578.875	173
579.086	165
579.297	151
579.508	167
579.718	148
579.929	176
580.14	159
580.35	167
580.561	164
580.772	169
580.982	156
581.193	157
581.403	153
581.614	152
581.825	146
582.035	159
582.246	154
582.456	156
582.667	157
582.877	163
583.087	172
583.298	155
583.508	148
583.719	140
583.929	167
584.139	157
584.35	163
584.56	150
584.77	146
584.981	151
585.191	151
585.401	159
585.611	154
585.821	152
586.032	157
586.242	154
586.452	155
586.662	152
586.872	146
587.082	154
587.292	152
587.502	151
587.713	155
587.923	151
588.133	132
588.343	146
588.553	161
588.762	165
588.972	173
589.182	281
589.392	261
589.602	185
589.812	266
590.022	219
590.232	157
590.441	156
590.651	157
590.861	158
591.071	147
591.281	153
591.49	150
591.7	152
591.91	151
592.119	162
592.329	157
592.539	162
592.748	162
592.958	151
593.167	151
593.377	163
593.587	151
593.796	168
594.006	161
594.215	145
594.424	157
594.634	142
594.843	163
595.053	153
595.262	157
595.472	150
595.681	137
595.89	141
596.1	151
596.309	169
596.518	144
596.727	146
596.937	155
597.146	149
597.355	163
597.564	150
597.774	118
597.983	153
598.192	162
598.401	148
598.61	151
598.819	156
599.028	132
599.237	134
599.446	139
599.655	136
599.864	140
600.073	135
600.282	132
600.491	136
600.7	142
600.909	132
601.118	133
601.327	136
601.536	140
601.745	139
601.953	151
602.162	141
602.371	142
602.58	147
602.789	138
602.997	143
603.206	132
603.415	142
603.623	139
603.832	147
604.041	142
604.249	138
604.458	141
604.666	129
604.875	156
605.084	142
605.292	129
605.501	155
605.709	139
605.918	140
606.126	141
606.334	140
606.543	138
606.751	148
606.96	123
607.168	146
607.376	134
607.585	135
607.793	133
608.001	125
608.21	136
608.418	130
608.626	130
608.834	150
609.043	140
609.251	144
609.459	146
609.667	133
609.875	138
610.083	126
610.291	146
610.499	124
610.707	131
610.916	131
611.124	139
611.332	142
611.54	165
611.748	149
611.955	140
612.163	141
612.371	154
612.579	132
612.787	132
612.995	142
613.203	150
613.411	142
613.618	137
613.826	145
614.034	140
614.242	149
614.449	126
614.657	128
614.865	146
615.072	132
615.28	128
615.488	137
615.695	139
615.903	134
616.111	136
616.318	134
616.526	130
616.733	162
616.941	128
617.148	141
617.356	136
617.563	144
617.771	133
617.978	140
618.185	133
618.393	130
618.6	120
618.807	144
619.015	150
619.222	141
619.429	142
619.637	125
619.844	139
620.051	124
620.258	127
620.466	123
620.673	125
620.88	123
621.087	117
621.294	132
621.501	134
621.708	141
621.915	137
622.122	137
622.329	137
622.536	136
622.743	130
622.95	132
623.157	136
623.364	138
623.571	121
623.778	144
623.985	135
624.192	118
624.399	141
624.606	126
624.812	127
625.019	118
625.226	128
625.433	134
625.639	128
625.846	116
626.053	129
626.259	123
626.466	117
626.673	130
626.879	123
627.086	122
627.293	129
627.499	128
627.706	130
627.912	115
628.119	131
628.325	120
628.532	131
628.738	135
628.945	133
629.151	125
629.357	121
629.564	125
629.77	138
629.976	124
630.183	130
630.389	118
630.595	121
630.802	113
631.008	119
631.214	134
631.42	130
631.627	124
631.833	126
632.039	124
632.245	112
632.451	116
632.657	124
632.863	121
633.069	131
633.275	124
633.481	114
633.688	129
633.893	113
634.099	112
634.305	96
634.511	118
634.717	116
634.923	114
635.129	133
635.335	116
635.541	125
635.747	126
635.952	122
636.158	106
636.364	138
636.57	134
636.775	123
636.981	126
637.187	109
637.392	115
637.598	121
637.804	112
638.009	135
638.215	124
638.421	110
638.626	116
638.832	119
639.037	116
639.243	128
639.448	124
639.654	118
639.859	110
640.065	114
640.27	127
640.475	116
640.681	107
640.886	112
641.091	120
641.297	119
641.502	124
641.707	122
641.913	131
642.118	124
642.323	124
642.528	119
642.733	94
642.939	112
643.144	103
643.349	128
643.554	128
643.759	129
643.964	123
644.169	118
644.374	124
644.579	124
644.784	114
644.989	113
645.194	102
645.399	100
645.604	109
645.809	127
646.014	110
646.219	116
646.423	103
646.628	112
646.833	97
647.038	118
647.243	105
647.447	112
647.652	126
647.857	95
648.062	117
648.266	110
648.471	130
648.676	119
648.88	104
649.085	121
649.289	110
649.494	112
649.698	128
649.903	110
650.107	117
650.312	128
650.516	105
650.721	123
650.925	124
651.13	112
651.334	107
651.539	104
651.743	112
651.947	105
652.152	126
652.356	117
652.56	116
652.764	92
652.969	106
653.173	109
653.377	100
653.581	104
653.785	123
653.99	124
654.194	107
654.398	115
654.602	104
654.806	120
655.01	116
655.214	123
655.418	95
655.622	138
655.826	128
656.03	122
656.234	133
656.438	132
656.642	117
656.846	126
657.049	125
657.253	116
657.457	115
657.661	109
657.865	107
658.068	98
658.272	99
658.476	106
658.68	91
658.883	94
659.087	93
659.291	90
659.494	93
659.698	82
659.901	91
660.105	91
660.309	92
660.512	84
660.716	93
660.919	90
661.123	78
661.326	91
661.53	83
661.733	89
661.936	90
662.14	91
662.343	88
662.546	77
662.75	81
662.953	78
663.156	72
663.36	68
663.563	87
663.766	83
663.969	87
664.173	85
664.376	90
664.579	67
664.782	79
664.985	77
665.188	82
665.391	77
665.594	78
665.797	86
666	86
666.203	72
666.406	79
666.609	73
666.812	70
667.015	69
667.218	88
667.421	79
667.624	78
667.827	84
668.03	70
668.232	80
668.435	83
668.638	78
668.841	73
669.043	64
669.246	66
669.449	88
669.651	78
669.854	88
670.057	73
670.259	76
670.462	79
670.665	75
670.867	87
671.07	88
671.272	92
671.475	72
671.677	86
671.88	90
672.082	82
672.284	75
672.487	80
672.689	89
672.892	77
