Data from 1966.PennyLincolnUp.Lamp.En5.5.200Scan.071719.P1._HRD10591_14-12-22-913.txt Node
Date: Thu Jul 18 14:12:22 EDT 2019
User: cochatt
Spectrometer: HR+D1059
Trigger mode: 1
Integration Time (sec): 1.000000E-1
Scans to average: 1
Electric dark correction enabled: true
Nonlinearity correction enabled: false
Boxcar width: 0
XAxis mode: Wavelengths
Number of Pixels in Spectrum: 2048
>>>>>Begin Spectral Data<<<<<
223.165	-12.81
223.4	-12.81
223.635	-12.81
223.869	-26.81
224.104	-16.81
224.338	-14.81
224.573	-23.81
224.808	-2.81
225.042	2.19
225.277	-15.81
225.511	10.19
225.746	-11.81
225.98	2.19
226.215	8.19
226.449	20.19
226.683	20.19
226.918	35.19
227.152	27.19
227.387	37.19
227.621	39.19
227.856	57.19
228.09	32.19
228.324	61.19
228.559	55.19
228.793	52.19
229.027	71.19
229.262	80.19
229.496	83.19
229.73	80.19
229.964	101.19
230.199	83.19
230.433	81.19
230.667	91.19
230.901	97.19
231.136	88.19
231.37	81.19
231.604	80.19
231.838	95.19
232.072	97.19
232.306	82.19
232.541	96.19
232.775	92.19
233.009	83.19
233.243	103.19
233.477	97.19
233.711	90.19
233.945	88.19
234.179	99.19
234.413	109.19
234.647	94.19
234.881	93.19
235.115	97.19
235.349	93.19
235.583	102.19
235.817	89.19
236.051	102.19
236.285	95.19
236.519	92.19
236.753	89.19
236.987	101.19
237.221	126.19
237.455	128.19
237.689	96.19
237.922	95.19
238.156	93.19
238.39	106.19
238.624	88.19
238.858	94.19
239.091	81.19
239.325	96.19
239.559	88.19
239.793	90.19
240.027	94.19
240.26	101.19
240.494	99.19
240.728	101.19
240.961	95.19
241.195	92.19
241.429	91.19
241.662	96.19
241.896	89.19
242.13	94.19
242.363	85.19
242.597	89.19
242.83	108.19
243.064	94.19
243.298	100.19
243.531	84.19
243.765	98.19
243.998	99.19
244.232	108.19
244.465	89.19
244.699	96.19
244.932	95.19
245.166	94.19
245.399	97.19
245.633	99.19
245.866	89.19
246.099	95.19
246.333	87.19
246.566	101.19
246.8	94.19
247.033	97.19
247.266	95.19
247.5	95.19
247.733	112.19
247.966	122.19
248.2	110.19
248.433	122.19
248.666	123.19
248.899	119.19
249.133	119.19
249.366	123.19
249.599	126.19
249.832	119.19
250.066	119.19
250.299	132.19
250.532	121.19
250.765	127.19
250.998	135.19
251.231	123.19
251.465	101.19
251.698	125.19
251.931	121.19
252.164	119.19
252.397	122.19
252.63	111.19
252.863	136.19
253.096	136.19
253.329	134.19
253.562	127.19
253.795	116.19
254.028	114.19
254.261	110.19
254.494	137.19
254.727	143.19
254.96	153.19
255.193	145.19
255.426	134.19
255.659	133.19
255.892	122.19
256.124	126.19
256.357	134.19
256.59	125.19
256.823	126.19
257.056	112.19
257.289	125.19
257.521	110.19
257.754	136.19
257.987	124.19
258.22	122.19
258.452	120.19
258.685	116.19
258.918	130.19
259.151	118.19
259.383	131.19
259.616	127.19
259.849	132.19
260.081	150.19
260.314	128.19
260.547	148.19
260.779	147.19
261.012	123.19
261.244	118.19
261.477	140.19
261.71	130.19
261.942	116.19
262.175	130.19
262.407	132.19
262.64	134.19
262.872	108.19
263.105	125.19
263.337	126.19
263.57	117.19
263.802	109.19
264.035	121.19
264.267	141.19
264.499	121.19
264.732	119.19
264.964	128.19
265.197	122.19
265.429	112.19
265.661	113.19
265.894	124.19
266.126	121.19
266.358	126.19
266.591	131.19
266.823	127.19
267.055	133.19
267.287	140.19
267.52	122.19
267.752	126.19
267.984	142.19
268.216	123.19
268.448	144.19
268.681	128.19
268.913	134.19
269.145	144.19
269.377	147.19
269.609	156.19
269.841	157.19
270.073	149.19
270.306	170.19
270.538	186.19
270.77	174.19
271.002	162.19
271.234	157.19
271.466	164.19
271.698	158.19
271.93	154.19
272.162	161.19
272.394	165.19
272.626	164.19
272.858	136.19
273.09	134.19
273.322	145.19
273.553	140.19
273.785	152.19
274.017	156.19
274.249	144.19
274.481	129.19
274.713	146.19
274.945	155.19
275.176	147.19
275.408	144.19
275.64	132.19
275.872	147.19
276.104	157.19
276.335	150.19
276.567	148.19
276.799	156.19
277.031	155.19
277.262	163.19
277.494	149.19
277.726	171.19
277.957	159.19
278.189	130.19
278.421	144.19
278.652	146.19
278.884	136.19
279.115	139.19
279.347	142.19
279.579	144.19
279.81	150.19
280.042	133.19
280.273	158.19
280.505	141.19
280.736	134.19
280.968	157.19
281.199	148.19
281.431	158.19
281.662	141.19
281.894	150.19
282.125	155.19
282.356	163.19
282.588	164.19
282.819	165.19
283.051	156.19
283.282	155.19
283.513	154.19
283.745	147.19
283.976	150.19
284.207	148.19
284.439	162.19
284.67	149.19
284.901	152.19
285.132	157.19
285.364	150.19
285.595	151.19
285.826	154.19
286.057	153.19
286.288	147.19
286.52	159.19
286.751	161.19
286.982	141.19
287.213	150.19
287.444	152.19
287.675	159.19
287.906	156.19
288.138	160.19
288.369	165.19
288.6	150.19
288.831	158.19
289.062	157.19
289.293	161.19
289.524	156.19
289.755	159.19
289.986	158.19
290.217	145.19
290.448	168.19
290.679	144.19
290.91	152.19
291.141	172.19
291.371	151.19
291.602	162.19
291.833	157.19
292.064	157.19
292.295	166.19
292.526	164.19
292.757	172.19
292.987	159.19
293.218	153.19
293.449	157.19
293.68	162.19
293.91	162.19
294.141	147.19
294.372	166.19
294.603	148.19
294.833	140.19
295.064	140.19
295.295	135.19
295.525	153.19
295.756	155.19
295.987	173.19
296.217	185.19
296.448	173.19
296.679	145.19
296.909	156.19
297.14	151.19
297.37	144.19
297.601	156.19
297.831	162.19
298.062	160.19
298.292	158.19
298.523	158.19
298.753	164.19
298.984	151.19
299.214	150.19
299.445	160.19
299.675	165.19
299.905	158.19
300.136	157.19
300.366	161.19
300.597	164.19
300.827	162.19
301.057	163.19
301.288	168.19
301.518	161.19
301.748	172.19
301.979	160.19
302.209	162.19
302.439	174.19
302.669	180.19
302.9	170.19
303.13	170.19
303.36	179.19
303.59	164.19
303.82	182.19
304.051	163.19
304.281	165.19
304.511	176.19
304.741	168.19
304.971	172.19
305.201	171.19
305.431	175.19
305.661	170.19
305.891	145.19
306.121	166.19
306.352	175.19
306.582	169.19
306.812	174.19
307.042	179.19
307.272	159.19
307.502	172.19
307.731	169.19
307.961	179.19
308.191	166.19
308.421	150.19
308.651	163.19
308.881	180.19
309.111	165.19
309.341	178.19
309.571	184.19
309.8	178.19
310.03	186.19
310.26	180.19
310.49	181.19
310.72	176.19
310.949	202.19
311.179	188.19
311.409	185.19
311.639	188.19
311.868	192.19
312.098	191.19
312.328	201.19
312.557	175.19
312.787	191.19
313.017	188.19
313.246	179.19
313.476	186.19
313.706	182.19
313.935	196.19
314.165	185.19
314.394	198.19
314.624	198.19
314.853	196.19
315.083	180.19
315.312	180.19
315.542	178.19
315.771	169.19
316.001	174.19
316.23	194.19
316.46	185.19
316.689	181.19
316.919	191.19
317.148	185.19
317.377	183.19
317.607	189.19
317.836	196.19
318.065	186.19
318.295	183.19
318.524	178.19
318.753	176.19
318.983	195.19
319.212	188.19
319.441	187.19
319.67	188.19
319.9	169.19
320.129	198.19
320.358	175.19
320.587	186.19
320.816	190.19
321.046	207.19
321.275	197.19
321.504	182.19
321.733	202.19
321.962	195.19
322.191	189.19
322.42	192.19
322.649	209.19
322.878	208.19
323.108	214.19
323.337	226.19
323.566	236.19
323.795	244.19
324.024	279.19
324.253	310.19
324.482	434.19
324.71	636.19
324.939	851.19
325.168	692.19
325.397	350.19
325.626	262.19
325.855	229.19
326.084	224.19
326.313	227.19
326.542	238.19
326.77	223.19
326.999	278.19
327.228	400.19
327.457	564.19
327.686	644.19
327.914	416.19
328.143	278.19
328.372	262.19
328.6	277.19
328.829	251.19
329.058	249.19
329.287	260.19
329.515	251.19
329.744	236.19
329.972	226.19
330.201	246.19
330.43	265.19
330.658	269.19
330.887	291.19
331.115	282.19
331.344	264.19
331.572	235.19
331.801	233.19
332.03	231.19
332.258	220.19
332.486	214.19
332.715	209.19
332.943	203.19
333.172	205.19
333.4	222.19
333.629	204.19
333.857	245.19
334.085	224.19
334.314	241.19
334.542	252.19
334.771	270.19
334.999	228.19
335.227	225.19
335.455	220.19
335.684	231.19
335.912	223.19
336.14	198.19
336.369	217.19
336.597	220.19
336.825	205.19
337.053	218.19
337.281	214.19
337.51	205.19
337.738	206.19
337.966	208.19
338.194	211.19
338.422	210.19
338.65	223.19
338.878	212.19
339.106	219.19
339.334	216.19
339.562	197.19
339.79	206.19
340.018	178.19
340.246	214.19
340.474	187.19
340.702	208.19
340.93	204.19
341.158	205.19
341.386	204.19
341.614	211.19
341.842	201.19
342.07	189.19
342.298	188.19
342.526	195.19
342.754	200.19
342.981	185.19
343.209	194.19
343.437	208.19
343.665	189.19
343.893	205.19
344.12	186.19
344.348	190.19
344.576	194.19
344.804	203.19
345.031	210.19
345.259	206.19
345.487	207.19
345.714	178.19
345.942	202.19
346.17	204.19
346.397	189.19
346.625	195.19
346.853	188.19
347.08	198.19
347.308	200.19
347.535	200.19
347.763	198.19
347.99	192.19
348.218	208.19
348.445	204.19
348.673	191.19
348.9	197.19
349.128	210.19
349.355	188.19
349.583	192.19
349.81	184.19
350.037	193.19
350.265	196.19
350.492	203.19
350.72	182.19
350.947	196.19
351.174	196.19
351.402	207.19
351.629	212.19
351.856	184.19
352.083	212.19
352.311	207.19
352.538	194.19
352.765	212.19
352.992	192.19
353.22	183.19
353.447	204.19
353.674	182.19
353.901	185.19
354.128	186.19
354.355	188.19
354.583	188.19
354.81	187.19
355.037	187.19
355.264	168.19
355.491	182.19
355.718	165.19
355.945	174.19
356.172	190.19
356.399	174.19
356.626	185.19
356.853	188.19
357.08	190.19
357.307	183.19
357.534	194.19
357.761	199.19
357.988	178.19
358.215	187.19
358.441	195.19
358.668	188.19
358.895	166.19
359.122	190.19
359.349	192.19
359.576	188.19
359.802	215.19
360.029	228.19
360.256	207.19
360.483	206.19
360.709	207.19
360.936	202.19
361.163	210.19
361.39	195.19
361.616	208.19
361.843	203.19
362.07	204.19
362.296	205.19
362.523	182.19
362.749	198.19
362.976	205.19
363.203	191.19
363.429	186.19
363.656	193.19
363.882	202.19
364.109	208.19
364.335	206.19
364.562	197.19
364.788	191.19
365.015	185.19
365.241	202.19
365.468	205.19
365.694	198.19
365.92	205.19
366.147	185.19
366.373	182.19
366.599	190.19
366.826	178.19
367.052	204.19
367.278	193.19
367.505	201.19
367.731	195.19
367.957	171.19
368.184	191.19
368.41	204.19
368.636	199.19
368.862	198.19
369.089	199.19
369.315	196.19
369.541	178.19
369.767	189.19
369.993	183.19
370.219	185.19
370.445	187.19
370.672	208.19
370.898	199.19
371.124	195.19
371.35	183.19
371.576	174.19
371.802	185.19
372.028	179.19
372.254	197.19
372.48	186.19
372.706	180.19
372.932	188.19
373.158	185.19
373.384	190.19
373.61	194.19
373.835	180.19
374.061	192.19
374.287	180.19
374.513	192.19
374.739	200.19
374.965	197.19
375.191	199.19
375.416	187.19
375.642	205.19
375.868	175.19
376.094	190.19
376.319	200.19
376.545	178.19
376.771	192.19
376.997	204.19
377.222	204.19
377.448	182.19
377.674	189.19
377.899	188.19
378.125	211.19
378.35	180.19
378.576	178.19
378.802	209.19
379.027	192.19
379.253	192.19
379.478	186.19
379.704	192.19
379.929	193.19
380.155	195.19
380.38	179.19
380.606	193.19
380.831	206.19
381.057	203.19
381.282	208.19
381.507	193.19
381.733	193.19
381.958	195.19
382.184	189.19
382.409	189.19
382.634	197.19
382.86	195.19
383.085	185.19
383.31	201.19
383.535	199.19
383.761	202.19
383.986	190.19
384.211	201.19
384.436	204.19
384.662	202.19
384.887	223.19
385.112	212.19
385.337	195.19
385.562	199.19
385.787	216.19
386.013	218.19
386.238	214.19
386.463	212.19
386.688	196.19
386.913	206.19
387.138	200.19
387.363	208.19
387.588	204.19
387.813	199.19
388.038	208.19
388.263	203.19
388.488	220.19
388.713	197.19
388.938	216.19
389.163	208.19
389.387	228.19
389.612	197.19
389.837	198.19
390.062	197.19
390.287	197.19
390.512	222.19
390.736	200.19
390.961	186.19
391.186	208.19
391.411	199.19
391.636	209.19
391.86	210.19
392.085	200.19
392.31	214.19
392.534	194.19
392.759	225.19
392.984	195.19
393.208	198.19
393.433	237.19
393.658	230.19
393.882	200.19
394.107	204.19
394.331	219.19
394.556	194.19
394.78	213.19
395.005	198.19
395.229	196.19
395.454	202.19
395.678	205.19
395.903	219.19
396.127	240.19
396.352	219.19
396.576	208.19
396.801	212.19
397.025	221.19
397.249	219.19
397.474	222.19
397.698	228.19
397.922	213.19
398.147	226.19
398.371	232.19
398.595	226.19
398.82	207.19
399.044	223.19
399.268	230.19
399.492	258.19
399.717	252.19
399.941	248.19
400.165	286.19
400.389	264.19
400.613	255.19
400.837	232.19
401.062	214.19
401.286	219.19
401.51	235.19
401.734	215.19
401.958	204.19
402.182	235.19
402.406	239.19
402.63	236.19
402.854	235.19
403.078	234.19
403.302	247.19
403.526	243.19
403.75	235.19
403.974	246.19
404.198	240.19
404.422	247.19
404.645	237.19
404.869	223.19
405.093	254.19
405.317	276.19
405.541	258.19
405.765	254.19
405.988	244.19
406.212	260.19
406.436	257.19
406.66	258.19
406.883	248.19
407.107	251.19
407.331	286.19
407.555	300.19
407.778	294.19
408.002	275.19
408.226	250.19
408.449	266.19
408.673	242.19
408.896	265.19
409.12	289.19
409.344	269.19
409.567	232.19
409.791	239.19
410.014	232.19
410.238	238.19
410.461	237.19
410.685	234.19
410.908	232.19
411.132	264.19
411.355	246.19
411.578	267.19
411.802	238.19
412.025	242.19
412.249	247.19
412.472	252.19
412.695	272.19
412.919	234.19
413.142	232.19
413.365	247.19
413.589	227.19
413.812	222.19
414.035	246.19
414.258	221.19
414.482	227.19
414.705	231.19
414.928	220.19
415.151	232.19
415.374	231.19
415.597	229.19
415.821	220.19
416.044	220.19
416.267	228.19
416.49	218.19
416.713	213.19
416.936	239.19
417.159	229.19
417.382	244.19
417.605	240.19
417.828	231.19
418.051	233.19
418.274	243.19
418.497	215.19
418.72	230.19
418.943	242.19
419.166	236.19
419.389	260.19
419.611	235.19
419.834	228.19
420.057	228.19
420.28	231.19
420.503	226.19
420.726	256.19
420.948	246.19
421.171	262.19
421.394	274.19
421.617	232.19
421.839	244.19
422.062	232.19
422.285	234.19
422.507	272.19
422.73	302.19
422.953	304.19
423.175	258.19
423.398	246.19
423.621	249.19
423.843	254.19
424.066	248.19
424.288	264.19
424.511	259.19
424.733	283.19
424.956	309.19
425.178	308.19
425.401	301.19
425.623	302.19
425.846	269.19
426.068	243.19
426.291	247.19
426.513	242.19
426.735	240.19
426.958	262.19
427.18	303.19
427.402	337.19
427.625	379.19
427.847	322.19
428.069	285.19
428.292	262.19
428.514	255.19
428.736	245.19
428.958	240.19
429.181	229.19
429.403	223.19
429.625	248.19
429.847	243.19
430.069	275.19
430.292	266.19
430.514	230.19
430.736	236.19
430.958	228.19
431.18	239.19
431.402	227.19
431.624	227.19
431.846	214.19
432.068	224.19
432.29	220.19
432.512	226.19
432.734	235.19
432.956	233.19
433.178	223.19
433.4	242.19
433.622	225.19
433.844	220.19
434.066	224.19
434.287	219.19
434.509	233.19
434.731	238.19
434.953	251.19
435.175	242.19
435.397	246.19
435.618	244.19
435.84	266.19
436.062	319.19
436.284	328.19
436.505	247.19
436.727	244.19
436.949	232.19
437.17	226.19
437.392	245.19
437.614	238.19
437.835	257.19
438.057	289.19
438.278	318.19
438.5	314.19
438.721	327.19
438.943	318.19
439.165	273.19
439.386	245.19
439.608	234.19
439.829	264.19
440.05	259.19
440.272	278.19
440.493	260.19
440.715	230.19
440.936	236.19
441.158	250.19
441.379	254.19
441.6	246.19
441.822	260.19
442.043	251.19
442.264	302.19
442.486	291.19
442.707	256.19
442.928	250.19
443.149	265.19
443.371	272.19
443.592	276.19
443.813	330.19
444.034	338.19
444.255	288.19
444.476	252.19
444.698	255.19
444.919	262.19
445.14	359.19
445.361	308.19
445.582	280.19
445.803	282.19
446.024	348.19
446.245	347.19
446.466	313.19
446.687	258.19
446.908	245.19
447.129	248.19
447.35	252.19
447.571	225.19
447.792	226.19
448.013	223.19
448.234	271.19
448.455	270.19
448.675	311.19
448.896	341.19
449.117	287.19
449.338	295.19
449.559	317.19
449.779	333.19
450	281.19
450.221	264.19
450.442	228.19
450.662	236.19
450.883	228.19
451.104	241.19
451.324	223.19
451.545	232.19
451.766	221.19
451.986	208.19
452.207	211.19
452.428	224.19
452.648	206.19
452.869	221.19
453.089	216.19
453.31	239.19
453.53	222.19
453.751	215.19
453.971	212.19
454.192	225.19
454.412	210.19
454.633	228.19
454.853	203.19
455.073	222.19
455.294	243.19
455.514	232.19
455.734	248.19
455.955	212.19
456.175	209.19
456.395	208.19
456.616	198.19
456.836	201.19
457.056	188.19
457.276	198.19
457.497	210.19
457.717	218.19
457.937	206.19
458.157	199.19
458.377	204.19
458.598	213.19
458.818	262.19
459.038	276.19
459.258	267.19
459.478	251.19
459.698	226.19
459.918	226.19
460.138	233.19
460.358	219.19
460.578	220.19
460.798	222.19
461.018	224.19
461.238	224.19
461.458	228.19
461.678	226.19
461.898	226.19
462.118	237.19
462.338	232.19
462.558	226.19
462.777	227.19
462.997	254.19
463.217	262.19
463.437	245.19
463.657	245.19
463.876	237.19
464.096	254.19
464.316	240.19
464.536	253.19
464.755	251.19
464.975	252.19
465.195	266.19
465.414	288.19
465.634	265.19
465.854	231.19
466.073	231.19
466.293	207.19
466.512	223.19
466.732	219.19
466.951	206.19
467.171	204.19
467.391	220.19
467.61	226.19
467.829	239.19
468.049	236.19
468.268	216.19
468.488	211.19
468.707	229.19
468.927	235.19
469.146	206.19
469.365	203.19
469.585	211.19
469.804	213.19
470.023	231.19
470.243	214.19
470.462	231.19
470.681	226.19
470.901	224.19
471.12	226.19
471.339	226.19
471.558	233.19
471.777	223.19
471.997	215.19
472.216	233.19
472.435	242.19
472.654	233.19
472.873	233.19
473.092	220.19
473.311	218.19
473.53	234.19
473.749	230.19
473.968	248.19
474.187	283.19
474.406	297.19
474.625	239.19
474.844	227.19
475.063	222.19
475.282	233.19
475.501	222.19
475.72	229.19
475.939	223.19
476.158	206.19
476.377	214.19
476.596	214.19
476.814	223.19
477.033	216.19
477.252	233.19
477.471	232.19
477.69	221.19
477.908	235.19
478.127	242.19
478.346	233.19
478.564	221.19
478.783	238.19
479.002	265.19
479.22	234.19
479.439	238.19
479.658	255.19
479.876	270.19
480.095	259.19
480.313	266.19
480.532	259.19
480.751	261.19
480.969	273.19
481.188	298.19
481.406	327.19
481.624	282.19
481.843	260.19
482.061	251.19
482.28	246.19
482.498	234.19
482.717	248.19
482.935	237.19
483.153	251.19
483.372	264.19
483.59	248.19
483.808	242.19
484.027	238.19
484.245	237.19
484.463	270.19
484.681	263.19
484.9	262.19
485.118	252.19
485.336	275.19
485.554	263.19
485.772	260.19
485.99	252.19
486.209	255.19
486.427	275.19
486.645	276.19
486.863	283.19
487.081	272.19
487.299	266.19
487.517	264.19
487.735	271.19
487.953	262.19
488.171	266.19
488.389	264.19
488.607	277.19
488.825	286.19
489.043	282.19
489.261	272.19
489.479	264.19
489.696	272.19
489.914	277.19
490.132	286.19
490.35	275.19
490.568	279.19
490.786	285.19
491.003	269.19
491.221	299.19
491.439	310.19
491.657	299.19
491.874	291.19
492.092	304.19
492.31	314.19
492.527	322.19
492.745	307.19
492.963	300.19
493.18	301.19
493.398	315.19
493.615	321.19
493.833	292.19
494.05	301.19
494.268	292.19
494.485	316.19
494.703	320.19
494.92	315.19
495.138	313.19
495.355	306.19
495.573	298.19
495.79	300.19
496.008	318.19
496.225	317.19
496.442	298.19
496.66	322.19
496.877	320.19
497.094	304.19
497.312	293.19
497.529	324.19
497.746	310.19
497.963	323.19
498.181	327.19
498.398	330.19
498.615	304.19
498.832	332.19
499.049	332.19
499.267	351.19
499.484	354.19
499.701	366.19
499.918	375.19
500.135	400.19
500.352	401.19
500.569	414.19
500.786	401.19
501.003	418.19
501.22	400.19
501.437	383.19
501.654	390.19
501.871	388.19
502.088	364.19
502.305	351.19
502.522	349.19
502.739	335.19
502.956	316.19
503.172	314.19
503.389	292.19
503.606	315.19
503.823	316.19
504.04	320.19
504.256	317.19
504.473	298.19
504.69	302.19
504.907	293.19
505.123	315.19
505.34	290.19
505.557	308.19
505.773	290.19
505.99	275.19
506.207	284.19
506.423	285.19
506.64	311.19
506.856	292.19
507.073	287.19
507.289	294.19
507.506	293.19
507.722	294.19
507.939	299.19
508.155	283.19
508.372	292.19
508.588	276.19
508.805	288.19
509.021	286.19
509.238	301.19
509.454	294.19
509.67	269.19
509.887	283.19
510.103	258.19
510.319	275.19
510.536	335.19
510.752	573.19
510.968	450.19
511.184	279.19
511.401	256.19
511.617	260.19
511.833	262.19
512.049	270.19
512.265	272.19
512.481	260.19
512.698	265.19
512.914	262.19
513.13	256.19
513.346	244.19
513.562	263.19
513.778	265.19
513.994	265.19
514.21	284.19
514.426	264.19
514.642	302.19
514.858	327.19
515.074	327.19
515.29	406.19
515.506	621.19
515.721	479.19
515.937	327.19
516.153	286.19
516.369	267.19
516.585	274.19
516.801	269.19
517.016	276.19
517.232	280.19
517.448	267.19
517.664	268.19
517.879	254.19
518.095	290.19
518.311	281.19
518.527	276.19
518.742	267.19
518.958	263.19
519.173	278.19
519.389	276.19
519.605	263.19
519.82	251.19
520.036	270.19
520.251	306.19
520.467	291.19
520.682	284.19
520.898	292.19
521.113	303.19
521.329	342.19
521.544	372.19
521.76	445.19
521.975	839.19
522.19	830.19
522.406	402.19
522.621	297.19
522.836	256.19
523.052	275.19
523.267	249.19
523.482	242.19
523.698	234.19
523.913	240.19
524.128	256.19
524.343	226.19
524.559	209.19
524.774	212.19
524.989	233.19
525.204	237.19
525.419	222.19
525.634	231.19
525.849	219.19
526.064	217.19
526.28	216.19
526.495	212.19
526.71	234.19
526.925	198.19
527.14	212.19
527.355	220.19
527.57	231.19
527.785	213.19
527.999	226.19
528.214	204.19
528.429	206.19
528.644	207.19
528.859	203.19
529.074	236.19
529.289	248.19
529.503	279.19
529.718	270.19
529.933	242.19
530.148	225.19
530.363	223.19
530.577	223.19
530.792	211.19
531.007	208.19
531.221	211.19
531.436	218.19
531.651	222.19
531.865	224.19
532.08	211.19
532.295	205.19
532.509	191.19
532.724	224.19
532.938	216.19
533.153	228.19
533.367	214.19
533.582	206.19
533.796	211.19
534.011	224.19
534.225	212.19
534.44	196.19
534.654	199.19
534.868	221.19
535.083	199.19
535.297	218.19
535.511	231.19
535.726	224.19
535.94	213.19
536.154	211.19
536.369	211.19
536.583	221.19
536.797	219.19
537.011	205.19
537.225	203.19
537.44	204.19
537.654	195.19
537.868	205.19
538.082	205.19
538.296	211.19
538.51	206.19
538.724	206.19
538.938	211.19
539.153	212.19
539.367	227.19
539.581	204.19
539.795	198.19
540.009	224.19
540.222	210.19
540.436	228.19
540.65	220.19
540.864	203.19
541.078	218.19
541.292	201.19
541.506	204.19
541.72	216.19
541.934	211.19
542.147	223.19
542.361	212.19
542.575	213.19
542.789	208.19
543.002	229.19
543.216	214.19
543.43	219.19
543.644	230.19
543.857	205.19
544.071	202.19
544.285	214.19
544.498	226.19
544.712	218.19
544.925	215.19
545.139	206.19
545.352	202.19
545.566	218.19
545.779	218.19
545.993	212.19
546.206	223.19
546.42	223.19
546.633	214.19
546.847	216.19
547.06	220.19
547.274	210.19
547.487	212.19
547.7	210.19
547.914	208.19
548.127	201.19
548.34	208.19
548.554	209.19
548.767	211.19
548.98	214.19
549.193	204.19
549.407	199.19
549.62	200.19
549.833	203.19
550.046	204.19
550.259	201.19
550.473	202.19
550.686	204.19
550.899	194.19
551.112	188.19
551.325	199.19
551.538	200.19
551.751	198.19
551.964	228.19
552.177	203.19
552.39	196.19
552.603	194.19
552.816	199.19
553.029	190.19
553.242	199.19
553.455	211.19
553.667	208.19
553.88	210.19
554.093	194.19
554.306	192.19
554.519	206.19
554.732	184.19
554.944	193.19
555.157	198.19
555.37	206.19
555.583	191.19
555.795	191.19
556.008	186.19
556.221	179.19
556.433	178.19
556.646	205.19
556.859	194.19
557.071	188.19
557.284	191.19
557.496	194.19
557.709	174.19
557.921	180.19
558.134	190.19
558.346	193.19
558.559	195.19
558.771	178.19
558.984	191.19
559.196	184.19
559.409	198.19
559.621	182.19
559.833	189.19
560.046	180.19
560.258	175.19
560.47	188.19
560.683	189.19
560.895	175.19
561.107	173.19
561.32	186.19
561.532	193.19
561.744	178.19
561.956	178.19
562.168	187.19
562.381	174.19
562.593	183.19
562.805	175.19
563.017	196.19
563.229	186.19
563.441	175.19
563.653	203.19
563.865	185.19
564.077	184.19
564.289	199.19
564.501	182.19
564.713	166.19
564.925	188.19
565.137	202.19
565.349	191.19
565.561	201.19
565.773	198.19
565.985	198.19
566.197	214.19
566.408	222.19
566.62	211.19
566.832	209.19
567.044	213.19
567.255	219.19
567.467	232.19
567.679	220.19
567.891	226.19
568.102	228.19
568.314	231.19
568.526	194.19
568.737	199.19
568.949	182.19
569.161	181.19
569.372	198.19
569.584	186.19
569.795	181.19
570.007	178.19
570.218	213.19
570.43	202.19
570.641	190.19
570.853	178.19
571.064	176.19
571.276	166.19
571.487	179.19
571.698	174.19
571.91	176.19
572.121	180.19
572.333	166.19
572.544	176.19
572.755	181.19
572.966	171.19
573.178	162.19
573.389	171.19
573.6	167.19
573.811	159.19
574.023	154.19
574.234	159.19
574.445	148.19
574.656	170.19
574.867	166.19
575.078	158.19
575.289	173.19
575.501	166.19
575.712	168.19
575.923	168.19
576.134	163.19
576.345	170.19
576.556	164.19
576.767	166.19
576.978	170.19
577.188	157.19
577.399	152.19
577.61	142.19
577.821	171.19
578.032	160.19
578.243	172.19
578.454	295.19
578.665	198.19
578.875	164.19
579.086	142.19
579.297	144.19
579.508	160.19
579.718	150.19
579.929	163.19
580.14	156.19
580.35	157.19
580.561	166.19
580.772	140.19
580.982	158.19
581.193	159.19
581.403	152.19
581.614	168.19
581.825	142.19
582.035	148.19
582.246	160.19
582.456	156.19
582.667	151.19
582.877	152.19
583.087	166.19
583.298	152.19
583.508	151.19
583.719	148.19
583.929	154.19
584.139	149.19
584.35	152.19
584.56	152.19
584.77	135.19
584.981	133.19
585.191	140.19
585.401	149.19
585.611	162.19
585.821	139.19
586.032	153.19
586.242	146.19
586.452	157.19
586.662	175.19
586.872	139.19
587.082	141.19
587.292	142.19
587.502	165.19
587.713	164.19
587.923	148.19
588.133	148.19
588.343	125.19
588.553	138.19
588.762	161.19
588.972	174.19
589.182	199.19
589.392	194.19
589.602	169.19
589.812	192.19
590.022	182.19
590.232	157.19
590.441	163.19
590.651	155.19
590.861	143.19
591.071	152.19
591.281	156.19
591.49	151.19
591.7	146.19
591.91	153.19
592.119	144.19
592.329	146.19
592.539	152.19
592.748	148.19
592.958	174.19
593.167	144.19
593.377	145.19
593.587	160.19
593.796	174.19
594.006	159.19
594.215	150.19
594.424	138.19
594.634	142.19
594.843	142.19
595.053	162.19
595.262	144.19
595.472	143.19
595.681	138.19
595.89	154.19
596.1	135.19
596.309	153.19
596.518	137.19
596.727	133.19
596.937	144.19
597.146	154.19
597.355	161.19
597.564	131.19
597.774	138.19
597.983	128.19
598.192	141.19
598.401	148.19
598.61	142.19
598.819	148.19
599.028	138.19
599.237	142.19
599.446	140.19
599.655	141.19
599.864	134.19
600.073	146.19
600.282	138.19
600.491	148.19
600.7	133.19
600.909	145.19
601.118	124.19
601.327	132.19
601.536	123.19
601.745	134.19
601.953	143.19
602.162	142.19
602.371	150.19
602.58	143.19
602.789	154.19
602.997	148.19
603.206	149.19
603.415	146.19
603.623	142.19
603.832	142.19
604.041	120.19
604.249	133.19
604.458	137.19
604.666	137.19
604.875	143.19
605.084	133.19
605.292	154.19
605.501	138.19
605.709	118.19
605.918	140.19
606.126	138.19
606.334	142.19
606.543	143.19
606.751	136.19
606.96	121.19
607.168	126.19
607.376	149.19
607.585	132.19
607.793	119.19
608.001	126.19
608.21	131.19
608.418	141.19
608.626	125.19
608.834	141.19
609.043	133.19
609.251	136.19
609.459	129.19
609.667	146.19
609.875	147.19
610.083	133.19
610.291	144.19
610.499	146.19
610.707	143.19
610.916	132.19
611.124	134.19
611.332	131.19
611.54	146.19
611.748	136.19
611.955	150.19
612.163	142.19
612.371	139.19
612.579	128.19
612.787	139.19
612.995	149.19
613.203	142.19
613.411	142.19
613.618	128.19
613.826	124.19
614.034	134.19
614.242	140.19
614.449	136.19
614.657	145.19
614.865	138.19
615.072	142.19
615.28	128.19
615.488	148.19
615.695	139.19
615.903	134.19
616.111	148.19
616.318	136.19
616.526	123.19
616.733	152.19
616.941	129.19
617.148	146.19
617.356	136.19
617.563	136.19
617.771	137.19
617.978	145.19
618.185	129.19
618.393	122.19
618.6	121.19
618.807	117.19
619.015	141.19
619.222	133.19
619.429	119.19
619.637	128.19
619.844	103.19
620.051	134.19
620.258	128.19
620.466	119.19
620.673	131.19
620.88	129.19
621.087	131.19
621.294	137.19
621.501	131.19
621.708	132.19
621.915	138.19
622.122	145.19
622.329	142.19
622.536	122.19
622.743	126.19
622.95	127.19
623.157	128.19
623.364	122.19
623.571	125.19
623.778	132.19
623.985	125.19
624.192	123.19
624.399	118.19
624.606	134.19
624.812	117.19
625.019	119.19
625.226	128.19
625.433	142.19
625.639	132.19
625.846	116.19
626.053	111.19
626.259	123.19
626.466	131.19
626.673	115.19
626.879	127.19
627.086	132.19
627.293	125.19
627.499	131.19
627.706	125.19
627.912	112.19
628.119	121.19
628.325	125.19
628.532	128.19
628.738	134.19
628.945	120.19
629.151	120.19
629.357	107.19
629.564	140.19
629.77	124.19
629.976	117.19
630.183	111.19
630.389	115.19
630.595	110.19
630.802	111.19
631.008	124.19
631.214	127.19
631.42	126.19
631.627	124.19
631.833	118.19
632.039	117.19
632.245	116.19
632.451	122.19
632.657	126.19
632.863	114.19
633.069	116.19
633.275	120.19
633.481	113.19
633.688	109.19
633.893	119.19
634.099	121.19
634.305	124.19
634.511	124.19
634.717	122.19
634.923	115.19
635.129	120.19
635.335	120.19
635.541	118.19
635.747	104.19
635.952	124.19
636.158	127.19
636.364	123.19
636.57	125.19
636.775	127.19
636.981	122.19
637.187	118.19
637.392	118.19
637.598	114.19
637.804	104.19
638.009	111.19
638.215	105.19
638.421	114.19
638.626	110.19
638.832	118.19
639.037	112.19
639.243	101.19
639.448	109.19
639.654	114.19
639.859	106.19
640.065	111.19
640.27	112.19
640.475	119.19
640.681	114.19
640.886	127.19
641.091	118.19
641.297	118.19
641.502	119.19
641.707	110.19
641.913	92.19
642.118	125.19
642.323	119.19
642.528	114.19
642.733	98.19
642.939	110.19
643.144	109.19
643.349	115.19
643.554	110.19
643.759	118.19
643.964	108.19
644.169	108.19
644.374	111.19
644.579	121.19
644.784	114.19
644.989	122.19
645.194	138.19
645.399	111.19
645.604	121.19
645.809	130.19
646.014	117.19
646.219	111.19
646.423	101.19
646.628	115.19
646.833	114.19
647.038	104.19
647.243	116.19
647.447	107.19
647.652	120.19
647.857	123.19
648.062	107.19
648.266	104.19
648.471	119.19
648.676	114.19
648.88	109.19
649.085	114.19
649.289	115.19
649.494	126.19
649.698	119.19
649.903	133.19
650.107	116.19
650.312	123.19
650.516	115.19
650.721	114.19
650.925	112.19
651.13	107.19
651.334	99.19
651.539	105.19
651.743	120.19
651.947	107.19
652.152	122.19
652.356	111.19
652.56	112.19
652.764	118.19
652.969	116.19
653.173	122.19
653.377	109.19
653.581	106.19
653.785	99.19
653.99	104.19
654.194	103.19
654.398	120.19
654.602	125.19
654.806	104.19
655.01	115.19
655.214	111.19
655.418	108.19
655.622	110.19
655.826	112.19
656.03	110.19
656.234	118.19
656.438	118.19
656.642	117.19
656.846	115.19
657.049	105.19
657.253	96.19
657.457	96.19
657.661	94.19
657.865	111.19
658.068	92.19
658.272	102.19
658.476	99.19
658.68	100.19
658.883	98.19
659.087	95.19
659.291	89.19
659.494	64.19
659.698	93.19
659.901	91.19
660.105	101.19
660.309	94.19
660.512	91.19
660.716	84.19
660.919	91.19
661.123	89.19
661.326	89.19
661.53	87.19
661.733	77.19
661.936	82.19
662.14	95.19
662.343	89.19
662.546	101.19
662.75	77.19
662.953	73.19
663.156	83.19
663.36	84.19
663.563	89.19
663.766	87.19
663.969	81.19
664.173	78.19
664.376	78.19
664.579	79.19
664.782	86.19
664.985	94.19
665.188	88.19
665.391	86.19
665.594	78.19
665.797	83.19
666	93.19
666.203	88.19
666.406	93.19
666.609	82.19
666.812	89.19
667.015	84.19
667.218	76.19
667.421	79.19
667.624	71.19
667.827	81.19
668.03	80.19
668.232	90.19
668.435	68.19
668.638	83.19
668.841	78.19
669.043	86.19
669.246	87.19
669.449	84.19
669.651	98.19
669.854	88.19
670.057	95.19
670.259	80.19
670.462	87.19
670.665	89.19
670.867	102.19
671.07	83.19
671.272	69.19
671.475	88.19
671.677	95.19
671.88	79.19
672.082	79.19
672.284	81.19
672.487	76.19
672.689	95.19
672.892	104.19
