Data from 1966.PennyLincolnUp.Lamp.En5.5.200Scan.071719.P1._HRD10591_14-14-15-914.txt Node
Date: Thu Jul 18 14:14:15 EDT 2019
User: cochatt
Spectrometer: HR+D1059
Trigger mode: 1
Integration Time (sec): 1.000000E-1
Scans to average: 1
Electric dark correction enabled: true
Nonlinearity correction enabled: false
Boxcar width: 0
XAxis mode: Wavelengths
Number of Pixels in Spectrum: 2048
>>>>>Begin Spectral Data<<<<<
223.165	-12.81
223.4	-12.81
223.635	-12.81
223.869	-24.81
224.104	-2.81
224.338	-21.81
224.573	-18.81
224.808	-9.81
225.042	-17.81
225.277	-3.81
225.511	4.19
225.746	2.19
225.98	16.19
226.215	2.19
226.449	5.19
226.683	18.19
226.918	40.19
227.152	24.19
227.387	41.19
227.621	44.19
227.856	42.19
228.09	28.19
228.324	47.19
228.559	52.19
228.793	52.19
229.027	69.19
229.262	89.19
229.496	83.19
229.73	88.19
229.964	115.19
230.199	89.19
230.433	102.19
230.667	107.19
230.901	84.19
231.136	97.19
231.37	102.19
231.604	92.19
231.838	93.19
232.072	100.19
232.306	93.19
232.541	87.19
232.775	89.19
233.009	82.19
233.243	83.19
233.477	89.19
233.711	99.19
233.945	89.19
234.179	87.19
234.413	101.19
234.647	100.19
234.881	92.19
235.115	89.19
235.349	92.19
235.583	107.19
235.817	95.19
236.051	96.19
236.285	100.19
236.519	107.19
236.753	100.19
236.987	100.19
237.221	120.19
237.455	148.19
237.689	128.19
237.922	106.19
238.156	101.19
238.39	107.19
238.624	101.19
238.858	87.19
239.091	113.19
239.325	90.19
239.559	88.19
239.793	90.19
240.027	99.19
240.26	97.19
240.494	135.19
240.728	112.19
240.961	106.19
241.195	108.19
241.429	101.19
241.662	104.19
241.896	95.19
242.13	106.19
242.363	101.19
242.597	93.19
242.83	97.19
243.064	106.19
243.298	97.19
243.531	95.19
243.765	110.19
243.998	107.19
244.232	99.19
244.465	103.19
244.699	112.19
244.932	115.19
245.166	113.19
245.399	90.19
245.633	102.19
245.866	92.19
246.099	90.19
246.333	98.19
246.566	90.19
246.8	107.19
247.033	112.19
247.266	106.19
247.5	124.19
247.733	120.19
247.966	115.19
248.2	109.19
248.433	107.19
248.666	109.19
248.899	122.19
249.133	126.19
249.366	127.19
249.599	135.19
249.832	133.19
250.066	117.19
250.299	133.19
250.532	107.19
250.765	142.19
250.998	132.19
251.231	130.19
251.465	125.19
251.698	126.19
251.931	134.19
252.164	123.19
252.397	137.19
252.63	119.19
252.863	138.19
253.096	136.19
253.329	151.19
253.562	133.19
253.795	138.19
254.028	126.19
254.261	128.19
254.494	142.19
254.727	160.19
254.96	169.19
255.193	164.19
255.426	157.19
255.659	147.19
255.892	134.19
256.124	163.19
256.357	152.19
256.59	140.19
256.823	145.19
257.056	141.19
257.289	133.19
257.521	132.19
257.754	126.19
257.987	136.19
258.22	136.19
258.452	128.19
258.685	118.19
258.918	127.19
259.151	145.19
259.383	141.19
259.616	140.19
259.849	136.19
260.081	137.19
260.314	153.19
260.547	179.19
260.779	131.19
261.012	131.19
261.244	134.19
261.477	131.19
261.71	130.19
261.942	134.19
262.175	142.19
262.407	154.19
262.64	128.19
262.872	133.19
263.105	131.19
263.337	150.19
263.57	147.19
263.802	128.19
264.035	120.19
264.267	136.19
264.499	135.19
264.732	139.19
264.964	147.19
265.197	138.19
265.429	131.19
265.661	138.19
265.894	143.19
266.126	140.19
266.358	134.19
266.591	120.19
266.823	128.19
267.055	140.19
267.287	126.19
267.52	152.19
267.752	135.19
267.984	138.19
268.216	130.19
268.448	158.19
268.681	139.19
268.913	156.19
269.145	129.19
269.377	149.19
269.609	166.19
269.841	166.19
270.073	171.19
270.306	184.19
270.538	183.19
270.77	180.19
271.002	169.19
271.234	167.19
271.466	193.19
271.698	196.19
271.93	185.19
272.162	192.19
272.394	166.19
272.626	186.19
272.858	167.19
273.09	165.19
273.322	152.19
273.553	164.19
273.785	169.19
274.017	156.19
274.249	148.19
274.481	161.19
274.713	154.19
274.945	166.19
275.176	180.19
275.408	153.19
275.64	148.19
275.872	162.19
276.104	161.19
276.335	176.19
276.567	157.19
276.799	183.19
277.031	195.19
277.262	205.19
277.494	196.19
277.726	193.19
277.957	164.19
278.189	182.19
278.421	154.19
278.652	151.19
278.884	159.19
279.115	175.19
279.347	164.19
279.579	154.19
279.81	148.19
280.042	170.19
280.273	154.19
280.505	144.19
280.736	172.19
280.968	156.19
281.199	173.19
281.431	163.19
281.662	154.19
281.894	158.19
282.125	158.19
282.356	169.19
282.588	174.19
282.819	169.19
283.051	166.19
283.282	174.19
283.513	164.19
283.745	165.19
283.976	171.19
284.207	170.19
284.439	152.19
284.67	166.19
284.901	164.19
285.132	156.19
285.364	167.19
285.595	157.19
285.826	161.19
286.057	167.19
286.288	152.19
286.52	161.19
286.751	172.19
286.982	160.19
287.213	162.19
287.444	163.19
287.675	164.19
287.906	179.19
288.138	173.19
288.369	176.19
288.6	173.19
288.831	176.19
289.062	172.19
289.293	168.19
289.524	160.19
289.755	177.19
289.986	164.19
290.217	170.19
290.448	167.19
290.679	164.19
290.91	163.19
291.141	167.19
291.371	164.19
291.602	161.19
291.833	162.19
292.064	180.19
292.295	174.19
292.526	175.19
292.757	182.19
292.987	171.19
293.218	171.19
293.449	162.19
293.68	186.19
293.91	149.19
294.141	160.19
294.372	164.19
294.603	165.19
294.833	168.19
295.064	170.19
295.295	162.19
295.525	172.19
295.756	171.19
295.987	197.19
296.217	197.19
296.448	196.19
296.679	195.19
296.909	173.19
297.14	168.19
297.37	190.19
297.601	173.19
297.831	170.19
298.062	170.19
298.292	180.19
298.523	177.19
298.753	182.19
298.984	162.19
299.214	170.19
299.445	177.19
299.675	176.19
299.905	194.19
300.136	193.19
300.366	192.19
300.597	169.19
300.827	173.19
301.057	170.19
301.288	209.19
301.518	169.19
301.748	190.19
301.979	192.19
302.209	184.19
302.439	187.19
302.669	184.19
302.9	185.19
303.13	184.19
303.36	178.19
303.59	193.19
303.82	199.19
304.051	203.19
304.281	180.19
304.511	180.19
304.741	183.19
304.971	173.19
305.201	192.19
305.431	181.19
305.661	180.19
305.891	180.19
306.121	185.19
306.352	194.19
306.582	187.19
306.812	194.19
307.042	184.19
307.272	191.19
307.502	191.19
307.731	167.19
307.961	180.19
308.191	190.19
308.421	185.19
308.651	210.19
308.881	181.19
309.111	186.19
309.341	192.19
309.571	195.19
309.8	200.19
310.03	209.19
310.26	208.19
310.49	195.19
310.72	208.19
310.949	221.19
311.179	218.19
311.409	212.19
311.639	217.19
311.868	200.19
312.098	212.19
312.328	216.19
312.557	198.19
312.787	212.19
313.017	229.19
313.246	227.19
313.476	209.19
313.706	216.19
313.935	228.19
314.165	219.19
314.394	219.19
314.624	200.19
314.853	193.19
315.083	199.19
315.312	211.19
315.542	200.19
315.771	201.19
316.001	209.19
316.23	214.19
316.46	180.19
316.689	205.19
316.919	189.19
317.148	211.19
317.377	226.19
317.607	206.19
317.836	218.19
318.065	201.19
318.295	196.19
318.524	192.19
318.753	201.19
318.983	199.19
319.212	211.19
319.441	222.19
319.67	209.19
319.9	211.19
320.129	194.19
320.358	213.19
320.587	220.19
320.816	217.19
321.046	221.19
321.275	233.19
321.504	215.19
321.733	209.19
321.962	219.19
322.191	217.19
322.42	225.19
322.649	231.19
322.878	238.19
323.108	258.19
323.337	278.19
323.566	274.19
323.795	281.19
324.024	300.19
324.253	372.19
324.482	518.19
324.71	780.19
324.939	1049.19
325.168	864.19
325.397	447.19
325.626	315.19
325.855	263.19
326.084	245.19
326.313	254.19
326.542	234.19
326.77	272.19
326.999	338.19
327.228	462.19
327.457	688.19
327.686	790.19
327.914	510.19
328.143	338.19
328.372	317.19
328.6	315.19
328.829	284.19
329.058	321.19
329.287	326.19
329.515	304.19
329.744	279.19
329.972	267.19
330.201	282.19
330.43	330.19
330.658	330.19
330.887	342.19
331.115	316.19
331.344	262.19
331.572	276.19
331.801	265.19
332.03	260.19
332.258	258.19
332.486	233.19
332.715	216.19
332.943	252.19
333.172	260.19
333.4	257.19
333.629	260.19
333.857	282.19
334.085	276.19
334.314	279.19
334.542	311.19
334.771	307.19
334.999	281.19
335.227	259.19
335.455	257.19
335.684	241.19
335.912	258.19
336.14	219.19
336.369	228.19
336.597	245.19
336.825	231.19
337.053	224.19
337.281	227.19
337.51	249.19
337.738	240.19
337.966	231.19
338.194	241.19
338.422	250.19
338.65	241.19
338.878	232.19
339.106	221.19
339.334	222.19
339.562	215.19
339.79	210.19
340.018	212.19
340.246	230.19
340.474	227.19
340.702	216.19
340.93	218.19
341.158	230.19
341.386	224.19
341.614	245.19
341.842	218.19
342.07	233.19
342.298	198.19
342.526	216.19
342.754	240.19
342.981	218.19
343.209	214.19
343.437	213.19
343.665	211.19
343.893	215.19
344.12	256.19
344.348	215.19
344.576	226.19
344.804	233.19
345.031	259.19
345.259	254.19
345.487	227.19
345.714	224.19
345.942	215.19
346.17	217.19
346.397	211.19
346.625	224.19
346.853	200.19
347.08	221.19
347.308	218.19
347.535	229.19
347.763	243.19
347.99	234.19
348.218	226.19
348.445	226.19
348.673	225.19
348.9	221.19
349.128	218.19
349.355	218.19
349.583	212.19
349.81	205.19
350.037	213.19
350.265	201.19
350.492	197.19
350.72	215.19
350.947	216.19
351.174	225.19
351.402	230.19
351.629	219.19
351.856	222.19
352.083	233.19
352.311	222.19
352.538	244.19
352.765	230.19
352.992	221.19
353.22	227.19
353.447	217.19
353.674	218.19
353.901	198.19
354.128	204.19
354.355	195.19
354.583	210.19
354.81	213.19
355.037	209.19
355.264	190.19
355.491	203.19
355.718	208.19
355.945	192.19
356.172	210.19
356.399	206.19
356.626	200.19
356.853	187.19
357.08	195.19
357.307	203.19
357.534	189.19
357.761	217.19
357.988	197.19
358.215	199.19
358.441	203.19
358.668	193.19
358.895	210.19
359.122	205.19
359.349	217.19
359.576	218.19
359.802	211.19
360.029	231.19
360.256	249.19
360.483	230.19
360.709	220.19
360.936	230.19
361.163	223.19
361.39	214.19
361.616	205.19
361.843	210.19
362.07	223.19
362.296	233.19
362.523	213.19
362.749	210.19
362.976	217.19
363.203	221.19
363.429	205.19
363.656	221.19
363.882	209.19
364.109	215.19
364.335	227.19
364.562	190.19
364.788	207.19
365.015	212.19
365.241	210.19
365.468	213.19
365.694	220.19
365.92	219.19
366.147	209.19
366.373	224.19
366.599	217.19
366.826	216.19
367.052	215.19
367.278	205.19
367.505	215.19
367.731	216.19
367.957	204.19
368.184	202.19
368.41	198.19
368.636	220.19
368.862	217.19
369.089	206.19
369.315	202.19
369.541	219.19
369.767	211.19
369.993	205.19
370.219	209.19
370.445	209.19
370.672	211.19
370.898	208.19
371.124	209.19
371.35	200.19
371.576	200.19
371.802	195.19
372.028	204.19
372.254	205.19
372.48	204.19
372.706	189.19
372.932	205.19
373.158	201.19
373.384	200.19
373.61	206.19
373.835	210.19
374.061	192.19
374.287	209.19
374.513	208.19
374.739	210.19
374.965	209.19
375.191	219.19
375.416	203.19
375.642	221.19
375.868	218.19
376.094	211.19
376.319	211.19
376.545	215.19
376.771	208.19
376.997	226.19
377.222	205.19
377.448	218.19
377.674	206.19
377.899	201.19
378.125	197.19
378.35	202.19
378.576	211.19
378.802	220.19
379.027	211.19
379.253	206.19
379.478	206.19
379.704	201.19
379.929	196.19
380.155	196.19
380.38	213.19
380.606	214.19
380.831	210.19
381.057	205.19
381.282	188.19
381.507	193.19
381.733	203.19
381.958	198.19
382.184	213.19
382.409	195.19
382.634	199.19
382.86	213.19
383.085	216.19
383.31	205.19
383.535	213.19
383.761	217.19
383.986	212.19
384.211	210.19
384.436	217.19
384.662	237.19
384.887	213.19
385.112	213.19
385.337	211.19
385.562	199.19
385.787	205.19
386.013	206.19
386.238	229.19
386.463	228.19
386.688	219.19
386.913	200.19
387.138	213.19
387.363	212.19
387.588	202.19
387.813	215.19
388.038	222.19
388.263	209.19
388.488	198.19
388.713	222.19
388.938	225.19
389.163	214.19
389.387	235.19
389.612	226.19
389.837	228.19
390.062	224.19
390.287	225.19
390.512	205.19
390.736	228.19
390.961	213.19
391.186	220.19
391.411	219.19
391.636	228.19
391.86	216.19
392.085	231.19
392.31	233.19
392.534	218.19
392.759	231.19
392.984	220.19
393.208	217.19
393.433	224.19
393.658	231.19
393.882	224.19
394.107	210.19
394.331	219.19
394.556	219.19
394.78	214.19
395.005	209.19
395.229	213.19
395.454	235.19
395.678	222.19
395.903	233.19
396.127	238.19
396.352	232.19
396.576	213.19
396.801	219.19
397.025	226.19
397.249	231.19
397.474	232.19
397.698	223.19
397.922	227.19
398.147	245.19
398.371	249.19
398.595	247.19
398.82	243.19
399.044	247.19
399.268	265.19
399.492	275.19
399.717	272.19
399.941	307.19
400.165	312.19
400.389	304.19
400.613	281.19
400.837	264.19
401.062	256.19
401.286	257.19
401.51	248.19
401.734	224.19
401.958	248.19
402.182	244.19
402.406	247.19
402.63	263.19
402.854	268.19
403.078	236.19
403.302	254.19
403.526	245.19
403.75	268.19
403.974	268.19
404.198	254.19
404.422	277.19
404.645	251.19
404.869	242.19
405.093	266.19
405.317	288.19
405.541	320.19
405.765	284.19
405.988	264.19
406.212	297.19
406.436	299.19
406.66	293.19
406.883	271.19
407.107	290.19
407.331	297.19
407.555	333.19
407.778	342.19
408.002	309.19
408.226	285.19
408.449	274.19
408.673	280.19
408.896	284.19
409.12	308.19
409.344	283.19
409.567	256.19
409.791	283.19
410.014	259.19
410.238	252.19
410.461	251.19
410.685	246.19
410.908	256.19
411.132	288.19
411.355	297.19
411.578	262.19
411.802	259.19
412.025	244.19
412.249	266.19
412.472	288.19
412.695	294.19
412.919	282.19
413.142	264.19
413.365	270.19
413.589	265.19
413.812	244.19
414.035	242.19
414.258	236.19
414.482	258.19
414.705	266.19
414.928	240.19
415.151	241.19
415.374	246.19
415.597	235.19
415.821	247.19
416.044	254.19
416.267	258.19
416.49	251.19
416.713	250.19
416.936	263.19
417.159	241.19
417.382	254.19
417.605	261.19
417.828	267.19
418.051	268.19
418.274	257.19
418.497	261.19
418.72	249.19
418.943	246.19
419.166	248.19
419.389	251.19
419.611	266.19
419.834	264.19
420.057	253.19
420.28	254.19
420.503	277.19
420.726	245.19
420.948	257.19
421.171	293.19
421.394	313.19
421.617	271.19
421.839	256.19
422.062	237.19
422.285	275.19
422.507	290.19
422.73	320.19
422.953	298.19
423.175	262.19
423.398	264.19
423.621	276.19
423.843	281.19
424.066	286.19
424.288	261.19
424.511	267.19
424.733	299.19
424.956	338.19
425.178	309.19
425.401	333.19
425.623	334.19
425.846	283.19
426.068	264.19
426.291	266.19
426.513	271.19
426.735	298.19
426.958	288.19
427.18	322.19
427.402	386.19
427.625	424.19
427.847	386.19
428.069	327.19
428.292	302.19
428.514	285.19
428.736	250.19
428.958	253.19
429.181	257.19
429.403	251.19
429.625	248.19
429.847	270.19
430.069	307.19
430.292	320.19
430.514	280.19
430.736	269.19
430.958	245.19
431.18	264.19
431.402	265.19
431.624	225.19
431.846	236.19
432.068	244.19
432.29	233.19
432.512	237.19
432.734	261.19
432.956	247.19
433.178	250.19
433.4	258.19
433.622	245.19
433.844	269.19
434.066	248.19
434.287	236.19
434.509	238.19
434.731	240.19
434.953	259.19
435.175	277.19
435.397	284.19
435.618	289.19
435.84	284.19
436.062	335.19
436.284	360.19
436.505	296.19
436.727	283.19
436.949	278.19
437.17	262.19
437.392	228.19
437.614	256.19
437.835	285.19
438.057	318.19
438.278	373.19
438.5	344.19
438.721	386.19
438.943	340.19
439.165	295.19
439.386	268.19
439.608	269.19
439.829	283.19
440.05	279.19
440.272	281.19
440.493	300.19
440.715	270.19
440.936	259.19
441.158	268.19
441.379	264.19
441.6	286.19
441.822	297.19
442.043	293.19
442.264	340.19
442.486	352.19
442.707	291.19
442.928	293.19
443.149	284.19
443.371	292.19
443.592	326.19
443.813	340.19
444.034	370.19
444.255	320.19
444.476	302.19
444.698	282.19
444.919	289.19
445.14	374.19
445.361	338.19
445.582	309.19
445.803	339.19
446.024	368.19
446.245	374.19
446.466	340.19
446.687	297.19
446.908	265.19
447.129	258.19
447.35	250.19
447.571	260.19
447.792	247.19
448.013	268.19
448.234	266.19
448.455	300.19
448.675	345.19
448.896	369.19
449.117	336.19
449.338	308.19
449.559	372.19
449.779	399.19
450	313.19
450.221	272.19
450.442	269.19
450.662	247.19
450.883	276.19
451.104	265.19
451.324	241.19
451.545	239.19
451.766	258.19
451.986	240.19
452.207	244.19
452.428	228.19
452.648	227.19
452.869	258.19
453.089	240.19
453.31	247.19
453.53	231.19
453.751	246.19
453.971	236.19
454.192	274.19
454.412	237.19
454.633	246.19
454.853	232.19
455.073	231.19
455.294	258.19
455.514	284.19
455.734	262.19
455.955	246.19
456.175	214.19
456.395	211.19
456.616	220.19
456.836	223.19
457.056	214.19
457.276	228.19
457.497	216.19
457.717	218.19
457.937	229.19
458.157	216.19
458.377	202.19
458.598	245.19
458.818	280.19
459.038	330.19
459.258	334.19
459.478	276.19
459.698	260.19
459.918	233.19
460.138	250.19
460.358	232.19
460.578	245.19
460.798	226.19
461.018	260.19
461.238	256.19
461.458	237.19
461.678	245.19
461.898	245.19
462.118	242.19
462.338	244.19
462.558	233.19
462.777	263.19
462.997	245.19
463.217	264.19
463.437	268.19
463.657	271.19
463.876	273.19
464.096	273.19
464.316	270.19
464.536	280.19
464.755	268.19
464.975	250.19
465.195	295.19
465.414	340.19
465.634	294.19
465.854	267.19
466.073	237.19
466.293	221.19
466.512	229.19
466.732	236.19
466.951	254.19
467.171	231.19
467.391	242.19
467.61	244.19
467.829	256.19
468.049	276.19
468.268	258.19
468.488	240.19
468.707	246.19
468.927	234.19
469.146	232.19
469.365	237.19
469.585	252.19
469.804	251.19
470.023	249.19
470.243	226.19
470.462	247.19
470.681	269.19
470.901	243.19
471.12	237.19
471.339	255.19
471.558	242.19
471.777	233.19
471.997	260.19
472.216	243.19
472.435	286.19
472.654	274.19
472.873	236.19
473.092	227.19
473.311	232.19
473.53	233.19
473.749	249.19
473.968	272.19
474.187	322.19
474.406	313.19
474.625	249.19
474.844	240.19
475.063	232.19
475.282	241.19
475.501	245.19
475.72	250.19
475.939	236.19
476.158	234.19
476.377	246.19
476.596	258.19
476.814	259.19
477.033	275.19
477.252	269.19
477.471	250.19
477.69	240.19
477.908	267.19
478.127	275.19
478.346	255.19
478.564	283.19
478.783	285.19
479.002	259.19
479.22	266.19
479.439	268.19
479.658	295.19
479.876	295.19
480.095	301.19
480.313	300.19
480.532	301.19
480.751	298.19
480.969	299.19
481.188	348.19
481.406	394.19
481.624	322.19
481.843	281.19
482.061	260.19
482.28	277.19
482.498	278.19
482.717	280.19
482.935	273.19
483.153	279.19
483.372	284.19
483.59	276.19
483.808	285.19
484.027	296.19
484.245	268.19
484.463	284.19
484.681	281.19
484.9	293.19
485.118	290.19
485.336	260.19
485.554	259.19
485.772	281.19
485.99	288.19
486.209	278.19
486.427	297.19
486.645	300.19
486.863	294.19
487.081	315.19
487.299	306.19
487.517	275.19
487.735	292.19
487.953	293.19
488.171	299.19
488.389	301.19
488.607	293.19
488.825	292.19
489.043	294.19
489.261	288.19
489.479	301.19
489.696	294.19
489.914	310.19
490.132	306.19
490.35	310.19
490.568	315.19
490.786	317.19
491.003	325.19
491.221	330.19
491.439	342.19
491.657	353.19
491.874	336.19
492.092	346.19
492.31	361.19
492.527	343.19
492.745	355.19
492.963	340.19
493.18	361.19
493.398	363.19
493.615	351.19
493.833	360.19
494.05	362.19
494.268	353.19
494.485	338.19
494.703	364.19
494.92	355.19
495.138	350.19
495.355	348.19
495.573	339.19
495.79	333.19
496.008	345.19
496.225	334.19
496.442	344.19
496.66	339.19
496.877	342.19
497.094	344.19
497.312	352.19
497.529	377.19
497.746	371.19
497.963	352.19
498.181	357.19
498.398	363.19
498.615	371.19
498.832	374.19
499.049	380.19
499.267	403.19
499.484	406.19
499.701	402.19
499.918	418.19
500.135	428.19
500.352	443.19
500.569	437.19
500.786	474.19
501.003	454.19
501.22	440.19
501.437	436.19
501.654	424.19
501.871	420.19
502.088	417.19
502.305	389.19
502.522	386.19
502.739	372.19
502.956	352.19
503.172	340.19
503.389	368.19
503.606	359.19
503.823	366.19
504.04	346.19
504.256	343.19
504.473	323.19
504.69	337.19
504.907	341.19
505.123	339.19
505.34	329.19
505.557	325.19
505.773	338.19
505.99	331.19
506.207	327.19
506.423	323.19
506.64	330.19
506.856	332.19
507.073	323.19
507.289	327.19
507.506	324.19
507.722	326.19
507.939	334.19
508.155	312.19
508.372	308.19
508.588	302.19
508.805	308.19
509.021	317.19
509.238	326.19
509.454	313.19
509.67	331.19
509.887	310.19
510.103	332.19
510.319	325.19
510.536	388.19
510.752	776.19
510.968	538.19
511.184	306.19
511.401	301.19
511.617	296.19
511.833	293.19
512.049	304.19
512.265	288.19
512.481	286.19
512.698	280.19
512.914	289.19
513.13	304.19
513.346	282.19
513.562	295.19
513.778	279.19
513.994	305.19
514.21	295.19
514.426	318.19
514.642	357.19
514.858	377.19
515.074	408.19
515.29	473.19
515.506	829.19
515.721	646.19
515.937	384.19
516.153	326.19
516.369	328.19
516.585	290.19
516.801	284.19
517.016	301.19
517.232	298.19
517.448	337.19
517.664	309.19
517.879	305.19
518.095	305.19
518.311	304.19
518.527	310.19
518.742	296.19
518.958	278.19
519.173	297.19
519.389	304.19
519.605	293.19
519.82	291.19
520.036	301.19
520.251	316.19
520.467	331.19
520.682	328.19
520.898	347.19
521.113	339.19
521.329	368.19
521.544	456.19
521.76	614.19
521.975	1093.19
522.19	1066.19
522.406	524.19
522.621	364.19
522.836	318.19
523.052	299.19
523.267	288.19
523.482	275.19
523.698	268.19
523.913	277.19
524.128	260.19
524.343	271.19
524.559	278.19
524.774	273.19
524.989	270.19
525.204	268.19
525.419	265.19
525.634	263.19
525.849	242.19
526.064	260.19
526.28	236.19
526.495	251.19
526.71	237.19
526.925	231.19
527.14	263.19
527.355	242.19
527.57	249.19
527.785	257.19
527.999	229.19
528.214	228.19
528.429	246.19
528.644	242.19
528.859	250.19
529.074	256.19
529.289	271.19
529.503	321.19
529.718	306.19
529.933	273.19
530.148	243.19
530.363	243.19
530.577	241.19
530.792	259.19
531.007	256.19
531.221	239.19
531.436	230.19
531.651	238.19
531.865	243.19
532.08	256.19
532.295	245.19
532.509	230.19
532.724	212.19
532.938	234.19
533.153	230.19
533.367	230.19
533.582	227.19
533.796	227.19
534.011	254.19
534.225	243.19
534.44	244.19
534.654	236.19
534.868	219.19
535.083	244.19
535.297	229.19
535.511	242.19
535.726	246.19
535.94	246.19
536.154	234.19
536.369	236.19
536.583	217.19
536.797	236.19
537.011	238.19
537.225	231.19
537.44	218.19
537.654	222.19
537.868	219.19
538.082	235.19
538.296	205.19
538.51	236.19
538.724	216.19
538.938	238.19
539.153	226.19
539.367	233.19
539.581	257.19
539.795	213.19
540.009	233.19
540.222	216.19
540.436	248.19
540.65	219.19
540.864	230.19
541.078	244.19
541.292	245.19
541.506	250.19
541.72	236.19
541.934	226.19
542.147	246.19
542.361	233.19
542.575	262.19
542.789	230.19
543.002	215.19
543.216	247.19
543.43	235.19
543.644	225.19
543.857	220.19
544.071	237.19
544.285	239.19
544.498	241.19
544.712	226.19
544.925	224.19
545.139	222.19
545.352	231.19
545.566	231.19
545.779	222.19
545.993	216.19
546.206	228.19
546.42	246.19
546.633	220.19
546.847	216.19
547.06	216.19
547.274	221.19
547.487	213.19
547.7	222.19
547.914	227.19
548.127	236.19
548.34	213.19
548.554	229.19
548.767	220.19
548.98	216.19
549.193	209.19
549.407	232.19
549.62	212.19
549.833	200.19
550.046	213.19
550.259	219.19
550.473	223.19
550.686	212.19
550.899	212.19
551.112	220.19
551.325	222.19
551.538	234.19
551.751	216.19
551.964	206.19
552.177	201.19
552.39	216.19
552.603	221.19
552.816	220.19
553.029	209.19
553.242	226.19
553.455	213.19
553.667	248.19
553.88	247.19
554.093	232.19
554.306	230.19
554.519	216.19
554.732	225.19
554.944	227.19
555.157	214.19
555.37	218.19
555.583	202.19
555.795	199.19
556.008	204.19
556.221	201.19
556.433	214.19
556.646	198.19
556.859	210.19
557.071	206.19
557.284	201.19
557.496	192.19
557.709	206.19
557.921	209.19
558.134	209.19
558.346	196.19
558.559	203.19
558.771	215.19
558.984	199.19
559.196	205.19
559.409	215.19
559.621	188.19
559.833	195.19
560.046	177.19
560.258	196.19
560.47	202.19
560.683	198.19
560.895	212.19
561.107	202.19
561.32	197.19
561.532	191.19
561.744	195.19
561.956	206.19
562.168	199.19
562.381	220.19
562.593	200.19
562.805	215.19
563.017	201.19
563.229	203.19
563.441	207.19
563.653	195.19
563.865	203.19
564.077	219.19
564.289	199.19
564.501	195.19
564.713	199.19
564.925	213.19
565.137	220.19
565.349	210.19
565.561	204.19
565.773	220.19
565.985	215.19
566.197	216.19
566.408	229.19
566.62	210.19
566.832	236.19
567.044	229.19
567.255	218.19
567.467	229.19
567.679	225.19
567.891	212.19
568.102	236.19
568.314	242.19
568.526	230.19
568.737	221.19
568.949	219.19
569.161	224.19
569.372	189.19
569.584	199.19
569.795	186.19
570.007	201.19
570.218	244.19
570.43	226.19
570.641	193.19
570.853	193.19
571.064	199.19
571.276	196.19
571.487	200.19
571.698	181.19
571.91	203.19
572.121	188.19
572.333	185.19
572.544	180.19
572.755	174.19
572.966	173.19
573.178	176.19
573.389	171.19
573.6	162.19
573.811	189.19
574.023	181.19
574.234	176.19
574.445	177.19
574.656	160.19
574.867	176.19
575.078	177.19
575.289	171.19
575.501	172.19
575.712	169.19
575.923	168.19
576.134	164.19
576.345	168.19
576.556	172.19
576.767	164.19
576.978	169.19
577.188	168.19
577.399	171.19
577.61	165.19
577.821	165.19
578.032	178.19
578.243	188.19
578.454	361.19
578.665	240.19
578.875	169.19
579.086	167.19
579.297	160.19
579.508	169.19
579.718	148.19
579.929	164.19
580.14	177.19
580.35	154.19
580.561	173.19
580.772	152.19
580.982	160.19
581.193	160.19
581.403	164.19
581.614	165.19
581.825	149.19
582.035	166.19
582.246	169.19
582.456	153.19
582.667	161.19
582.877	165.19
583.087	158.19
583.298	161.19
583.508	161.19
583.719	156.19
583.929	164.19
584.139	159.19
584.35	168.19
584.56	177.19
584.77	165.19
584.981	147.19
585.191	169.19
585.401	146.19
585.611	157.19
585.821	173.19
586.032	161.19
586.242	157.19
586.452	150.19
586.662	156.19
586.872	162.19
587.082	151.19
587.292	162.19
587.502	160.19
587.713	140.19
587.923	155.19
588.133	172.19
588.343	150.19
588.553	155.19
588.762	156.19
588.972	176.19
589.182	152.19
589.392	171.19
589.602	156.19
589.812	153.19
590.022	171.19
590.232	156.19
590.441	147.19
590.651	154.19
590.861	140.19
591.071	160.19
591.281	154.19
591.49	146.19
591.7	153.19
591.91	174.19
592.119	177.19
592.329	166.19
592.539	154.19
592.748	152.19
592.958	172.19
593.167	155.19
593.377	160.19
593.587	168.19
593.796	165.19
594.006	162.19
594.215	170.19
594.424	165.19
594.634	163.19
594.843	168.19
595.053	163.19
595.262	146.19
595.472	148.19
595.681	162.19
595.89	151.19
596.1	176.19
596.309	150.19
596.518	140.19
596.727	158.19
596.937	155.19
597.146	158.19
597.355	163.19
597.564	143.19
597.774	150.19
597.983	160.19
598.192	146.19
598.401	141.19
598.61	141.19
598.819	127.19
599.028	160.19
599.237	160.19
599.446	136.19
599.655	141.19
599.864	133.19
600.073	145.19
600.282	146.19
600.491	142.19
600.7	145.19
600.909	152.19
601.118	152.19
601.327	139.19
601.536	167.19
601.745	157.19
601.953	143.19
602.162	144.19
602.371	151.19
602.58	132.19
602.789	154.19
602.997	134.19
603.206	137.19
603.415	145.19
603.623	132.19
603.832	150.19
604.041	139.19
604.249	146.19
604.458	136.19
604.666	148.19
604.875	142.19
605.084	160.19
605.292	147.19
605.501	139.19
605.709	132.19
605.918	135.19
606.126	148.19
606.334	136.19
606.543	145.19
606.751	137.19
606.96	143.19
607.168	146.19
607.376	133.19
607.585	154.19
607.793	139.19
608.001	136.19
608.21	140.19
608.418	146.19
608.626	147.19
608.834	142.19
609.043	136.19
609.251	135.19
609.459	134.19
609.667	146.19
609.875	144.19
610.083	141.19
610.291	142.19
610.499	142.19
610.707	137.19
610.916	138.19
611.124	160.19
611.332	151.19
611.54	147.19
611.748	128.19
611.955	133.19
612.163	137.19
612.371	127.19
612.579	133.19
612.787	130.19
612.995	146.19
613.203	154.19
613.411	140.19
613.618	132.19
613.826	144.19
614.034	147.19
614.242	142.19
614.449	136.19
614.657	163.19
614.865	140.19
615.072	122.19
615.28	136.19
615.488	134.19
615.695	155.19
615.903	164.19
616.111	131.19
616.318	140.19
616.526	150.19
616.733	148.19
616.941	135.19
617.148	145.19
617.356	148.19
617.563	136.19
617.771	139.19
617.978	132.19
618.185	138.19
618.393	149.19
618.6	140.19
618.807	136.19
619.015	137.19
619.222	134.19
619.429	139.19
619.637	143.19
619.844	137.19
620.051	134.19
620.258	129.19
620.466	143.19
620.673	138.19
620.88	120.19
621.087	134.19
621.294	143.19
621.501	140.19
621.708	130.19
621.915	124.19
622.122	124.19
622.329	126.19
622.536	143.19
622.743	124.19
622.95	147.19
623.157	133.19
623.364	129.19
623.571	125.19
623.778	119.19
623.985	134.19
624.192	134.19
624.399	122.19
624.606	135.19
624.812	139.19
625.019	114.19
625.226	132.19
625.433	133.19
625.639	130.19
625.846	128.19
626.053	136.19
626.259	127.19
626.466	131.19
626.673	130.19
626.879	134.19
627.086	126.19
627.293	132.19
627.499	132.19
627.706	120.19
627.912	124.19
628.119	122.19
628.325	141.19
628.532	125.19
628.738	139.19
628.945	112.19
629.151	122.19
629.357	118.19
629.564	121.19
629.77	121.19
629.976	136.19
630.183	134.19
630.389	127.19
630.595	125.19
630.802	127.19
631.008	128.19
631.214	119.19
631.42	128.19
631.627	120.19
631.833	121.19
632.039	129.19
632.245	117.19
632.451	121.19
632.657	113.19
632.863	120.19
633.069	129.19
633.275	126.19
633.481	112.19
633.688	133.19
633.893	109.19
634.099	112.19
634.305	114.19
634.511	112.19
634.717	120.19
634.923	122.19
635.129	115.19
635.335	113.19
635.541	117.19
635.747	112.19
635.952	127.19
636.158	120.19
636.364	113.19
636.57	115.19
636.775	117.19
636.981	116.19
637.187	123.19
637.392	130.19
637.598	136.19
637.804	119.19
638.009	105.19
638.215	121.19
638.421	115.19
638.626	109.19
638.832	118.19
639.037	112.19
639.243	110.19
639.448	118.19
639.654	112.19
639.859	102.19
640.065	108.19
640.27	122.19
640.475	125.19
640.681	96.19
640.886	124.19
641.091	127.19
641.297	118.19
641.502	104.19
641.707	116.19
641.913	111.19
642.118	114.19
642.323	111.19
642.528	112.19
642.733	112.19
642.939	108.19
643.144	118.19
643.349	112.19
643.554	102.19
643.759	105.19
643.964	114.19
644.169	110.19
644.374	115.19
644.579	112.19
644.784	115.19
644.989	110.19
645.194	122.19
645.399	120.19
645.604	122.19
645.809	113.19
646.014	113.19
646.219	108.19
646.423	121.19
646.628	116.19
646.833	118.19
647.038	106.19
647.243	110.19
647.447	117.19
647.652	120.19
647.857	124.19
648.062	137.19
648.266	111.19
648.471	108.19
648.676	114.19
648.88	120.19
649.085	112.19
649.289	112.19
649.494	119.19
649.698	135.19
649.903	122.19
650.107	107.19
650.312	103.19
650.516	99.19
650.721	106.19
650.925	125.19
651.13	116.19
651.334	115.19
651.539	118.19
651.743	105.19
651.947	116.19
652.152	96.19
652.356	113.19
652.56	108.19
652.764	96.19
652.969	100.19
653.173	99.19
653.377	98.19
653.581	108.19
653.785	117.19
653.99	99.19
654.194	106.19
654.398	99.19
654.602	113.19
654.806	101.19
655.01	108.19
655.214	112.19
655.418	111.19
655.622	114.19
655.826	103.19
656.03	104.19
656.234	117.19
656.438	116.19
656.642	121.19
656.846	109.19
657.049	88.19
657.253	104.19
657.457	95.19
657.661	95.19
657.865	108.19
658.068	86.19
658.272	102.19
658.476	97.19
658.68	77.19
658.883	97.19
659.087	101.19
659.291	97.19
659.494	80.19
659.698	82.19
659.901	85.19
660.105	73.19
660.309	105.19
660.512	88.19
660.716	102.19
660.919	68.19
661.123	94.19
661.326	92.19
661.53	98.19
661.733	89.19
661.936	93.19
662.14	86.19
662.343	76.19
662.546	69.19
662.75	75.19
662.953	106.19
663.156	80.19
663.36	93.19
663.563	82.19
663.766	97.19
663.969	93.19
664.173	93.19
664.376	78.19
664.579	68.19
664.782	73.19
664.985	86.19
665.188	76.19
665.391	90.19
665.594	82.19
665.797	74.19
666	78.19
666.203	85.19
666.406	82.19
666.609	81.19
666.812	69.19
667.015	81.19
667.218	84.19
667.421	88.19
667.624	82.19
667.827	83.19
668.03	72.19
668.232	77.19
668.435	91.19
668.638	84.19
668.841	62.19
669.043	72.19
669.246	66.19
669.449	72.19
669.651	92.19
669.854	80.19
670.057	89.19
670.259	75.19
670.462	76.19
670.665	81.19
670.867	92.19
671.07	83.19
671.272	90.19
671.475	97.19
671.677	78.19
671.88	89.19
672.082	77.19
672.284	73.19
672.487	77.19
672.689	77.19
672.892	73.19
