Data from 1966.PennyLincolnUp.Lamp.En5.5.200Scan.071719.P1._HRD10591_14-13-36-915.txt Node
Date: Thu Jul 18 14:13:36 EDT 2019
User: cochatt
Spectrometer: HR+D1059
Trigger mode: 1
Integration Time (sec): 1.000000E-1
Scans to average: 1
Electric dark correction enabled: true
Nonlinearity correction enabled: false
Boxcar width: 0
XAxis mode: Wavelengths
Number of Pixels in Spectrum: 2048
>>>>>Begin Spectral Data<<<<<
223.165	-15
223.4	-15
223.635	-15
223.869	-10
224.104	-24
224.338	-3
224.573	-7
224.808	-14
225.042	-13
225.277	-4
225.511	-1
225.746	-8
225.98	10
226.215	16
226.449	14
226.683	10
226.918	24
227.152	25
227.387	42
227.621	41
227.856	47
228.09	45
228.324	53
228.559	67
228.793	60
229.027	79
229.262	84
229.496	73
229.73	78
229.964	104
230.199	95
230.433	87
230.667	93
230.901	94
231.136	99
231.37	80
231.604	108
231.838	94
232.072	93
232.306	92
232.541	102
232.775	89
233.009	93
233.243	105
233.477	104
233.711	94
233.945	90
234.179	98
234.413	108
234.647	119
234.881	89
235.115	109
235.349	96
235.583	106
235.817	104
236.051	87
236.285	91
236.519	105
236.753	96
236.987	102
237.221	119
237.455	131
237.689	114
237.922	98
238.156	97
238.39	104
238.624	101
238.858	90
239.091	104
239.325	106
239.559	92
239.793	102
240.027	94
240.26	107
240.494	111
240.728	108
240.961	106
241.195	120
241.429	104
241.662	108
241.896	102
242.13	96
242.363	100
242.597	101
242.83	91
243.064	95
243.298	93
243.531	109
243.765	93
243.998	109
244.232	106
244.465	110
244.699	100
244.932	100
245.166	101
245.399	102
245.633	106
245.866	104
246.099	123
246.333	110
246.566	93
246.8	103
247.033	118
247.266	113
247.5	127
247.733	111
247.966	118
248.2	106
248.433	121
248.666	121
248.899	131
249.133	135
249.366	137
249.599	122
249.832	129
250.066	132
250.299	119
250.532	121
250.765	131
250.998	147
251.231	145
251.465	155
251.698	126
251.931	117
252.164	120
252.397	128
252.63	125
252.863	137
253.096	130
253.329	139
253.562	137
253.795	122
254.028	139
254.261	158
254.494	147
254.727	160
254.96	168
255.193	156
255.426	150
255.659	137
255.892	137
256.124	151
256.357	157
256.59	127
256.823	128
257.056	133
257.289	125
257.521	125
257.754	122
257.987	128
258.22	132
258.452	129
258.685	129
258.918	117
259.151	142
259.383	144
259.616	134
259.849	135
260.081	143
260.314	153
260.547	155
260.779	154
261.012	138
261.244	145
261.477	129
261.71	122
261.942	147
262.175	137
262.407	134
262.64	149
262.872	151
263.105	127
263.337	150
263.57	141
263.802	121
264.035	147
264.267	131
264.499	133
264.732	139
264.964	135
265.197	152
265.429	144
265.661	119
265.894	130
266.126	136
266.358	137
266.591	132
266.823	132
267.055	144
267.287	149
267.52	151
267.752	148
267.984	144
268.216	145
268.448	140
268.681	133
268.913	149
269.145	161
269.377	170
269.609	169
269.841	158
270.073	175
270.306	165
270.538	183
270.77	163
271.002	161
271.234	165
271.466	191
271.698	174
271.93	176
272.162	173
272.394	165
272.626	177
272.858	170
273.09	150
273.322	151
273.553	167
273.785	147
274.017	146
274.249	160
274.481	152
274.713	149
274.945	150
275.176	155
275.408	146
275.64	166
275.872	152
276.104	157
276.335	153
276.567	154
276.799	168
277.031	185
277.262	194
277.494	176
277.726	184
277.957	175
278.189	174
278.421	158
278.652	161
278.884	172
279.115	158
279.347	155
279.579	148
279.81	144
280.042	136
280.273	153
280.505	159
280.736	150
280.968	166
281.199	156
281.431	156
281.662	155
281.894	177
282.125	165
282.356	172
282.588	182
282.819	186
283.051	170
283.282	137
283.513	162
283.745	155
283.976	162
284.207	158
284.439	179
284.67	155
284.901	173
285.132	175
285.364	166
285.595	172
285.826	163
286.057	149
286.288	155
286.52	174
286.751	151
286.982	155
287.213	154
287.444	165
287.675	161
287.906	163
288.138	191
288.369	163
288.6	155
288.831	175
289.062	169
289.293	165
289.524	161
289.755	151
289.986	145
290.217	160
290.448	171
290.679	167
290.91	163
291.141	163
291.371	173
291.602	160
291.833	168
292.064	162
292.295	165
292.526	151
292.757	168
292.987	173
293.218	170
293.449	162
293.68	161
293.91	169
294.141	172
294.372	173
294.603	185
294.833	159
295.064	173
295.295	175
295.525	152
295.756	171
295.987	161
296.217	194
296.448	196
296.679	188
296.909	183
297.14	178
297.37	178
297.601	174
297.831	186
298.062	174
298.292	166
298.523	169
298.753	183
298.984	172
299.214	176
299.445	179
299.675	187
299.905	191
300.136	179
300.366	165
300.597	168
300.827	166
301.057	184
301.288	178
301.518	177
301.748	201
301.979	175
302.209	192
302.439	171
302.669	178
302.9	189
303.13	170
303.36	173
303.59	185
303.82	180
304.051	205
304.281	189
304.511	198
304.741	174
304.971	169
305.201	185
305.431	179
305.661	176
305.891	167
306.121	170
306.352	195
306.582	185
306.812	182
307.042	192
307.272	176
307.502	199
307.731	177
307.961	193
308.191	196
308.421	186
308.651	170
308.881	187
309.111	186
309.341	178
309.571	184
309.8	199
310.03	185
310.26	202
310.49	210
310.72	196
310.949	200
311.179	221
311.409	215
311.639	205
311.868	202
312.098	204
312.328	196
312.557	211
312.787	222
313.017	207
313.246	199
313.476	189
313.706	197
313.935	213
314.165	210
314.394	225
314.624	207
314.853	215
315.083	210
315.312	208
315.542	193
315.771	193
316.001	194
316.23	193
316.46	210
316.689	204
316.919	200
317.148	217
317.377	211
317.607	215
317.836	211
318.065	198
318.295	202
318.524	201
318.753	199
318.983	198
319.212	193
319.441	210
319.67	204
319.9	198
320.129	203
320.358	194
320.587	202
320.816	210
321.046	211
321.275	215
321.504	208
321.733	211
321.962	232
322.191	224
322.42	228
322.649	230
322.878	240
323.108	226
323.337	265
323.566	244
323.795	275
324.024	303
324.253	338
324.482	476
324.71	727
324.939	969
325.168	777
325.397	391
325.626	297
325.855	261
326.084	263
326.313	228
326.542	249
326.77	262
326.999	323
327.228	428
327.457	636
327.686	711
327.914	484
328.143	327
328.372	300
328.6	313
328.829	271
329.058	274
329.287	297
329.515	277
329.744	263
329.972	270
330.201	279
330.43	305
330.658	295
330.887	325
331.115	321
331.344	278
331.572	258
331.801	263
332.03	260
332.258	227
332.486	233
332.715	211
332.943	228
333.172	217
333.4	243
333.629	243
333.857	254
334.085	243
334.314	250
334.542	293
334.771	314
334.999	264
335.227	258
335.455	235
335.684	228
335.912	229
336.14	221
336.369	240
336.597	239
336.825	227
337.053	231
337.281	227
337.51	216
337.738	220
337.966	229
338.194	237
338.422	237
338.65	240
338.878	217
339.106	217
339.334	211
339.562	218
339.79	218
340.018	225
340.246	217
340.474	220
340.702	234
340.93	212
341.158	217
341.386	220
341.614	238
341.842	233
342.07	217
342.298	222
342.526	218
342.754	221
342.981	221
343.209	213
343.437	216
343.665	213
343.893	226
344.12	222
344.348	224
344.576	229
344.804	229
345.031	229
345.259	226
345.487	209
345.714	230
345.942	204
346.17	217
346.397	207
346.625	220
346.853	203
347.08	223
347.308	221
347.535	227
347.763	215
347.99	225
348.218	224
348.445	229
348.673	224
348.9	231
349.128	215
349.355	211
349.583	204
349.81	200
350.037	203
350.265	218
350.492	214
350.72	214
350.947	214
351.174	215
351.402	215
351.629	209
351.856	215
352.083	219
352.311	235
352.538	217
352.765	221
352.992	205
353.22	207
353.447	221
353.674	204
353.901	206
354.128	215
354.355	226
354.583	193
354.81	194
355.037	205
355.264	197
355.491	192
355.718	192
355.945	206
356.172	207
356.399	210
356.626	182
356.853	187
357.08	207
357.307	183
357.534	217
357.761	191
357.988	201
358.215	206
358.441	208
358.668	198
358.895	203
359.122	202
359.349	189
359.576	217
359.802	232
360.029	235
360.256	237
360.483	237
360.709	222
360.936	225
361.163	220
361.39	219
361.616	218
361.843	215
362.07	214
362.296	208
362.523	214
362.749	206
362.976	213
363.203	216
363.429	205
363.656	203
363.882	221
364.109	213
364.335	205
364.562	186
364.788	203
365.015	198
365.241	198
365.468	199
365.694	215
365.92	208
366.147	204
366.373	202
366.599	195
366.826	189
367.052	203
367.278	205
367.505	205
367.731	214
367.957	209
368.184	199
368.41	215
368.636	212
368.862	215
369.089	218
369.315	217
369.541	196
369.767	210
369.993	192
370.219	197
370.445	211
370.672	211
370.898	199
371.124	200
371.35	199
371.576	199
371.802	220
372.028	189
372.254	197
372.48	197
372.706	205
372.932	195
373.158	205
373.384	205
373.61	218
373.835	194
374.061	202
374.287	205
374.513	216
374.739	200
374.965	192
375.191	195
375.416	212
375.642	207
375.868	210
376.094	216
376.319	208
376.545	212
376.771	198
376.997	211
377.222	204
377.448	206
377.674	200
377.899	197
378.125	209
378.35	189
378.576	214
378.802	197
379.027	194
379.253	193
379.478	203
379.704	192
379.929	200
380.155	205
380.38	207
380.606	213
380.831	204
381.057	215
381.282	197
381.507	212
381.733	199
381.958	222
382.184	199
382.409	206
382.634	199
382.86	195
383.085	206
383.31	208
383.535	209
383.761	216
383.986	215
384.211	212
384.436	215
384.662	213
384.887	200
385.112	206
385.337	217
385.562	230
385.787	198
386.013	223
386.238	218
386.463	204
386.688	219
386.913	206
387.138	215
387.363	205
387.588	214
387.813	216
388.038	205
388.263	216
388.488	232
388.713	218
388.938	212
389.163	219
389.387	206
389.612	202
389.837	219
390.062	205
390.287	234
390.512	216
390.736	198
390.961	215
391.186	194
391.411	220
391.636	209
391.86	212
392.085	201
392.31	224
392.534	217
392.759	211
392.984	210
393.208	214
393.433	227
393.658	219
393.882	225
394.107	225
394.331	216
394.556	219
394.78	217
395.005	217
395.229	214
395.454	197
395.678	250
395.903	223
396.127	239
396.352	231
396.576	211
396.801	213
397.025	215
397.249	222
397.474	237
397.698	233
397.922	237
398.147	225
398.371	238
398.595	236
398.82	249
399.044	246
399.268	253
399.492	266
399.717	270
399.941	289
400.165	294
400.389	294
400.613	267
400.837	253
401.062	229
401.286	245
401.51	237
401.734	229
401.958	241
402.182	261
402.406	252
402.63	262
402.854	249
403.078	245
403.302	236
403.526	246
403.75	254
403.974	242
404.198	249
404.422	248
404.645	249
404.869	270
405.093	272
405.317	271
405.541	285
405.765	276
405.988	283
406.212	258
406.436	270
406.66	284
406.883	262
407.107	296
407.331	300
407.555	321
407.778	317
408.002	284
408.226	270
408.449	274
408.673	274
408.896	287
409.12	306
409.344	278
409.567	252
409.791	258
410.014	256
410.238	254
410.461	268
410.685	240
410.908	263
411.132	284
411.355	260
411.578	277
411.802	248
412.025	249
412.249	256
412.472	278
412.695	284
412.919	259
413.142	261
413.365	241
413.589	235
413.812	252
414.035	240
414.258	230
414.482	238
414.705	234
414.928	235
415.151	236
415.374	227
415.597	217
415.821	231
416.044	235
416.267	249
416.49	240
416.713	244
416.936	256
417.159	224
417.382	226
417.605	238
417.828	248
418.051	249
418.274	249
418.497	243
418.72	250
418.943	248
419.166	254
419.389	261
419.611	249
419.834	245
420.057	251
420.28	276
420.503	274
420.726	243
420.948	249
421.171	296
421.394	287
421.617	259
421.839	243
422.062	259
422.285	258
422.507	255
422.73	310
422.953	306
423.175	276
423.398	270
423.621	264
423.843	274
424.066	258
424.288	263
424.511	275
424.733	313
424.956	311
425.178	308
425.401	302
425.623	305
425.846	279
426.068	253
426.291	265
426.513	258
426.735	276
426.958	291
427.18	352
427.402	386
427.625	383
427.847	360
428.069	315
428.292	279
428.514	263
428.736	249
428.958	235
429.181	249
429.403	233
429.625	257
429.847	274
430.069	298
430.292	291
430.514	249
430.736	234
430.958	238
431.18	235
431.402	240
431.624	249
431.846	229
432.068	229
432.29	216
432.512	233
432.734	248
432.956	242
433.178	241
433.4	246
433.622	243
433.844	226
434.066	219
434.287	245
434.509	256
434.731	261
434.953	240
435.175	250
435.397	261
435.618	260
435.84	294
436.062	300
436.284	343
436.505	302
436.727	282
436.949	270
437.17	238
437.392	248
437.614	263
437.835	263
438.057	329
438.278	345
438.5	349
438.721	353
438.943	335
439.165	283
439.386	263
439.608	277
439.829	275
440.05	280
440.272	301
440.493	302
440.715	272
440.936	242
441.158	257
441.379	241
441.6	257
441.822	265
442.043	292
442.264	324
442.486	331
442.707	269
442.928	280
443.149	278
443.371	292
443.592	302
443.813	330
444.034	351
444.255	306
444.476	280
444.698	259
444.919	268
445.14	330
445.361	317
445.582	295
445.803	334
446.024	363
446.245	368
446.466	321
446.687	272
446.908	270
447.129	250
447.35	252
447.571	252
447.792	249
448.013	250
448.234	249
448.455	273
448.675	333
448.896	361
449.117	304
449.338	294
449.559	338
449.779	375
450	297
450.221	263
450.442	263
450.662	237
450.883	252
451.104	247
451.324	248
451.545	229
451.766	239
451.986	220
452.207	221
452.428	230
452.648	224
452.869	231
453.089	245
453.31	229
453.53	226
453.751	241
453.971	214
454.192	237
454.412	247
454.633	222
454.853	216
455.073	225
455.294	237
455.514	262
455.734	255
455.955	230
456.175	214
456.395	210
456.616	203
456.836	222
457.056	200
457.276	208
457.497	203
457.717	205
457.937	225
458.157	235
458.377	214
458.598	234
458.818	283
459.038	296
459.258	322
459.478	249
459.698	240
459.918	238
460.138	221
460.358	232
460.578	226
460.798	244
461.018	240
461.238	251
461.458	231
461.678	241
461.898	253
462.118	239
462.338	234
462.558	249
462.777	237
462.997	258
463.217	261
463.437	253
463.657	257
463.876	242
464.096	254
464.316	255
464.536	255
464.755	264
464.975	262
465.195	291
465.414	340
465.634	280
465.854	249
466.073	250
466.293	239
466.512	230
466.732	223
466.951	226
467.171	223
467.391	216
467.61	234
467.829	243
468.049	231
468.268	274
468.488	238
468.707	240
468.927	238
469.146	216
469.365	229
469.585	229
469.804	219
470.023	264
470.243	251
470.462	221
470.681	247
470.901	254
471.12	242
471.339	233
471.558	239
471.777	232
471.997	233
472.216	241
472.435	278
472.654	265
472.873	213
473.092	238
473.311	217
473.53	239
473.749	253
473.968	258
474.187	300
474.406	300
474.625	238
474.844	248
475.063	235
475.282	237
475.501	238
475.72	236
475.939	248
476.158	240
476.377	239
476.596	215
476.814	238
477.033	240
477.252	249
477.471	240
477.69	237
477.908	251
478.127	240
478.346	256
478.564	267
478.783	264
479.002	266
479.22	269
479.439	281
479.658	269
479.876	279
480.095	296
480.313	290
480.532	292
480.751	284
480.969	299
481.188	333
481.406	367
481.624	305
481.843	267
482.061	269
482.28	279
482.498	278
482.717	255
482.935	267
483.153	265
483.372	263
483.59	273
483.808	258
484.027	255
484.245	271
484.463	278
484.681	286
484.9	273
485.118	281
485.336	254
485.554	284
485.772	297
485.99	283
486.209	273
486.427	268
486.645	269
486.863	290
487.081	296
487.299	295
487.517	296
487.735	293
487.953	290
488.171	294
488.389	295
488.607	277
488.825	291
489.043	281
489.261	281
489.479	293
489.696	306
489.914	289
490.132	298
490.35	296
490.568	301
490.786	307
491.003	318
491.221	325
491.439	326
491.657	327
491.874	321
492.092	346
492.31	346
492.527	331
492.745	330
492.963	336
493.18	336
493.398	336
493.615	332
493.833	338
494.05	350
494.268	333
494.485	332
494.703	342
494.92	331
495.138	336
495.355	319
495.573	329
495.79	335
496.008	327
496.225	330
496.442	349
496.66	333
496.877	334
497.094	332
497.312	334
497.529	337
497.746	332
497.963	334
498.181	354
498.398	342
498.615	355
498.832	370
499.049	362
499.267	366
499.484	358
499.701	373
499.918	399
500.135	424
500.352	441
500.569	433
500.786	453
501.003	437
501.22	429
501.437	417
501.654	421
501.871	405
502.088	388
502.305	367
502.522	373
502.739	363
502.956	358
503.172	330
503.389	349
503.606	353
503.823	313
504.04	329
504.256	328
504.473	331
504.69	322
504.907	314
505.123	339
505.34	328
505.557	326
505.773	327
505.99	327
506.207	347
506.423	305
506.64	297
506.856	317
507.073	304
507.289	320
507.506	305
507.722	328
507.939	322
508.155	306
508.372	307
508.588	293
508.805	300
509.021	299
509.238	311
509.454	293
509.67	305
509.887	307
510.103	296
510.319	313
510.536	388
510.752	698
510.968	531
511.184	317
511.401	302
511.617	288
511.833	293
512.049	293
512.265	288
512.481	273
512.698	269
512.914	262
513.13	283
513.346	259
513.562	285
513.778	295
513.994	268
514.21	281
514.426	306
514.642	344
514.858	332
515.074	360
515.29	447
515.506	785
515.721	614
515.937	366
516.153	319
516.369	299
516.585	286
516.801	282
517.016	272
517.232	289
517.448	294
517.664	282
517.879	302
518.095	299
518.311	289
518.527	295
518.742	297
518.958	297
519.173	283
519.389	280
519.605	279
519.82	278
520.036	284
520.251	310
520.467	322
520.682	325
520.898	311
521.113	332
521.329	363
521.544	405
521.76	584
521.975	1033
522.19	1006
522.406	471
522.621	353
522.836	319
523.052	279
523.267	277
523.482	256
523.698	265
523.913	267
524.128	273
524.343	267
524.559	258
524.774	254
524.989	251
525.204	261
525.419	269
525.634	247
525.849	253
526.064	228
526.28	237
526.495	250
526.71	233
526.925	246
527.14	247
527.355	241
527.57	224
527.785	229
527.999	250
528.214	255
528.429	269
528.644	228
528.859	238
529.074	230
529.289	257
529.503	319
529.718	286
529.933	251
530.148	239
530.363	248
530.577	235
530.792	251
531.007	231
531.221	235
531.436	233
531.651	233
531.865	233
532.08	229
532.295	226
532.509	215
532.724	219
532.938	239
533.153	223
533.367	222
533.582	229
533.796	215
534.011	249
534.225	229
534.44	226
534.654	209
534.868	218
535.083	218
535.297	230
535.511	227
535.726	240
535.94	239
536.154	228
536.369	219
536.583	229
536.797	226
537.011	218
537.225	221
537.44	225
537.654	230
537.868	211
538.082	242
538.296	234
538.51	222
538.724	206
538.938	241
539.153	234
539.367	225
539.581	236
539.795	221
540.009	222
540.222	227
540.436	219
540.65	222
540.864	236
541.078	228
541.292	227
541.506	223
541.72	243
541.934	231
542.147	221
542.361	218
542.575	217
542.789	211
543.002	199
543.216	233
543.43	232
543.644	245
543.857	217
544.071	242
544.285	229
544.498	221
544.712	206
544.925	222
545.139	217
545.352	232
545.566	220
545.779	225
545.993	221
546.206	222
546.42	247
546.633	242
546.847	223
547.06	222
547.274	217
547.487	231
547.7	214
547.914	230
548.127	200
548.34	211
548.554	211
548.767	229
548.98	227
549.193	200
549.407	220
549.62	227
549.833	222
550.046	213
550.259	220
550.473	220
550.686	217
550.899	218
551.112	220
551.325	204
551.538	201
551.751	206
551.964	198
552.177	217
552.39	216
552.603	209
552.816	215
553.029	206
553.242	229
553.455	218
553.667	225
553.88	249
554.093	231
554.306	221
554.519	235
554.732	215
554.944	217
555.157	213
555.37	221
555.583	206
555.795	214
556.008	205
556.221	190
556.433	195
556.646	197
556.859	202
557.071	216
557.284	191
557.496	181
557.709	202
557.921	197
558.134	197
558.346	186
558.559	206
558.771	207
558.984	198
559.196	197
559.409	197
559.621	186
559.833	203
560.046	205
560.258	198
560.47	196
560.683	207
560.895	187
561.107	188
561.32	198
561.532	191
561.744	200
561.956	183
562.168	203
562.381	187
562.593	191
562.805	194
563.017	188
563.229	204
563.441	191
563.653	204
563.865	202
564.077	189
564.289	187
564.501	199
564.713	205
564.925	193
565.137	211
565.349	224
565.561	214
565.773	215
565.985	193
566.197	209
566.408	221
566.62	205
566.832	231
567.044	236
567.255	232
567.467	228
567.679	223
567.891	234
568.102	233
568.314	237
568.526	210
568.737	211
568.949	215
569.161	214
569.372	183
569.584	201
569.795	206
570.007	203
570.218	225
570.43	217
570.641	181
570.853	197
571.064	210
571.276	176
571.487	200
571.698	194
571.91	199
572.121	178
572.333	172
572.544	175
572.755	170
572.966	163
573.178	184
573.389	173
573.6	166
573.811	182
574.023	173
574.234	173
574.445	160
574.656	165
574.867	177
575.078	186
575.289	181
575.501	175
575.712	167
575.923	175
576.134	152
576.345	158
576.556	181
576.767	161
576.978	165
577.188	174
577.399	191
577.61	160
577.821	153
578.032	183
578.243	199
578.454	375
578.665	230
578.875	174
579.086	162
579.297	189
579.508	167
579.718	151
579.929	173
580.14	150
580.35	161
580.561	169
580.772	165
580.982	149
581.193	167
581.403	178
581.614	165
581.825	162
582.035	157
582.246	153
582.456	166
582.667	166
582.877	182
583.087	162
583.298	154
583.508	160
583.719	144
583.929	144
584.139	169
584.35	158
584.56	161
584.77	167
584.981	151
585.191	158
585.401	168
585.611	164
585.821	164
586.032	172
586.242	155
586.452	175
586.662	165
586.872	145
587.082	142
587.292	150
587.502	151
587.713	154
587.923	168
588.133	158
588.343	141
588.553	163
588.762	167
588.972	161
589.182	181
589.392	171
589.602	157
589.812	165
590.022	167
590.232	165
590.441	169
590.651	134
590.861	161
591.071	155
591.281	141
591.49	155
591.7	171
591.91	166
592.119	157
592.329	154
592.539	165
592.748	154
592.958	170
593.167	145
593.377	154
593.587	152
593.796	156
594.006	153
594.215	160
594.424	175
594.634	153
594.843	162
595.053	175
595.262	149
595.472	162
595.681	150
595.89	151
596.1	164
596.309	158
596.518	155
596.727	160
596.937	162
597.146	159
597.355	157
597.564	145
597.774	154
597.983	145
598.192	160
598.401	141
598.61	156
598.819	158
599.028	142
599.237	155
599.446	130
599.655	139
599.864	160
600.073	159
600.282	147
600.491	144
600.7	140
600.909	130
601.118	139
601.327	152
601.536	161
601.745	134
601.953	148
602.162	151
602.371	145
602.58	149
602.789	161
602.997	139
603.206	135
603.415	153
603.623	142
603.832	160
604.041	145
604.249	135
604.458	152
604.666	159
604.875	154
605.084	153
605.292	148
605.501	145
605.709	144
605.918	139
606.126	144
606.334	148
606.543	153
606.751	136
606.96	142
607.168	138
607.376	137
607.585	140
607.793	133
608.001	146
608.21	142
608.418	151
608.626	146
608.834	142
609.043	129
609.251	140
609.459	137
609.667	130
609.875	141
610.083	145
610.291	145
610.499	158
610.707	145
610.916	132
611.124	141
611.332	148
611.54	151
611.748	149
611.955	160
612.163	160
612.371	126
612.579	133
612.787	149
612.995	133
613.203	138
613.411	160
613.618	141
613.826	149
614.034	149
614.242	137
614.449	140
614.657	145
614.865	153
615.072	137
615.28	141
615.488	148
615.695	130
615.903	138
616.111	129
616.318	154
616.526	141
616.733	142
616.941	138
617.148	146
617.356	156
617.563	125
617.771	124
617.978	134
618.185	147
618.393	133
618.6	138
618.807	139
619.015	140
619.222	139
619.429	145
619.637	140
619.844	149
620.051	144
620.258	138
620.466	143
620.673	150
620.88	156
621.087	142
621.294	130
621.501	138
621.708	134
621.915	129
622.122	135
622.329	132
622.536	147
622.743	138
622.95	141
623.157	136
623.364	136
623.571	155
623.778	145
623.985	142
624.192	140
624.399	142
624.606	136
624.812	139
625.019	122
625.226	134
625.433	146
625.639	130
625.846	134
626.053	133
626.259	136
626.466	135
626.673	121
626.879	129
627.086	126
627.293	122
627.499	128
627.706	131
627.912	131
628.119	121
628.325	121
628.532	114
628.738	133
628.945	115
629.151	131
629.357	129
629.564	150
629.77	131
629.976	125
630.183	126
630.389	123
630.595	129
630.802	124
631.008	137
631.214	133
631.42	121
631.627	143
631.833	130
632.039	127
632.245	130
632.451	138
632.657	127
632.863	124
633.069	121
633.275	131
633.481	138
633.688	136
633.893	124
634.099	122
634.305	112
634.511	112
634.717	128
634.923	114
635.129	114
635.335	121
635.541	119
635.747	125
635.952	133
636.158	128
636.364	142
636.57	120
636.775	127
636.981	125
637.187	130
637.392	111
637.598	115
637.804	120
638.009	113
638.215	124
638.421	123
638.626	123
638.832	102
639.037	95
639.243	113
639.448	109
639.654	125
639.859	106
640.065	120
640.27	130
640.475	130
640.681	127
640.886	115
641.091	105
641.297	117
641.502	101
641.707	126
641.913	97
642.118	111
642.323	122
642.528	145
642.733	133
642.939	130
643.144	119
643.349	114
643.554	118
643.759	110
643.964	114
644.169	127
644.374	124
644.579	104
644.784	115
644.989	117
645.194	103
645.399	130
645.604	118
645.809	106
646.014	128
646.219	113
646.423	127
646.628	135
646.833	119
647.038	138
647.243	122
647.447	125
647.652	133
647.857	114
648.062	112
648.266	118
648.471	104
648.676	119
648.88	122
649.085	128
649.289	106
649.494	119
649.698	113
649.903	121
650.107	109
650.312	121
650.516	110
650.721	127
650.925	114
651.13	105
651.334	117
651.539	109
651.743	99
651.947	104
652.152	107
652.356	124
652.56	123
652.764	99
652.969	112
653.173	106
653.377	120
653.581	93
653.785	108
653.99	109
654.194	119
654.398	106
654.602	109
654.806	114
655.01	107
655.214	110
655.418	98
655.622	110
655.826	107
656.03	105
656.234	121
656.438	105
656.642	118
656.846	106
657.049	96
657.253	133
657.457	99
657.661	111
657.865	122
658.068	109
658.272	96
658.476	105
658.68	89
658.883	93
659.087	87
659.291	91
659.494	102
659.698	89
659.901	90
660.105	98
660.309	105
660.512	99
660.716	109
660.919	91
661.123	101
661.326	85
661.53	90
661.733	91
661.936	86
662.14	83
662.343	79
662.546	106
662.75	90
662.953	82
663.156	84
663.36	96
663.563	83
663.766	92
663.969	93
664.173	80
664.376	80
664.579	80
664.782	84
664.985	84
665.188	97
665.391	88
665.594	83
665.797	92
666	81
666.203	89
666.406	86
666.609	94
666.812	77
667.015	78
667.218	88
667.421	85
667.624	79
667.827	88
668.03	71
668.232	89
668.435	90
668.638	85
668.841	90
669.043	87
669.246	90
669.449	98
669.651	94
669.854	84
670.057	81
670.259	89
670.462	84
670.665	98
670.867	83
671.07	86
671.272	82
671.475	88
671.677	78
671.88	88
672.082	82
672.284	93
672.487	79
672.689	79
672.892	103
