Data from 1966.PennyLincolnUp.Lamp.En5.5.200Scan.071719.P1._HRD10591_14-12-53-914.txt Node
Date: Thu Jul 18 14:12:53 EDT 2019
User: cochatt
Spectrometer: HR+D1059
Trigger mode: 1
Integration Time (sec): 1.000000E-1
Scans to average: 1
Electric dark correction enabled: true
Nonlinearity correction enabled: false
Boxcar width: 0
XAxis mode: Wavelengths
Number of Pixels in Spectrum: 2048
>>>>>Begin Spectral Data<<<<<
223.165	-20.81
223.4	-20.81
223.635	-20.81
223.869	-17.81
224.104	-18.81
224.338	-18.81
224.573	-7.81
224.808	-14.81
225.042	-10.81
225.277	3.19
225.511	10.19
225.746	-2.81
225.98	-8.81
226.215	11.19
226.449	17.19
226.683	17.19
226.918	33.19
227.152	29.19
227.387	32.19
227.621	36.19
227.856	51.19
228.09	55.19
228.324	53.19
228.559	53.19
228.793	58.19
229.027	86.19
229.262	68.19
229.496	76.19
229.73	93.19
229.964	106.19
230.199	89.19
230.433	88.19
230.667	96.19
230.901	71.19
231.136	102.19
231.37	89.19
231.604	92.19
231.838	86.19
232.072	80.19
232.306	87.19
232.541	96.19
232.775	103.19
233.009	99.19
233.243	95.19
233.477	82.19
233.711	101.19
233.945	85.19
234.179	85.19
234.413	103.19
234.647	95.19
234.881	103.19
235.115	94.19
235.349	85.19
235.583	107.19
235.817	94.19
236.051	104.19
236.285	98.19
236.519	111.19
236.753	106.19
236.987	113.19
237.221	117.19
237.455	139.19
237.689	124.19
237.922	95.19
238.156	99.19
238.39	101.19
238.624	93.19
238.858	94.19
239.091	88.19
239.325	101.19
239.559	100.19
239.793	100.19
240.027	101.19
240.26	110.19
240.494	106.19
240.728	103.19
240.961	108.19
241.195	104.19
241.429	103.19
241.662	102.19
241.896	85.19
242.13	97.19
242.363	99.19
242.597	94.19
242.83	107.19
243.064	113.19
243.298	97.19
243.531	95.19
243.765	94.19
243.998	107.19
244.232	117.19
244.465	102.19
244.699	87.19
244.932	102.19
245.166	114.19
245.399	104.19
245.633	123.19
245.866	105.19
246.099	98.19
246.333	105.19
246.566	112.19
246.8	116.19
247.033	103.19
247.266	111.19
247.5	113.19
247.733	120.19
247.966	128.19
248.2	113.19
248.433	99.19
248.666	106.19
248.899	129.19
249.133	124.19
249.366	138.19
249.599	131.19
249.832	126.19
250.066	107.19
250.299	124.19
250.532	115.19
250.765	127.19
250.998	163.19
251.231	134.19
251.465	134.19
251.698	121.19
251.931	131.19
252.164	115.19
252.397	124.19
252.63	129.19
252.863	138.19
253.096	137.19
253.329	133.19
253.562	143.19
253.795	138.19
254.028	128.19
254.261	133.19
254.494	131.19
254.727	161.19
254.96	163.19
255.193	149.19
255.426	152.19
255.659	139.19
255.892	127.19
256.124	145.19
256.357	144.19
256.59	136.19
256.823	129.19
257.056	127.19
257.289	133.19
257.521	141.19
257.754	111.19
257.987	109.19
258.22	130.19
258.452	123.19
258.685	126.19
258.918	124.19
259.151	131.19
259.383	131.19
259.616	134.19
259.849	136.19
260.081	137.19
260.314	151.19
260.547	157.19
260.779	141.19
261.012	147.19
261.244	151.19
261.477	148.19
261.71	133.19
261.942	131.19
262.175	139.19
262.407	127.19
262.64	129.19
262.872	133.19
263.105	144.19
263.337	137.19
263.57	148.19
263.802	141.19
264.035	120.19
264.267	151.19
264.499	124.19
264.732	127.19
264.964	127.19
265.197	136.19
265.429	133.19
265.661	112.19
265.894	131.19
266.126	127.19
266.358	146.19
266.591	135.19
266.823	132.19
267.055	132.19
267.287	119.19
267.52	135.19
267.752	136.19
267.984	132.19
268.216	129.19
268.448	139.19
268.681	137.19
268.913	145.19
269.145	143.19
269.377	152.19
269.609	152.19
269.841	164.19
270.073	158.19
270.306	172.19
270.538	191.19
270.77	169.19
271.002	180.19
271.234	157.19
271.466	181.19
271.698	174.19
271.93	189.19
272.162	196.19
272.394	174.19
272.626	157.19
272.858	148.19
273.09	154.19
273.322	167.19
273.553	157.19
273.785	152.19
274.017	142.19
274.249	161.19
274.481	161.19
274.713	154.19
274.945	163.19
275.176	148.19
275.408	170.19
275.64	163.19
275.872	152.19
276.104	154.19
276.335	156.19
276.567	142.19
276.799	175.19
277.031	172.19
277.262	174.19
277.494	181.19
277.726	171.19
277.957	145.19
278.189	166.19
278.421	147.19
278.652	161.19
278.884	165.19
279.115	159.19
279.347	155.19
279.579	171.19
279.81	157.19
280.042	150.19
280.273	184.19
280.505	156.19
280.736	146.19
280.968	140.19
281.199	143.19
281.431	156.19
281.662	157.19
281.894	157.19
282.125	153.19
282.356	151.19
282.588	186.19
282.819	179.19
283.051	154.19
283.282	149.19
283.513	165.19
283.745	150.19
283.976	153.19
284.207	161.19
284.439	172.19
284.67	160.19
284.901	152.19
285.132	166.19
285.364	141.19
285.595	179.19
285.826	159.19
286.057	164.19
286.288	161.19
286.52	163.19
286.751	166.19
286.982	165.19
287.213	173.19
287.444	161.19
287.675	165.19
287.906	157.19
288.138	171.19
288.369	184.19
288.6	179.19
288.831	160.19
289.062	183.19
289.293	179.19
289.524	163.19
289.755	157.19
289.986	157.19
290.217	158.19
290.448	162.19
290.679	168.19
290.91	166.19
291.141	151.19
291.371	162.19
291.602	166.19
291.833	166.19
292.064	156.19
292.295	158.19
292.526	142.19
292.757	160.19
292.987	151.19
293.218	152.19
293.449	169.19
293.68	158.19
293.91	147.19
294.141	169.19
294.372	158.19
294.603	164.19
294.833	165.19
295.064	166.19
295.295	161.19
295.525	161.19
295.756	184.19
295.987	189.19
296.217	172.19
296.448	183.19
296.679	175.19
296.909	179.19
297.14	167.19
297.37	180.19
297.601	167.19
297.831	160.19
298.062	169.19
298.292	190.19
298.523	180.19
298.753	168.19
298.984	157.19
299.214	164.19
299.445	168.19
299.675	166.19
299.905	188.19
300.136	172.19
300.366	168.19
300.597	178.19
300.827	176.19
301.057	180.19
301.288	183.19
301.518	183.19
301.748	173.19
301.979	184.19
302.209	177.19
302.439	173.19
302.669	183.19
302.9	193.19
303.13	164.19
303.36	174.19
303.59	181.19
303.82	184.19
304.051	188.19
304.281	176.19
304.511	182.19
304.741	189.19
304.971	172.19
305.201	190.19
305.431	181.19
305.661	185.19
305.891	172.19
306.121	177.19
306.352	174.19
306.582	186.19
306.812	174.19
307.042	173.19
307.272	168.19
307.502	177.19
307.731	187.19
307.961	184.19
308.191	181.19
308.421	169.19
308.651	180.19
308.881	173.19
309.111	180.19
309.341	194.19
309.571	192.19
309.8	191.19
310.03	188.19
310.26	201.19
310.49	210.19
310.72	197.19
310.949	206.19
311.179	199.19
311.409	184.19
311.639	203.19
311.868	205.19
312.098	199.19
312.328	208.19
312.557	216.19
312.787	219.19
313.017	215.19
313.246	206.19
313.476	187.19
313.706	189.19
313.935	213.19
314.165	209.19
314.394	199.19
314.624	214.19
314.853	196.19
315.083	187.19
315.312	198.19
315.542	198.19
315.771	192.19
316.001	212.19
316.23	195.19
316.46	197.19
316.689	196.19
316.919	207.19
317.148	190.19
317.377	203.19
317.607	195.19
317.836	200.19
318.065	194.19
318.295	174.19
318.524	210.19
318.753	197.19
318.983	199.19
319.212	182.19
319.441	187.19
319.67	191.19
319.9	197.19
320.129	203.19
320.358	194.19
320.587	183.19
320.816	201.19
321.046	203.19
321.275	197.19
321.504	206.19
321.733	214.19
321.962	220.19
322.191	207.19
322.42	213.19
322.649	223.19
322.878	233.19
323.108	223.19
323.337	244.19
323.566	245.19
323.795	263.19
324.024	294.19
324.253	328.19
324.482	445.19
324.71	697.19
324.939	909.19
325.168	738.19
325.397	399.19
325.626	283.19
325.855	238.19
326.084	234.19
326.313	229.19
326.542	228.19
326.77	258.19
326.999	301.19
327.228	433.19
327.457	617.19
327.686	694.19
327.914	444.19
328.143	327.19
328.372	286.19
328.6	291.19
328.829	266.19
329.058	289.19
329.287	284.19
329.515	271.19
329.744	251.19
329.972	271.19
330.201	295.19
330.43	294.19
330.658	304.19
330.887	316.19
331.115	302.19
331.344	262.19
331.572	248.19
331.801	239.19
332.03	235.19
332.258	226.19
332.486	227.19
332.715	228.19
332.943	220.19
333.172	222.19
333.4	203.19
333.629	238.19
333.857	238.19
334.085	231.19
334.314	254.19
334.542	268.19
334.771	280.19
334.999	257.19
335.227	232.19
335.455	232.19
335.684	234.19
335.912	220.19
336.14	237.19
336.369	230.19
336.597	216.19
336.825	220.19
337.053	220.19
337.281	199.19
337.51	231.19
337.738	219.19
337.966	229.19
338.194	217.19
338.422	242.19
338.65	230.19
338.878	216.19
339.106	217.19
339.334	222.19
339.562	222.19
339.79	224.19
340.018	220.19
340.246	203.19
340.474	203.19
340.702	200.19
340.93	217.19
341.158	227.19
341.386	217.19
341.614	223.19
341.842	223.19
342.07	205.19
342.298	200.19
342.526	202.19
342.754	203.19
342.981	209.19
343.209	213.19
343.437	216.19
343.665	216.19
343.893	218.19
344.12	227.19
344.348	219.19
344.576	219.19
344.804	236.19
345.031	219.19
345.259	235.19
345.487	230.19
345.714	217.19
345.942	221.19
346.17	224.19
346.397	190.19
346.625	218.19
346.853	218.19
347.08	196.19
347.308	219.19
347.535	225.19
347.763	233.19
347.99	216.19
348.218	227.19
348.445	207.19
348.673	220.19
348.9	221.19
349.128	206.19
349.355	223.19
349.583	214.19
349.81	203.19
350.037	199.19
350.265	197.19
350.492	193.19
350.72	208.19
350.947	195.19
351.174	202.19
351.402	218.19
351.629	208.19
351.856	203.19
352.083	223.19
352.311	219.19
352.538	207.19
352.765	225.19
352.992	203.19
353.22	206.19
353.447	200.19
353.674	198.19
353.901	198.19
354.128	195.19
354.355	212.19
354.583	208.19
354.81	198.19
355.037	202.19
355.264	199.19
355.491	198.19
355.718	180.19
355.945	188.19
356.172	182.19
356.399	189.19
356.626	179.19
356.853	189.19
357.08	207.19
357.307	189.19
357.534	204.19
357.761	198.19
357.988	200.19
358.215	199.19
358.441	195.19
358.668	193.19
358.895	213.19
359.122	199.19
359.349	211.19
359.576	188.19
359.802	208.19
360.029	223.19
360.256	235.19
360.483	223.19
360.709	197.19
360.936	201.19
361.163	215.19
361.39	217.19
361.616	210.19
361.843	220.19
362.07	219.19
362.296	216.19
362.523	195.19
362.749	195.19
362.976	214.19
363.203	209.19
363.429	189.19
363.656	207.19
363.882	183.19
364.109	201.19
364.335	201.19
364.562	210.19
364.788	183.19
365.015	208.19
365.241	208.19
365.468	201.19
365.694	221.19
365.92	206.19
366.147	191.19
366.373	204.19
366.599	192.19
366.826	198.19
367.052	204.19
367.278	213.19
367.505	196.19
367.731	195.19
367.957	200.19
368.184	210.19
368.41	211.19
368.636	209.19
368.862	217.19
369.089	207.19
369.315	215.19
369.541	189.19
369.767	203.19
369.993	198.19
370.219	209.19
370.445	201.19
370.672	191.19
370.898	202.19
371.124	182.19
371.35	203.19
371.576	199.19
371.802	194.19
372.028	201.19
372.254	198.19
372.48	185.19
372.706	189.19
372.932	195.19
373.158	193.19
373.384	189.19
373.61	202.19
373.835	186.19
374.061	215.19
374.287	199.19
374.513	211.19
374.739	199.19
374.965	191.19
375.191	204.19
375.416	204.19
375.642	191.19
375.868	191.19
376.094	188.19
376.319	203.19
376.545	194.19
376.771	192.19
376.997	200.19
377.222	186.19
377.448	217.19
377.674	205.19
377.899	198.19
378.125	193.19
378.35	190.19
378.576	202.19
378.802	184.19
379.027	186.19
379.253	200.19
379.478	196.19
379.704	192.19
379.929	207.19
380.155	204.19
380.38	207.19
380.606	200.19
380.831	200.19
381.057	204.19
381.282	209.19
381.507	191.19
381.733	210.19
381.958	217.19
382.184	197.19
382.409	204.19
382.634	226.19
382.86	204.19
383.085	204.19
383.31	198.19
383.535	189.19
383.761	205.19
383.986	203.19
384.211	220.19
384.436	219.19
384.662	218.19
384.887	211.19
385.112	224.19
385.337	207.19
385.562	192.19
385.787	221.19
386.013	224.19
386.238	218.19
386.463	209.19
386.688	214.19
386.913	187.19
387.138	214.19
387.363	204.19
387.588	216.19
387.813	218.19
388.038	225.19
388.263	222.19
388.488	221.19
388.713	203.19
388.938	209.19
389.163	187.19
389.387	177.19
389.612	205.19
389.837	204.19
390.062	210.19
390.287	215.19
390.512	224.19
390.736	207.19
390.961	214.19
391.186	220.19
391.411	213.19
391.636	229.19
391.86	207.19
392.085	220.19
392.31	224.19
392.534	213.19
392.759	222.19
392.984	218.19
393.208	207.19
393.433	199.19
393.658	231.19
393.882	215.19
394.107	217.19
394.331	203.19
394.556	205.19
394.78	217.19
395.005	213.19
395.229	227.19
395.454	220.19
395.678	224.19
395.903	236.19
396.127	231.19
396.352	233.19
396.576	226.19
396.801	223.19
397.025	222.19
397.249	223.19
397.474	215.19
397.698	229.19
397.922	227.19
398.147	250.19
398.371	227.19
398.595	228.19
398.82	220.19
399.044	252.19
399.268	256.19
399.492	261.19
399.717	282.19
399.941	283.19
400.165	260.19
400.389	287.19
400.613	259.19
400.837	262.19
401.062	244.19
401.286	243.19
401.51	260.19
401.734	245.19
401.958	246.19
402.182	241.19
402.406	260.19
402.63	268.19
402.854	234.19
403.078	263.19
403.302	260.19
403.526	249.19
403.75	246.19
403.974	254.19
404.198	239.19
404.422	247.19
404.645	253.19
404.869	254.19
405.093	259.19
405.317	272.19
405.541	279.19
405.765	275.19
405.988	266.19
406.212	260.19
406.436	288.19
406.66	291.19
406.883	277.19
407.107	280.19
407.331	292.19
407.555	308.19
407.778	315.19
408.002	299.19
408.226	275.19
408.449	266.19
408.673	270.19
408.896	271.19
409.12	296.19
409.344	281.19
409.567	247.19
409.791	258.19
410.014	240.19
410.238	243.19
410.461	263.19
410.685	246.19
410.908	249.19
411.132	271.19
411.355	293.19
411.578	285.19
411.802	243.19
412.025	264.19
412.249	263.19
412.472	273.19
412.695	273.19
412.919	256.19
413.142	252.19
413.365	241.19
413.589	247.19
413.812	238.19
414.035	235.19
414.258	254.19
414.482	245.19
414.705	242.19
414.928	218.19
415.151	232.19
415.374	230.19
415.597	238.19
415.821	235.19
416.044	236.19
416.267	246.19
416.49	232.19
416.713	229.19
416.936	224.19
417.159	227.19
417.382	236.19
417.605	247.19
417.828	243.19
418.051	254.19
418.274	236.19
418.497	239.19
418.72	232.19
418.943	232.19
419.166	251.19
419.389	264.19
419.611	255.19
419.834	260.19
420.057	263.19
420.28	257.19
420.503	237.19
420.726	248.19
420.948	262.19
421.171	269.19
421.394	292.19
421.617	252.19
421.839	248.19
422.062	268.19
422.285	259.19
422.507	283.19
422.73	304.19
422.953	281.19
423.175	260.19
423.398	244.19
423.621	250.19
423.843	273.19
424.066	254.19
424.288	262.19
424.511	273.19
424.733	282.19
424.956	325.19
425.178	311.19
425.401	311.19
425.623	317.19
425.846	291.19
426.068	253.19
426.291	248.19
426.513	265.19
426.735	258.19
426.958	283.19
427.18	328.19
427.402	365.19
427.625	395.19
427.847	351.19
428.069	314.19
428.292	283.19
428.514	256.19
428.736	239.19
428.958	251.19
429.181	247.19
429.403	240.19
429.625	244.19
429.847	259.19
430.069	293.19
430.292	273.19
430.514	240.19
430.736	236.19
430.958	222.19
431.18	225.19
431.402	241.19
431.624	220.19
431.846	237.19
432.068	234.19
432.29	253.19
432.512	232.19
432.734	237.19
432.956	233.19
433.178	251.19
433.4	222.19
433.622	248.19
433.844	259.19
434.066	243.19
434.287	234.19
434.509	236.19
434.731	230.19
434.953	241.19
435.175	245.19
435.397	259.19
435.618	251.19
435.84	285.19
436.062	315.19
436.284	329.19
436.505	276.19
436.727	254.19
436.949	261.19
437.17	248.19
437.392	256.19
437.614	249.19
437.835	269.19
438.057	313.19
438.278	343.19
438.5	341.19
438.721	383.19
438.943	371.19
439.165	294.19
439.386	269.19
439.608	270.19
439.829	277.19
440.05	266.19
440.272	295.19
440.493	279.19
440.715	262.19
440.936	244.19
441.158	249.19
441.379	248.19
441.6	260.19
441.822	245.19
442.043	287.19
442.264	320.19
442.486	330.19
442.707	267.19
442.928	281.19
443.149	280.19
443.371	268.19
443.592	291.19
443.813	318.19
444.034	352.19
444.255	281.19
444.476	269.19
444.698	261.19
444.919	264.19
445.14	352.19
445.361	320.19
445.582	298.19
445.803	315.19
446.024	353.19
446.245	332.19
446.466	311.19
446.687	259.19
446.908	240.19
447.129	243.19
447.35	231.19
447.571	245.19
447.792	240.19
448.013	252.19
448.234	261.19
448.455	270.19
448.675	315.19
448.896	354.19
449.117	297.19
449.338	289.19
449.559	333.19
449.779	373.19
450	301.19
450.221	255.19
450.442	243.19
450.662	237.19
450.883	232.19
451.104	250.19
451.324	239.19
451.545	227.19
451.766	239.19
451.986	229.19
452.207	242.19
452.428	233.19
452.648	229.19
452.869	232.19
453.089	234.19
453.31	215.19
453.53	230.19
453.751	228.19
453.971	242.19
454.192	239.19
454.412	208.19
454.633	208.19
454.853	235.19
455.073	223.19
455.294	233.19
455.514	264.19
455.734	256.19
455.955	229.19
456.175	201.19
456.395	219.19
456.616	199.19
456.836	215.19
457.056	202.19
457.276	205.19
457.497	208.19
457.717	197.19
457.937	212.19
458.157	226.19
458.377	220.19
458.598	222.19
458.818	262.19
459.038	296.19
459.258	302.19
459.478	240.19
459.698	227.19
459.918	237.19
460.138	244.19
460.358	250.19
460.578	227.19
460.798	239.19
461.018	221.19
461.238	253.19
461.458	236.19
461.678	236.19
461.898	225.19
462.118	231.19
462.338	232.19
462.558	249.19
462.777	239.19
462.997	250.19
463.217	260.19
463.437	254.19
463.657	245.19
463.876	256.19
464.096	224.19
464.316	235.19
464.536	254.19
464.755	257.19
464.975	253.19
465.195	272.19
465.414	311.19
465.634	263.19
465.854	255.19
466.073	230.19
466.293	235.19
466.512	220.19
466.732	228.19
466.951	219.19
467.171	235.19
467.391	220.19
467.61	229.19
467.829	233.19
468.049	228.19
468.268	244.19
468.488	223.19
468.707	236.19
468.927	201.19
469.146	229.19
469.365	233.19
469.585	225.19
469.804	230.19
470.023	234.19
470.243	223.19
470.462	236.19
470.681	261.19
470.901	244.19
471.12	221.19
471.339	222.19
471.558	241.19
471.777	250.19
471.997	231.19
472.216	235.19
472.435	263.19
472.654	243.19
472.873	212.19
473.092	219.19
473.311	232.19
473.53	226.19
473.749	232.19
473.968	251.19
474.187	296.19
474.406	300.19
474.625	250.19
474.844	229.19
475.063	224.19
475.282	237.19
475.501	217.19
475.72	252.19
475.939	236.19
476.158	233.19
476.377	228.19
476.596	219.19
476.814	235.19
477.033	254.19
477.252	236.19
477.471	237.19
477.69	236.19
477.908	252.19
478.127	238.19
478.346	239.19
478.564	244.19
478.783	262.19
479.002	249.19
479.22	264.19
479.439	272.19
479.658	251.19
479.876	289.19
480.095	279.19
480.313	278.19
480.532	285.19
480.751	282.19
480.969	279.19
481.188	340.19
481.406	349.19
481.624	315.19
481.843	272.19
482.061	260.19
482.28	276.19
482.498	239.19
482.717	251.19
482.935	277.19
483.153	251.19
483.372	264.19
483.59	255.19
483.808	253.19
484.027	270.19
484.245	286.19
484.463	269.19
484.681	284.19
484.9	259.19
485.118	279.19
485.336	265.19
485.554	250.19
485.772	268.19
485.99	271.19
486.209	265.19
486.427	295.19
486.645	283.19
486.863	292.19
487.081	294.19
487.299	277.19
487.517	286.19
487.735	277.19
487.953	301.19
488.171	289.19
488.389	275.19
488.607	305.19
488.825	276.19
489.043	286.19
489.261	274.19
489.479	302.19
489.696	289.19
489.914	274.19
490.132	300.19
490.35	324.19
490.568	309.19
490.786	315.19
491.003	298.19
491.221	315.19
491.439	315.19
491.657	322.19
491.874	319.19
492.092	336.19
492.31	322.19
492.527	328.19
492.745	327.19
492.963	337.19
493.18	314.19
493.398	315.19
493.615	336.19
493.833	325.19
494.05	332.19
494.268	331.19
494.485	336.19
494.703	345.19
494.92	329.19
495.138	329.19
495.355	317.19
495.573	336.19
495.79	358.19
496.008	332.19
496.225	326.19
496.442	323.19
496.66	341.19
496.877	323.19
497.094	328.19
497.312	325.19
497.529	362.19
497.746	330.19
497.963	334.19
498.181	353.19
498.398	345.19
498.615	346.19
498.832	356.19
499.049	352.19
499.267	389.19
499.484	379.19
499.701	375.19
499.918	409.19
500.135	412.19
500.352	447.19
500.569	418.19
500.786	440.19
501.003	428.19
501.22	427.19
501.437	413.19
501.654	432.19
501.871	398.19
502.088	387.19
502.305	351.19
502.522	360.19
502.739	347.19
502.956	337.19
503.172	335.19
503.389	332.19
503.606	339.19
503.823	345.19
504.04	319.19
504.256	310.19
504.473	331.19
504.69	302.19
504.907	317.19
505.123	315.19
505.34	321.19
505.557	300.19
505.773	315.19
505.99	314.19
506.207	322.19
506.423	320.19
506.64	311.19
506.856	320.19
507.073	307.19
507.289	315.19
507.506	309.19
507.722	302.19
507.939	320.19
508.155	317.19
508.372	309.19
508.588	311.19
508.805	285.19
509.021	293.19
509.238	296.19
509.454	323.19
509.67	295.19
509.887	313.19
510.103	309.19
510.319	290.19
510.536	391.19
510.752	681.19
510.968	510.19
511.184	311.19
511.401	276.19
511.617	265.19
511.833	280.19
512.049	286.19
512.265	287.19
512.481	283.19
512.698	273.19
512.914	277.19
513.13	287.19
513.346	267.19
513.562	294.19
513.778	275.19
513.994	280.19
514.21	296.19
514.426	300.19
514.642	318.19
514.858	329.19
515.074	364.19
515.29	451.19
515.506	704.19
515.721	560.19
515.937	358.19
516.153	315.19
516.369	312.19
516.585	293.19
516.801	295.19
517.016	289.19
517.232	269.19
517.448	281.19
517.664	287.19
517.879	272.19
518.095	274.19
518.311	279.19
518.527	283.19
518.742	292.19
518.958	279.19
519.173	271.19
519.389	280.19
519.605	280.19
519.82	277.19
520.036	265.19
520.251	312.19
520.467	302.19
520.682	309.19
520.898	309.19
521.113	329.19
521.329	345.19
521.544	381.19
521.76	526.19
521.975	971.19
522.19	939.19
522.406	452.19
522.621	339.19
522.836	307.19
523.052	278.19
523.267	271.19
523.482	265.19
523.698	260.19
523.913	245.19
524.128	261.19
524.343	267.19
524.559	230.19
524.774	221.19
524.989	234.19
525.204	254.19
525.419	247.19
525.634	241.19
525.849	228.19
526.064	232.19
526.28	236.19
526.495	238.19
526.71	247.19
526.925	228.19
527.14	226.19
527.355	257.19
527.57	243.19
527.785	247.19
527.999	228.19
528.214	223.19
528.429	219.19
528.644	233.19
528.859	236.19
529.074	234.19
529.289	235.19
529.503	320.19
529.718	295.19
529.933	246.19
530.148	238.19
530.363	245.19
530.577	250.19
530.792	210.19
531.007	236.19
531.221	223.19
531.436	239.19
531.651	227.19
531.865	217.19
532.08	208.19
532.295	229.19
532.509	238.19
532.724	223.19
532.938	217.19
533.153	211.19
533.367	209.19
533.582	219.19
533.796	219.19
534.011	220.19
534.225	233.19
534.44	215.19
534.654	218.19
534.868	229.19
535.083	212.19
535.297	230.19
535.511	241.19
535.726	233.19
535.94	240.19
536.154	243.19
536.369	228.19
536.583	203.19
536.797	216.19
537.011	218.19
537.225	231.19
537.44	221.19
537.654	216.19
537.868	211.19
538.082	211.19
538.296	204.19
538.51	195.19
538.724	215.19
538.938	231.19
539.153	233.19
539.367	220.19
539.581	216.19
539.795	230.19
540.009	217.19
540.222	229.19
540.436	229.19
540.65	224.19
540.864	221.19
541.078	209.19
541.292	221.19
541.506	227.19
541.72	227.19
541.934	218.19
542.147	216.19
542.361	233.19
542.575	226.19
542.789	214.19
543.002	206.19
543.216	235.19
543.43	230.19
543.644	239.19
543.857	229.19
544.071	228.19
544.285	216.19
544.498	220.19
544.712	210.19
544.925	223.19
545.139	224.19
545.352	235.19
545.566	225.19
545.779	232.19
545.993	217.19
546.206	253.19
546.42	233.19
546.633	225.19
546.847	209.19
547.06	210.19
547.274	216.19
547.487	231.19
547.7	244.19
547.914	211.19
548.127	227.19
548.34	204.19
548.554	207.19
548.767	214.19
548.98	227.19
549.193	220.19
549.407	236.19
549.62	207.19
549.833	205.19
550.046	209.19
550.259	203.19
550.473	203.19
550.686	214.19
550.899	203.19
551.112	197.19
551.325	204.19
551.538	210.19
551.751	197.19
551.964	209.19
552.177	202.19
552.39	194.19
552.603	216.19
552.816	222.19
553.029	221.19
553.242	223.19
553.455	217.19
553.667	214.19
553.88	228.19
554.093	216.19
554.306	220.19
554.519	205.19
554.732	215.19
554.944	221.19
555.157	201.19
555.37	202.19
555.583	199.19
555.795	204.19
556.008	209.19
556.221	199.19
556.433	209.19
556.646	203.19
556.859	207.19
557.071	200.19
557.284	200.19
557.496	204.19
557.709	197.19
557.921	208.19
558.134	204.19
558.346	182.19
558.559	205.19
558.771	187.19
558.984	196.19
559.196	204.19
559.409	199.19
559.621	206.19
559.833	201.19
560.046	195.19
560.258	205.19
560.47	209.19
560.683	205.19
560.895	200.19
561.107	204.19
561.32	190.19
561.532	195.19
561.744	184.19
561.956	204.19
562.168	195.19
562.381	193.19
562.593	203.19
562.805	205.19
563.017	199.19
563.229	191.19
563.441	185.19
563.653	190.19
563.865	185.19
564.077	186.19
564.289	193.19
564.501	201.19
564.713	189.19
564.925	200.19
565.137	195.19
565.349	189.19
565.561	206.19
565.773	213.19
565.985	200.19
566.197	208.19
566.408	213.19
566.62	208.19
566.832	229.19
567.044	223.19
567.255	218.19
567.467	214.19
567.679	225.19
567.891	245.19
568.102	237.19
568.314	224.19
568.526	217.19
568.737	233.19
568.949	209.19
569.161	202.19
569.372	210.19
569.584	217.19
569.795	215.19
570.007	217.19
570.218	237.19
570.43	212.19
570.641	191.19
570.853	194.19
571.064	206.19
571.276	193.19
571.487	172.19
571.698	181.19
571.91	197.19
572.121	176.19
572.333	182.19
572.544	174.19
572.755	172.19
572.966	184.19
573.178	173.19
573.389	174.19
573.6	176.19
573.811	179.19
574.023	171.19
574.234	151.19
574.445	171.19
574.656	163.19
574.867	171.19
575.078	170.19
575.289	169.19
575.501	167.19
575.712	173.19
575.923	164.19
576.134	161.19
576.345	161.19
576.556	156.19
576.767	170.19
576.978	168.19
577.188	176.19
577.399	165.19
577.61	175.19
577.821	166.19
578.032	173.19
578.243	208.19
578.454	343.19
578.665	216.19
578.875	171.19
579.086	157.19
579.297	141.19
579.508	157.19
579.718	154.19
579.929	173.19
580.14	145.19
580.35	150.19
580.561	165.19
580.772	156.19
580.982	160.19
581.193	153.19
581.403	162.19
581.614	156.19
581.825	155.19
582.035	165.19
582.246	165.19
582.456	149.19
582.667	162.19
582.877	176.19
583.087	165.19
583.298	156.19
583.508	164.19
583.719	165.19
583.929	162.19
584.139	164.19
584.35	170.19
584.56	147.19
584.77	159.19
584.981	145.19
585.191	152.19
585.401	158.19
585.611	158.19
585.821	155.19
586.032	169.19
586.242	170.19
586.452	156.19
586.662	156.19
586.872	155.19
587.082	157.19
587.292	148.19
587.502	155.19
587.713	176.19
587.923	157.19
588.133	149.19
588.343	176.19
588.553	154.19
588.762	169.19
588.972	173.19
589.182	188.19
589.392	193.19
589.602	159.19
589.812	183.19
590.022	182.19
590.232	166.19
590.441	159.19
590.651	157.19
590.861	152.19
591.071	164.19
591.281	163.19
591.49	153.19
591.7	155.19
591.91	161.19
592.119	147.19
592.329	165.19
592.539	169.19
592.748	168.19
592.958	167.19
593.167	155.19
593.377	165.19
593.587	167.19
593.796	157.19
594.006	173.19
594.215	156.19
594.424	153.19
594.634	166.19
594.843	157.19
595.053	160.19
595.262	142.19
595.472	153.19
595.681	165.19
595.89	155.19
596.1	155.19
596.309	156.19
596.518	142.19
596.727	166.19
596.937	152.19
597.146	163.19
597.355	163.19
597.564	158.19
597.774	148.19
597.983	158.19
598.192	133.19
598.401	148.19
598.61	142.19
598.819	157.19
599.028	144.19
599.237	146.19
599.446	143.19
599.655	161.19
599.864	153.19
600.073	127.19
600.282	144.19
600.491	149.19
600.7	143.19
600.909	155.19
601.118	129.19
601.327	150.19
601.536	157.19
601.745	140.19
601.953	149.19
602.162	153.19
602.371	148.19
602.58	131.19
602.789	151.19
602.997	148.19
603.206	131.19
603.415	134.19
603.623	124.19
603.832	150.19
604.041	128.19
604.249	126.19
604.458	146.19
604.666	127.19
604.875	135.19
605.084	133.19
605.292	137.19
605.501	144.19
605.709	150.19
605.918	146.19
606.126	139.19
606.334	135.19
606.543	140.19
606.751	145.19
606.96	137.19
607.168	146.19
607.376	138.19
607.585	158.19
607.793	128.19
608.001	135.19
608.21	146.19
608.418	139.19
608.626	136.19
608.834	145.19
609.043	141.19
609.251	145.19
609.459	140.19
609.667	141.19
609.875	136.19
610.083	145.19
610.291	152.19
610.499	137.19
610.707	151.19
610.916	136.19
611.124	153.19
611.332	149.19
611.54	160.19
611.748	153.19
611.955	151.19
612.163	137.19
612.371	149.19
612.579	134.19
612.787	139.19
612.995	134.19
613.203	135.19
613.411	127.19
613.618	145.19
613.826	155.19
614.034	143.19
614.242	140.19
614.449	135.19
614.657	132.19
614.865	141.19
615.072	138.19
615.28	153.19
615.488	142.19
615.695	135.19
615.903	140.19
616.111	142.19
616.318	135.19
616.526	144.19
616.733	131.19
616.941	131.19
617.148	126.19
617.356	143.19
617.563	139.19
617.771	148.19
617.978	131.19
618.185	145.19
618.393	143.19
618.6	131.19
618.807	146.19
619.015	134.19
619.222	143.19
619.429	138.19
619.637	140.19
619.844	135.19
620.051	127.19
620.258	135.19
620.466	143.19
620.673	142.19
620.88	130.19
621.087	134.19
621.294	130.19
621.501	126.19
621.708	120.19
621.915	141.19
622.122	134.19
622.329	145.19
622.536	136.19
622.743	122.19
622.95	144.19
623.157	143.19
623.364	142.19
623.571	131.19
623.778	121.19
623.985	137.19
624.192	134.19
624.399	131.19
624.606	134.19
624.812	149.19
625.019	129.19
625.226	109.19
625.433	126.19
625.639	121.19
625.846	131.19
626.053	143.19
626.259	121.19
626.466	117.19
626.673	122.19
626.879	125.19
627.086	139.19
627.293	135.19
627.499	132.19
627.706	127.19
627.912	116.19
628.119	131.19
628.325	130.19
628.532	126.19
628.738	124.19
628.945	124.19
629.151	125.19
629.357	128.19
629.564	131.19
629.77	123.19
629.976	123.19
630.183	119.19
630.389	120.19
630.595	122.19
630.802	125.19
631.008	125.19
631.214	120.19
631.42	125.19
631.627	131.19
631.833	132.19
632.039	135.19
632.245	119.19
632.451	122.19
632.657	124.19
632.863	117.19
633.069	119.19
633.275	121.19
633.481	121.19
633.688	135.19
633.893	129.19
634.099	134.19
634.305	132.19
634.511	127.19
634.717	131.19
634.923	121.19
635.129	108.19
635.335	123.19
635.541	123.19
635.747	117.19
635.952	126.19
636.158	137.19
636.364	131.19
636.57	129.19
636.775	123.19
636.981	112.19
637.187	106.19
637.392	107.19
637.598	125.19
637.804	113.19
638.009	127.19
638.215	108.19
638.421	103.19
638.626	112.19
638.832	124.19
639.037	124.19
639.243	120.19
639.448	122.19
639.654	124.19
639.859	109.19
640.065	110.19
640.27	102.19
640.475	123.19
640.681	102.19
640.886	109.19
641.091	117.19
641.297	125.19
641.502	115.19
641.707	131.19
641.913	128.19
642.118	120.19
642.323	111.19
642.528	117.19
642.733	138.19
642.939	120.19
643.144	111.19
643.349	129.19
643.554	110.19
643.759	101.19
643.964	98.19
644.169	130.19
644.374	125.19
644.579	132.19
644.784	123.19
644.989	115.19
645.194	113.19
645.399	116.19
645.604	126.19
645.809	132.19
646.014	122.19
646.219	116.19
646.423	104.19
646.628	109.19
646.833	112.19
647.038	118.19
647.243	125.19
647.447	119.19
647.652	123.19
647.857	105.19
648.062	120.19
648.266	115.19
648.471	116.19
648.676	112.19
648.88	121.19
649.085	129.19
649.289	118.19
649.494	131.19
649.698	123.19
649.903	120.19
650.107	112.19
650.312	122.19
650.516	113.19
650.721	115.19
650.925	113.19
651.13	107.19
651.334	119.19
651.539	120.19
651.743	123.19
651.947	116.19
652.152	91.19
652.356	110.19
652.56	112.19
652.764	117.19
652.969	112.19
653.173	115.19
653.377	106.19
653.581	103.19
653.785	119.19
653.99	96.19
654.194	108.19
654.398	99.19
654.602	101.19
654.806	112.19
655.01	103.19
655.214	105.19
655.418	109.19
655.622	113.19
655.826	108.19
656.03	122.19
656.234	109.19
656.438	107.19
656.642	117.19
656.846	123.19
657.049	115.19
657.253	115.19
657.457	97.19
657.661	109.19
657.865	102.19
658.068	107.19
658.272	111.19
658.476	96.19
658.68	79.19
658.883	92.19
659.087	101.19
659.291	85.19
659.494	88.19
659.698	87.19
659.901	94.19
660.105	87.19
660.309	92.19
660.512	84.19
660.716	102.19
660.919	77.19
661.123	86.19
661.326	87.19
661.53	93.19
661.733	77.19
661.936	83.19
662.14	88.19
662.343	88.19
662.546	99.19
662.75	87.19
662.953	88.19
663.156	90.19
663.36	79.19
663.563	76.19
663.766	91.19
663.969	91.19
664.173	80.19
664.376	82.19
664.579	79.19
664.782	90.19
664.985	83.19
665.188	67.19
665.391	75.19
665.594	77.19
665.797	79.19
666	80.19
666.203	88.19
666.406	79.19
666.609	87.19
666.812	83.19
667.015	87.19
667.218	87.19
667.421	77.19
667.624	77.19
667.827	84.19
668.03	80.19
668.232	93.19
668.435	88.19
668.638	81.19
668.841	75.19
669.043	68.19
669.246	79.19
669.449	97.19
669.651	85.19
669.854	81.19
670.057	99.19
670.259	88.19
670.462	95.19
670.665	92.19
670.867	87.19
671.07	81.19
671.272	86.19
671.475	90.19
671.677	83.19
671.88	101.19
672.082	84.19
672.284	84.19
672.487	82.19
672.689	92.19
672.892	94.19
