Data from 1966.PennyLincolnUp.Lamp.En5.5.200Scan.071719.P1._HRD10591_14-13-53-913.txt Node
Date: Thu Jul 18 14:13:53 EDT 2019
User: cochatt
Spectrometer: HR+D1059
Trigger mode: 1
Integration Time (sec): 1.000000E-1
Scans to average: 1
Electric dark correction enabled: true
Nonlinearity correction enabled: false
Boxcar width: 0
XAxis mode: Wavelengths
Number of Pixels in Spectrum: 2048
>>>>>Begin Spectral Data<<<<<
223.165	-11.81
223.4	-11.81
223.635	-11.81
223.869	-27.81
224.104	-7.81
224.338	-2.81
224.573	-14.81
224.808	8.19
225.042	-17.81
225.277	-11.81
225.511	-3.81
225.746	-2.81
225.98	-2.81
226.215	18.19
226.449	22.19
226.683	22.19
226.918	19.19
227.152	14.19
227.387	27.19
227.621	28.19
227.856	48.19
228.09	39.19
228.324	54.19
228.559	57.19
228.793	65.19
229.027	75.19
229.262	76.19
229.496	81.19
229.73	88.19
229.964	106.19
230.199	111.19
230.433	93.19
230.667	94.19
230.901	91.19
231.136	92.19
231.37	93.19
231.604	94.19
231.838	81.19
232.072	90.19
232.306	86.19
232.541	89.19
232.775	95.19
233.009	106.19
233.243	109.19
233.477	106.19
233.711	108.19
233.945	108.19
234.179	95.19
234.413	97.19
234.647	97.19
234.881	114.19
235.115	107.19
235.349	100.19
235.583	90.19
235.817	94.19
236.051	95.19
236.285	102.19
236.519	116.19
236.753	97.19
236.987	107.19
237.221	113.19
237.455	157.19
237.689	125.19
237.922	96.19
238.156	108.19
238.39	91.19
238.624	93.19
238.858	89.19
239.091	95.19
239.325	91.19
239.559	112.19
239.793	109.19
240.027	104.19
240.26	93.19
240.494	125.19
240.728	115.19
240.961	115.19
241.195	96.19
241.429	112.19
241.662	124.19
241.896	106.19
242.13	98.19
242.363	107.19
242.597	104.19
242.83	115.19
243.064	102.19
243.298	90.19
243.531	100.19
243.765	118.19
243.998	107.19
244.232	106.19
244.465	108.19
244.699	94.19
244.932	117.19
245.166	116.19
245.399	100.19
245.633	105.19
245.866	108.19
246.099	92.19
246.333	113.19
246.566	120.19
246.8	108.19
247.033	107.19
247.266	117.19
247.5	117.19
247.733	130.19
247.966	126.19
248.2	101.19
248.433	120.19
248.666	112.19
248.899	127.19
249.133	144.19
249.366	126.19
249.599	142.19
249.832	126.19
250.066	125.19
250.299	119.19
250.532	136.19
250.765	130.19
250.998	130.19
251.231	144.19
251.465	146.19
251.698	130.19
251.931	129.19
252.164	131.19
252.397	130.19
252.63	119.19
252.863	132.19
253.096	125.19
253.329	149.19
253.562	131.19
253.795	132.19
254.028	144.19
254.261	132.19
254.494	148.19
254.727	178.19
254.96	184.19
255.193	156.19
255.426	146.19
255.659	142.19
255.892	137.19
256.124	157.19
256.357	143.19
256.59	142.19
256.823	128.19
257.056	140.19
257.289	137.19
257.521	138.19
257.754	139.19
257.987	122.19
258.22	144.19
258.452	148.19
258.685	141.19
258.918	126.19
259.151	147.19
259.383	126.19
259.616	149.19
259.849	140.19
260.081	152.19
260.314	166.19
260.547	154.19
260.779	160.19
261.012	164.19
261.244	134.19
261.477	153.19
261.71	134.19
261.942	144.19
262.175	151.19
262.407	143.19
262.64	126.19
262.872	129.19
263.105	140.19
263.337	134.19
263.57	120.19
263.802	140.19
264.035	126.19
264.267	139.19
264.499	141.19
264.732	130.19
264.964	135.19
265.197	132.19
265.429	138.19
265.661	141.19
265.894	147.19
266.126	135.19
266.358	140.19
266.591	133.19
266.823	140.19
267.055	129.19
267.287	155.19
267.52	138.19
267.752	149.19
267.984	143.19
268.216	152.19
268.448	149.19
268.681	150.19
268.913	167.19
269.145	158.19
269.377	168.19
269.609	165.19
269.841	158.19
270.073	165.19
270.306	181.19
270.538	174.19
270.77	180.19
271.002	182.19
271.234	164.19
271.466	176.19
271.698	176.19
271.93	195.19
272.162	190.19
272.394	194.19
272.626	160.19
272.858	161.19
273.09	176.19
273.322	160.19
273.553	148.19
273.785	156.19
274.017	152.19
274.249	156.19
274.481	162.19
274.713	163.19
274.945	163.19
275.176	152.19
275.408	166.19
275.64	146.19
275.872	160.19
276.104	159.19
276.335	168.19
276.567	158.19
276.799	170.19
277.031	180.19
277.262	190.19
277.494	180.19
277.726	177.19
277.957	178.19
278.189	164.19
278.421	147.19
278.652	153.19
278.884	152.19
279.115	163.19
279.347	143.19
279.579	147.19
279.81	160.19
280.042	162.19
280.273	152.19
280.505	169.19
280.736	164.19
280.968	154.19
281.199	163.19
281.431	156.19
281.662	176.19
281.894	142.19
282.125	162.19
282.356	195.19
282.588	190.19
282.819	186.19
283.051	184.19
283.282	164.19
283.513	177.19
283.745	154.19
283.976	171.19
284.207	157.19
284.439	171.19
284.67	166.19
284.901	156.19
285.132	154.19
285.364	167.19
285.595	156.19
285.826	156.19
286.057	156.19
286.288	159.19
286.52	156.19
286.751	185.19
286.982	166.19
287.213	164.19
287.444	181.19
287.675	168.19
287.906	172.19
288.138	167.19
288.369	184.19
288.6	192.19
288.831	180.19
289.062	183.19
289.293	183.19
289.524	160.19
289.755	153.19
289.986	152.19
290.217	162.19
290.448	156.19
290.679	163.19
290.91	169.19
291.141	158.19
291.371	169.19
291.602	169.19
291.833	161.19
292.064	175.19
292.295	183.19
292.526	165.19
292.757	174.19
292.987	182.19
293.218	170.19
293.449	169.19
293.68	173.19
293.91	157.19
294.141	162.19
294.372	158.19
294.603	187.19
294.833	173.19
295.064	177.19
295.295	175.19
295.525	168.19
295.756	179.19
295.987	192.19
296.217	179.19
296.448	193.19
296.679	184.19
296.909	177.19
297.14	173.19
297.37	189.19
297.601	182.19
297.831	184.19
298.062	174.19
298.292	160.19
298.523	186.19
298.753	186.19
298.984	181.19
299.214	190.19
299.445	187.19
299.675	188.19
299.905	175.19
300.136	181.19
300.366	186.19
300.597	150.19
300.827	180.19
301.057	186.19
301.288	197.19
301.518	195.19
301.748	206.19
301.979	184.19
302.209	180.19
302.439	192.19
302.669	180.19
302.9	182.19
303.13	190.19
303.36	185.19
303.59	180.19
303.82	193.19
304.051	193.19
304.281	188.19
304.511	186.19
304.741	179.19
304.971	184.19
305.201	181.19
305.431	207.19
305.661	185.19
305.891	215.19
306.121	175.19
306.352	188.19
306.582	192.19
306.812	197.19
307.042	192.19
307.272	204.19
307.502	192.19
307.731	185.19
307.961	175.19
308.191	182.19
308.421	203.19
308.651	184.19
308.881	184.19
309.111	196.19
309.341	189.19
309.571	189.19
309.8	187.19
310.03	205.19
310.26	216.19
310.49	218.19
310.72	182.19
310.949	212.19
311.179	221.19
311.409	211.19
311.639	208.19
311.868	203.19
312.098	215.19
312.328	212.19
312.557	219.19
312.787	230.19
313.017	229.19
313.246	216.19
313.476	200.19
313.706	200.19
313.935	215.19
314.165	192.19
314.394	228.19
314.624	225.19
314.853	221.19
315.083	201.19
315.312	186.19
315.542	206.19
315.771	208.19
316.001	185.19
316.23	201.19
316.46	200.19
316.689	204.19
316.919	203.19
317.148	200.19
317.377	206.19
317.607	194.19
317.836	196.19
318.065	190.19
318.295	206.19
318.524	197.19
318.753	204.19
318.983	210.19
319.212	199.19
319.441	212.19
319.67	218.19
319.9	223.19
320.129	221.19
320.358	205.19
320.587	204.19
320.816	208.19
321.046	213.19
321.275	220.19
321.504	209.19
321.733	198.19
321.962	222.19
322.191	233.19
322.42	225.19
322.649	226.19
322.878	235.19
323.108	217.19
323.337	254.19
323.566	260.19
323.795	284.19
324.024	294.19
324.253	357.19
324.482	491.19
324.71	742.19
324.939	993.19
325.168	836.19
325.397	399.19
325.626	302.19
325.855	278.19
326.084	253.19
326.313	260.19
326.542	268.19
326.77	291.19
326.999	337.19
327.228	462.19
327.457	648.19
327.686	729.19
327.914	500.19
328.143	347.19
328.372	326.19
328.6	319.19
328.829	293.19
329.058	321.19
329.287	317.19
329.515	289.19
329.744	272.19
329.972	263.19
330.201	292.19
330.43	299.19
330.658	338.19
330.887	337.19
331.115	314.19
331.344	271.19
331.572	270.19
331.801	253.19
332.03	271.19
332.258	256.19
332.486	242.19
332.715	242.19
332.943	247.19
333.172	248.19
333.4	244.19
333.629	248.19
333.857	249.19
334.085	277.19
334.314	289.19
334.542	293.19
334.771	303.19
334.999	282.19
335.227	246.19
335.455	246.19
335.684	240.19
335.912	256.19
336.14	240.19
336.369	241.19
336.597	233.19
336.825	246.19
337.053	234.19
337.281	250.19
337.51	217.19
337.738	233.19
337.966	216.19
338.194	248.19
338.422	246.19
338.65	253.19
338.878	228.19
339.106	222.19
339.334	221.19
339.562	221.19
339.79	235.19
340.018	218.19
340.246	231.19
340.474	236.19
340.702	231.19
340.93	222.19
341.158	235.19
341.386	224.19
341.614	233.19
341.842	222.19
342.07	229.19
342.298	236.19
342.526	214.19
342.754	220.19
342.981	216.19
343.209	221.19
343.437	232.19
343.665	225.19
343.893	241.19
344.12	227.19
344.348	231.19
344.576	232.19
344.804	224.19
345.031	231.19
345.259	231.19
345.487	232.19
345.714	237.19
345.942	228.19
346.17	219.19
346.397	220.19
346.625	227.19
346.853	226.19
347.08	222.19
347.308	230.19
347.535	245.19
347.763	229.19
347.99	216.19
348.218	222.19
348.445	228.19
348.673	237.19
348.9	234.19
349.128	222.19
349.355	209.19
349.583	212.19
349.81	208.19
350.037	212.19
350.265	226.19
350.492	197.19
350.72	206.19
350.947	230.19
351.174	214.19
351.402	215.19
351.629	238.19
351.856	220.19
352.083	233.19
352.311	212.19
352.538	220.19
352.765	234.19
352.992	222.19
353.22	220.19
353.447	220.19
353.674	228.19
353.901	227.19
354.128	234.19
354.355	189.19
354.583	205.19
354.81	198.19
355.037	226.19
355.264	203.19
355.491	200.19
355.718	200.19
355.945	205.19
356.172	211.19
356.399	197.19
356.626	207.19
356.853	200.19
357.08	203.19
357.307	202.19
357.534	208.19
357.761	210.19
357.988	221.19
358.215	198.19
358.441	206.19
358.668	202.19
358.895	201.19
359.122	193.19
359.349	231.19
359.576	225.19
359.802	225.19
360.029	265.19
360.256	241.19
360.483	234.19
360.709	224.19
360.936	216.19
361.163	220.19
361.39	247.19
361.616	213.19
361.843	213.19
362.07	230.19
362.296	228.19
362.523	222.19
362.749	225.19
362.976	199.19
363.203	217.19
363.429	211.19
363.656	218.19
363.882	224.19
364.109	209.19
364.335	210.19
364.562	209.19
364.788	218.19
365.015	214.19
365.241	214.19
365.468	202.19
365.694	215.19
365.92	215.19
366.147	202.19
366.373	206.19
366.599	208.19
366.826	206.19
367.052	215.19
367.278	208.19
367.505	214.19
367.731	218.19
367.957	209.19
368.184	209.19
368.41	213.19
368.636	208.19
368.862	207.19
369.089	204.19
369.315	204.19
369.541	211.19
369.767	199.19
369.993	220.19
370.219	201.19
370.445	201.19
370.672	192.19
370.898	212.19
371.124	207.19
371.35	203.19
371.576	205.19
371.802	196.19
372.028	207.19
372.254	202.19
372.48	202.19
372.706	200.19
372.932	213.19
373.158	207.19
373.384	218.19
373.61	200.19
373.835	211.19
374.061	215.19
374.287	228.19
374.513	199.19
374.739	212.19
374.965	214.19
375.191	223.19
375.416	223.19
375.642	220.19
375.868	213.19
376.094	211.19
376.319	208.19
376.545	208.19
376.771	210.19
376.997	203.19
377.222	199.19
377.448	215.19
377.674	199.19
377.899	208.19
378.125	212.19
378.35	217.19
378.576	193.19
378.802	197.19
379.027	203.19
379.253	202.19
379.478	181.19
379.704	207.19
379.929	222.19
380.155	207.19
380.38	206.19
380.606	207.19
380.831	213.19
381.057	213.19
381.282	207.19
381.507	216.19
381.733	192.19
381.958	193.19
382.184	235.19
382.409	225.19
382.634	208.19
382.86	201.19
383.085	202.19
383.31	216.19
383.535	216.19
383.761	209.19
383.986	235.19
384.211	230.19
384.436	216.19
384.662	213.19
384.887	228.19
385.112	222.19
385.337	227.19
385.562	221.19
385.787	236.19
386.013	240.19
386.238	232.19
386.463	226.19
386.688	224.19
386.913	219.19
387.138	224.19
387.363	213.19
387.588	212.19
387.813	226.19
388.038	226.19
388.263	220.19
388.488	213.19
388.713	225.19
388.938	212.19
389.163	214.19
389.387	222.19
389.612	216.19
389.837	215.19
390.062	213.19
390.287	210.19
390.512	212.19
390.736	220.19
390.961	227.19
391.186	224.19
391.411	222.19
391.636	219.19
391.86	228.19
392.085	225.19
392.31	216.19
392.534	237.19
392.759	218.19
392.984	209.19
393.208	233.19
393.433	232.19
393.658	231.19
393.882	236.19
394.107	222.19
394.331	237.19
394.556	219.19
394.78	224.19
395.005	239.19
395.229	231.19
395.454	221.19
395.678	217.19
395.903	230.19
396.127	246.19
396.352	246.19
396.576	241.19
396.801	235.19
397.025	240.19
397.249	232.19
397.474	232.19
397.698	239.19
397.922	240.19
398.147	250.19
398.371	254.19
398.595	229.19
398.82	240.19
399.044	249.19
399.268	277.19
399.492	262.19
399.717	288.19
399.941	320.19
400.165	288.19
400.389	311.19
400.613	274.19
400.837	258.19
401.062	264.19
401.286	252.19
401.51	244.19
401.734	260.19
401.958	252.19
402.182	237.19
402.406	260.19
402.63	265.19
402.854	242.19
403.078	252.19
403.302	255.19
403.526	269.19
403.75	259.19
403.974	242.19
404.198	246.19
404.422	260.19
404.645	248.19
404.869	269.19
405.093	289.19
405.317	273.19
405.541	291.19
405.765	270.19
405.988	269.19
406.212	289.19
406.436	303.19
406.66	308.19
406.883	289.19
407.107	310.19
407.331	308.19
407.555	318.19
407.778	325.19
408.002	308.19
408.226	284.19
408.449	279.19
408.673	270.19
408.896	280.19
409.12	297.19
409.344	300.19
409.567	274.19
409.791	272.19
410.014	268.19
410.238	250.19
410.461	244.19
410.685	279.19
410.908	273.19
411.132	277.19
411.355	289.19
411.578	279.19
411.802	251.19
412.025	266.19
412.249	253.19
412.472	266.19
412.695	285.19
412.919	284.19
413.142	254.19
413.365	262.19
413.589	261.19
413.812	259.19
414.035	251.19
414.258	260.19
414.482	248.19
414.705	223.19
414.928	250.19
415.151	250.19
415.374	256.19
415.597	248.19
415.821	268.19
416.044	264.19
416.267	253.19
416.49	231.19
416.713	239.19
416.936	255.19
417.159	251.19
417.382	249.19
417.605	246.19
417.828	248.19
418.051	278.19
418.274	248.19
418.497	263.19
418.72	240.19
418.943	232.19
419.166	265.19
419.389	269.19
419.611	264.19
419.834	249.19
420.057	268.19
420.28	268.19
420.503	264.19
420.726	270.19
420.948	252.19
421.171	280.19
421.394	303.19
421.617	248.19
421.839	273.19
422.062	251.19
422.285	264.19
422.507	287.19
422.73	329.19
422.953	305.19
423.175	284.19
423.398	271.19
423.621	270.19
423.843	289.19
424.066	276.19
424.288	278.19
424.511	272.19
424.733	305.19
424.956	347.19
425.178	335.19
425.401	327.19
425.623	327.19
425.846	285.19
426.068	292.19
426.291	278.19
426.513	278.19
426.735	286.19
426.958	302.19
427.18	345.19
427.402	380.19
427.625	424.19
427.847	375.19
428.069	320.19
428.292	292.19
428.514	274.19
428.736	254.19
428.958	269.19
429.181	251.19
429.403	247.19
429.625	244.19
429.847	288.19
430.069	304.19
430.292	284.19
430.514	270.19
430.736	256.19
430.958	258.19
431.18	241.19
431.402	268.19
431.624	266.19
431.846	231.19
432.068	242.19
432.29	246.19
432.512	232.19
432.734	262.19
432.956	251.19
433.178	244.19
433.4	252.19
433.622	236.19
433.844	239.19
434.066	271.19
434.287	244.19
434.509	252.19
434.731	259.19
434.953	244.19
435.175	266.19
435.397	272.19
435.618	295.19
435.84	301.19
436.062	332.19
436.284	366.19
436.505	309.19
436.727	264.19
436.949	242.19
437.17	271.19
437.392	258.19
437.614	261.19
437.835	285.19
438.057	336.19
438.278	361.19
438.5	358.19
438.721	377.19
438.943	360.19
439.165	282.19
439.386	279.19
439.608	266.19
439.829	271.19
440.05	287.19
440.272	309.19
440.493	296.19
440.715	260.19
440.936	268.19
441.158	261.19
441.379	271.19
441.6	276.19
441.822	254.19
442.043	279.19
442.264	330.19
442.486	329.19
442.707	285.19
442.928	287.19
443.149	271.19
443.371	288.19
443.592	328.19
443.813	348.19
444.034	373.19
444.255	300.19
444.476	268.19
444.698	263.19
444.919	300.19
445.14	359.19
445.361	324.19
445.582	286.19
445.803	321.19
446.024	384.19
446.245	374.19
446.466	336.19
446.687	282.19
446.908	284.19
447.129	255.19
447.35	274.19
447.571	257.19
447.792	237.19
448.013	248.19
448.234	260.19
448.455	264.19
448.675	327.19
448.896	363.19
449.117	318.19
449.338	284.19
449.559	343.19
449.779	378.19
450	319.19
450.221	273.19
450.442	264.19
450.662	265.19
450.883	258.19
451.104	273.19
451.324	270.19
451.545	242.19
451.766	246.19
451.986	222.19
452.207	217.19
452.428	232.19
452.648	227.19
452.869	238.19
453.089	246.19
453.31	253.19
453.53	235.19
453.751	239.19
453.971	239.19
454.192	244.19
454.412	237.19
454.633	225.19
454.853	236.19
455.073	245.19
455.294	246.19
455.514	275.19
455.734	287.19
455.955	243.19
456.175	218.19
456.395	213.19
456.616	206.19
456.836	220.19
457.056	218.19
457.276	218.19
457.497	215.19
457.717	219.19
457.937	233.19
458.157	204.19
458.377	224.19
458.598	240.19
458.818	275.19
459.038	331.19
459.258	341.19
459.478	265.19
459.698	244.19
459.918	249.19
460.138	240.19
460.358	245.19
460.578	272.19
460.798	244.19
461.018	248.19
461.238	247.19
461.458	247.19
461.678	226.19
461.898	253.19
462.118	260.19
462.338	250.19
462.558	268.19
462.777	257.19
462.997	262.19
463.217	260.19
463.437	269.19
463.657	272.19
463.876	259.19
464.096	264.19
464.316	266.19
464.536	252.19
464.755	290.19
464.975	270.19
465.195	310.19
465.414	348.19
465.634	268.19
465.854	236.19
466.073	231.19
466.293	261.19
466.512	226.19
466.732	242.19
466.951	244.19
467.171	243.19
467.391	239.19
467.61	272.19
467.829	246.19
468.049	234.19
468.268	270.19
468.488	247.19
468.707	246.19
468.927	239.19
469.146	221.19
469.365	238.19
469.585	232.19
469.804	218.19
470.023	233.19
470.243	245.19
470.462	266.19
470.681	260.19
470.901	244.19
471.12	246.19
471.339	234.19
471.558	256.19
471.777	231.19
471.997	244.19
472.216	251.19
472.435	286.19
472.654	270.19
472.873	240.19
473.092	220.19
473.311	237.19
473.53	235.19
473.749	233.19
473.968	260.19
474.187	301.19
474.406	325.19
474.625	281.19
474.844	241.19
475.063	234.19
475.282	221.19
475.501	225.19
475.72	241.19
475.939	232.19
476.158	233.19
476.377	244.19
476.596	228.19
476.814	252.19
477.033	257.19
477.252	242.19
477.471	242.19
477.69	265.19
477.908	245.19
478.127	273.19
478.346	245.19
478.564	292.19
478.783	244.19
479.002	267.19
479.22	270.19
479.439	281.19
479.658	296.19
479.876	284.19
480.095	277.19
480.313	295.19
480.532	285.19
480.751	288.19
480.969	309.19
481.188	344.19
481.406	359.19
481.624	333.19
481.843	287.19
482.061	295.19
482.28	257.19
482.498	256.19
482.717	271.19
482.935	272.19
483.153	277.19
483.372	265.19
483.59	274.19
483.808	273.19
484.027	262.19
484.245	277.19
484.463	272.19
484.681	284.19
484.9	257.19
485.118	278.19
485.336	278.19
485.554	272.19
485.772	263.19
485.99	300.19
486.209	294.19
486.427	289.19
486.645	283.19
486.863	304.19
487.081	312.19
487.299	300.19
487.517	294.19
487.735	291.19
487.953	292.19
488.171	304.19
488.389	323.19
488.607	289.19
488.825	284.19
489.043	299.19
489.261	294.19
489.479	304.19
489.696	311.19
489.914	299.19
490.132	300.19
490.35	313.19
490.568	316.19
490.786	340.19
491.003	317.19
491.221	325.19
491.439	331.19
491.657	338.19
491.874	344.19
492.092	358.19
492.31	334.19
492.527	369.19
492.745	339.19
492.963	357.19
493.18	347.19
493.398	360.19
493.615	328.19
493.833	370.19
494.05	342.19
494.268	351.19
494.485	351.19
494.703	356.19
494.92	352.19
495.138	346.19
495.355	338.19
495.573	341.19
495.79	357.19
496.008	346.19
496.225	341.19
496.442	345.19
496.66	329.19
496.877	327.19
497.094	358.19
497.312	340.19
497.529	348.19
497.746	361.19
497.963	353.19
498.181	357.19
498.398	340.19
498.615	369.19
498.832	380.19
499.049	374.19
499.267	368.19
499.484	404.19
499.701	409.19
499.918	401.19
500.135	429.19
500.352	430.19
500.569	458.19
500.786	444.19
501.003	443.19
501.22	424.19
501.437	442.19
501.654	422.19
501.871	419.19
502.088	405.19
502.305	406.19
502.522	357.19
502.739	369.19
502.956	376.19
503.172	361.19
503.389	342.19
503.606	349.19
503.823	361.19
504.04	343.19
504.256	339.19
504.473	348.19
504.69	352.19
504.907	314.19
505.123	330.19
505.34	353.19
505.557	335.19
505.773	333.19
505.99	350.19
506.207	319.19
506.423	338.19
506.64	321.19
506.856	318.19
507.073	326.19
507.289	327.19
507.506	329.19
507.722	330.19
507.939	357.19
508.155	321.19
508.372	310.19
508.588	304.19
508.805	311.19
509.021	317.19
509.238	330.19
509.454	318.19
509.67	321.19
509.887	304.19
510.103	321.19
510.319	340.19
510.536	394.19
510.752	742.19
510.968	545.19
511.184	340.19
511.401	324.19
511.617	305.19
511.833	308.19
512.049	277.19
512.265	304.19
512.481	290.19
512.698	301.19
512.914	293.19
513.13	265.19
513.346	283.19
513.562	315.19
513.778	310.19
513.994	302.19
514.21	306.19
514.426	329.19
514.642	358.19
514.858	362.19
515.074	395.19
515.29	473.19
515.506	828.19
515.721	604.19
515.937	384.19
516.153	339.19
516.369	311.19
516.585	302.19
516.801	305.19
517.016	296.19
517.232	300.19
517.448	309.19
517.664	297.19
517.879	308.19
518.095	310.19
518.311	322.19
518.527	309.19
518.742	309.19
518.958	301.19
519.173	298.19
519.389	291.19
519.605	298.19
519.82	303.19
520.036	305.19
520.251	321.19
520.467	329.19
520.682	326.19
520.898	326.19
521.113	352.19
521.329	371.19
521.544	410.19
521.76	587.19
521.975	1080.19
522.19	1064.19
522.406	511.19
522.621	359.19
522.836	322.19
523.052	290.19
523.267	290.19
523.482	269.19
523.698	272.19
523.913	261.19
524.128	275.19
524.343	277.19
524.559	264.19
524.774	264.19
524.989	266.19
525.204	265.19
525.419	271.19
525.634	247.19
525.849	249.19
526.064	249.19
526.28	248.19
526.495	253.19
526.71	242.19
526.925	258.19
527.14	238.19
527.355	242.19
527.57	251.19
527.785	233.19
527.999	235.19
528.214	245.19
528.429	233.19
528.644	241.19
528.859	252.19
529.074	247.19
529.289	252.19
529.503	326.19
529.718	292.19
529.933	270.19
530.148	264.19
530.363	258.19
530.577	256.19
530.792	249.19
531.007	245.19
531.221	232.19
531.436	246.19
531.651	230.19
531.865	246.19
532.08	223.19
532.295	222.19
532.509	247.19
532.724	241.19
532.938	232.19
533.153	236.19
533.367	237.19
533.582	227.19
533.796	238.19
534.011	224.19
534.225	239.19
534.44	236.19
534.654	237.19
534.868	245.19
535.083	253.19
535.297	232.19
535.511	241.19
535.726	221.19
535.94	226.19
536.154	248.19
536.369	250.19
536.583	226.19
536.797	237.19
537.011	228.19
537.225	220.19
537.44	233.19
537.654	243.19
537.868	242.19
538.082	221.19
538.296	237.19
538.51	228.19
538.724	240.19
538.938	228.19
539.153	234.19
539.367	260.19
539.581	241.19
539.795	233.19
540.009	227.19
540.222	219.19
540.436	248.19
540.65	219.19
540.864	231.19
541.078	249.19
541.292	257.19
541.506	237.19
541.72	244.19
541.934	223.19
542.147	235.19
542.361	238.19
542.575	239.19
542.789	240.19
543.002	224.19
543.216	234.19
543.43	248.19
543.644	245.19
543.857	232.19
544.071	240.19
544.285	227.19
544.498	216.19
544.712	235.19
544.925	228.19
545.139	236.19
545.352	228.19
545.566	232.19
545.779	221.19
545.993	217.19
546.206	245.19
546.42	223.19
546.633	226.19
546.847	222.19
547.06	244.19
547.274	232.19
547.487	218.19
547.7	215.19
547.914	209.19
548.127	227.19
548.34	218.19
548.554	214.19
548.767	204.19
548.98	202.19
549.193	204.19
549.407	217.19
549.62	206.19
549.833	222.19
550.046	216.19
550.259	213.19
550.473	217.19
550.686	228.19
550.899	212.19
551.112	205.19
551.325	222.19
551.538	227.19
551.751	213.19
551.964	204.19
552.177	218.19
552.39	222.19
552.603	223.19
552.816	214.19
553.029	197.19
553.242	219.19
553.455	211.19
553.667	237.19
553.88	234.19
554.093	224.19
554.306	226.19
554.519	222.19
554.732	229.19
554.944	234.19
555.157	215.19
555.37	223.19
555.583	208.19
555.795	225.19
556.008	202.19
556.221	202.19
556.433	210.19
556.646	212.19
556.859	216.19
557.071	209.19
557.284	219.19
557.496	193.19
557.709	207.19
557.921	210.19
558.134	211.19
558.346	200.19
558.559	209.19
558.771	205.19
558.984	201.19
559.196	198.19
559.409	193.19
559.621	201.19
559.833	206.19
560.046	196.19
560.258	213.19
560.47	196.19
560.683	204.19
560.895	188.19
561.107	192.19
561.32	184.19
561.532	198.19
561.744	193.19
561.956	183.19
562.168	202.19
562.381	206.19
562.593	180.19
562.805	198.19
563.017	207.19
563.229	185.19
563.441	180.19
563.653	195.19
563.865	220.19
564.077	194.19
564.289	200.19
564.501	182.19
564.713	215.19
564.925	200.19
565.137	207.19
565.349	215.19
565.561	212.19
565.773	218.19
565.985	226.19
566.197	220.19
566.408	222.19
566.62	230.19
566.832	218.19
567.044	240.19
567.255	222.19
567.467	237.19
567.679	236.19
567.891	249.19
568.102	227.19
568.314	233.19
568.526	234.19
568.737	216.19
568.949	216.19
569.161	208.19
569.372	227.19
569.584	203.19
569.795	200.19
570.007	200.19
570.218	233.19
570.43	231.19
570.641	202.19
570.853	195.19
571.064	199.19
571.276	189.19
571.487	182.19
571.698	181.19
571.91	182.19
572.121	191.19
572.333	180.19
572.544	188.19
572.755	202.19
572.966	198.19
573.178	172.19
573.389	183.19
573.6	168.19
573.811	184.19
574.023	184.19
574.234	179.19
574.445	180.19
574.656	168.19
574.867	182.19
575.078	182.19
575.289	172.19
575.501	169.19
575.712	173.19
575.923	196.19
576.134	164.19
576.345	183.19
576.556	184.19
576.767	179.19
576.978	176.19
577.188	184.19
577.399	164.19
577.61	184.19
577.821	178.19
578.032	169.19
578.243	204.19
578.454	353.19
578.665	241.19
578.875	174.19
579.086	166.19
579.297	167.19
579.508	165.19
579.718	166.19
579.929	168.19
580.14	179.19
580.35	172.19
580.561	158.19
580.772	185.19
580.982	166.19
581.193	171.19
581.403	162.19
581.614	189.19
581.825	166.19
582.035	172.19
582.246	147.19
582.456	136.19
582.667	164.19
582.877	162.19
583.087	169.19
583.298	170.19
583.508	174.19
583.719	151.19
583.929	153.19
584.139	166.19
584.35	155.19
584.56	153.19
584.77	144.19
584.981	162.19
585.191	166.19
585.401	173.19
585.611	174.19
585.821	165.19
586.032	161.19
586.242	151.19
586.452	157.19
586.662	175.19
586.872	154.19
587.082	156.19
587.292	168.19
587.502	159.19
587.713	154.19
587.923	158.19
588.133	156.19
588.343	158.19
588.553	165.19
588.762	160.19
588.972	160.19
589.182	173.19
589.392	169.19
589.602	162.19
589.812	173.19
590.022	169.19
590.232	140.19
590.441	167.19
590.651	150.19
590.861	144.19
591.071	153.19
591.281	172.19
591.49	156.19
591.7	160.19
591.91	166.19
592.119	153.19
592.329	157.19
592.539	170.19
592.748	188.19
592.958	170.19
593.167	171.19
593.377	180.19
593.587	186.19
593.796	173.19
594.006	164.19
594.215	165.19
594.424	158.19
594.634	172.19
594.843	155.19
595.053	171.19
595.262	159.19
595.472	158.19
595.681	163.19
595.89	155.19
596.1	157.19
596.309	166.19
596.518	167.19
596.727	167.19
596.937	160.19
597.146	156.19
597.355	141.19
597.564	153.19
597.774	158.19
597.983	143.19
598.192	144.19
598.401	146.19
598.61	149.19
598.819	155.19
599.028	141.19
599.237	156.19
599.446	154.19
599.655	151.19
599.864	166.19
600.073	147.19
600.282	142.19
600.491	167.19
600.7	164.19
600.909	146.19
601.118	145.19
601.327	153.19
601.536	152.19
601.745	160.19
601.953	165.19
602.162	157.19
602.371	143.19
602.58	156.19
602.789	140.19
602.997	160.19
603.206	134.19
603.415	154.19
603.623	153.19
603.832	145.19
604.041	152.19
604.249	150.19
604.458	150.19
604.666	153.19
604.875	129.19
605.084	149.19
605.292	141.19
605.501	132.19
605.709	160.19
605.918	144.19
606.126	162.19
606.334	162.19
606.543	146.19
606.751	146.19
606.96	140.19
607.168	161.19
607.376	147.19
607.585	149.19
607.793	136.19
608.001	133.19
608.21	140.19
608.418	128.19
608.626	144.19
608.834	153.19
609.043	150.19
609.251	145.19
609.459	149.19
609.667	137.19
609.875	143.19
610.083	145.19
610.291	145.19
610.499	157.19
610.707	147.19
610.916	138.19
611.124	145.19
611.332	151.19
611.54	152.19
611.748	138.19
611.955	147.19
612.163	148.19
612.371	139.19
612.579	139.19
612.787	133.19
612.995	143.19
613.203	150.19
613.411	128.19
613.618	158.19
613.826	143.19
614.034	143.19
614.242	147.19
614.449	153.19
614.657	134.19
614.865	146.19
615.072	151.19
615.28	134.19
615.488	135.19
615.695	142.19
615.903	139.19
616.111	152.19
616.318	147.19
616.526	153.19
616.733	159.19
616.941	156.19
617.148	126.19
617.356	136.19
617.563	140.19
617.771	149.19
617.978	146.19
618.185	134.19
618.393	160.19
618.6	141.19
618.807	140.19
619.015	176.19
619.222	138.19
619.429	144.19
619.637	144.19
619.844	128.19
620.051	130.19
620.258	131.19
620.466	143.19
620.673	129.19
620.88	135.19
621.087	140.19
621.294	141.19
621.501	136.19
621.708	141.19
621.915	130.19
622.122	146.19
622.329	146.19
622.536	142.19
622.743	142.19
622.95	131.19
623.157	143.19
623.364	142.19
623.571	146.19
623.778	148.19
623.985	135.19
624.192	136.19
624.399	123.19
624.606	147.19
624.812	142.19
625.019	143.19
625.226	133.19
625.433	120.19
625.639	134.19
625.846	129.19
626.053	132.19
626.259	105.19
626.466	127.19
626.673	125.19
626.879	150.19
627.086	132.19
627.293	129.19
627.499	118.19
627.706	122.19
627.912	128.19
628.119	135.19
628.325	143.19
628.532	126.19
628.738	138.19
628.945	121.19
629.151	138.19
629.357	130.19
629.564	142.19
629.77	137.19
629.976	129.19
630.183	121.19
630.389	144.19
630.595	145.19
630.802	145.19
631.008	138.19
631.214	121.19
631.42	133.19
631.627	139.19
631.833	132.19
632.039	122.19
632.245	121.19
632.451	135.19
632.657	125.19
632.863	132.19
633.069	126.19
633.275	132.19
633.481	126.19
633.688	122.19
633.893	129.19
634.099	112.19
634.305	128.19
634.511	122.19
634.717	117.19
634.923	121.19
635.129	130.19
635.335	126.19
635.541	118.19
635.747	128.19
635.952	116.19
636.158	121.19
636.364	114.19
636.57	131.19
636.775	130.19
636.981	130.19
637.187	108.19
637.392	128.19
637.598	120.19
637.804	113.19
638.009	116.19
638.215	120.19
638.421	123.19
638.626	121.19
638.832	124.19
639.037	112.19
639.243	126.19
639.448	116.19
639.654	119.19
639.859	117.19
640.065	130.19
640.27	127.19
640.475	123.19
640.681	109.19
640.886	125.19
641.091	121.19
641.297	129.19
641.502	122.19
641.707	122.19
641.913	120.19
642.118	122.19
642.323	135.19
642.528	132.19
642.733	119.19
642.939	120.19
643.144	125.19
643.349	122.19
643.554	128.19
643.759	124.19
643.964	109.19
644.169	114.19
644.374	126.19
644.579	106.19
644.784	110.19
644.989	132.19
645.194	131.19
645.399	114.19
645.604	119.19
645.809	113.19
646.014	119.19
646.219	122.19
646.423	119.19
646.628	128.19
646.833	123.19
647.038	116.19
647.243	125.19
647.447	120.19
647.652	120.19
647.857	121.19
648.062	130.19
648.266	124.19
648.471	120.19
648.676	109.19
648.88	106.19
649.085	128.19
649.289	129.19
649.494	102.19
649.698	129.19
649.903	103.19
650.107	120.19
650.312	113.19
650.516	109.19
650.721	111.19
650.925	111.19
651.13	112.19
651.334	112.19
651.539	118.19
651.743	119.19
651.947	119.19
652.152	110.19
652.356	110.19
652.56	122.19
652.764	113.19
652.969	112.19
653.173	111.19
653.377	113.19
653.581	108.19
653.785	111.19
653.99	97.19
654.194	109.19
654.398	108.19
654.602	113.19
654.806	101.19
655.01	121.19
655.214	111.19
655.418	97.19
655.622	122.19
655.826	93.19
656.03	92.19
656.234	115.19
656.438	109.19
656.642	114.19
656.846	114.19
657.049	118.19
657.253	116.19
657.457	105.19
657.661	97.19
657.865	93.19
658.068	108.19
658.272	84.19
658.476	108.19
658.68	110.19
658.883	98.19
659.087	100.19
659.291	92.19
659.494	72.19
659.698	82.19
659.901	86.19
660.105	88.19
660.309	94.19
660.512	89.19
660.716	103.19
660.919	90.19
661.123	100.19
661.326	91.19
661.53	81.19
661.733	96.19
661.936	91.19
662.14	91.19
662.343	89.19
662.546	100.19
662.75	88.19
662.953	88.19
663.156	82.19
663.36	90.19
663.563	89.19
663.766	76.19
663.969	77.19
664.173	69.19
664.376	88.19
664.579	82.19
664.782	77.19
664.985	83.19
665.188	80.19
665.391	93.19
665.594	76.19
665.797	81.19
666	88.19
666.203	82.19
666.406	91.19
666.609	90.19
666.812	84.19
667.015	80.19
667.218	95.19
667.421	83.19
667.624	93.19
667.827	92.19
668.03	85.19
668.232	89.19
668.435	83.19
668.638	77.19
668.841	70.19
669.043	100.19
669.246	91.19
669.449	97.19
669.651	81.19
669.854	82.19
670.057	107.19
670.259	86.19
670.462	89.19
670.665	84.19
670.867	78.19
671.07	92.19
671.272	75.19
671.475	82.19
671.677	72.19
671.88	83.19
672.082	72.19
672.284	83.19
672.487	92.19
672.689	89.19
672.892	80.19
