Data from 1966.PennyLincolnUp.Lamp.En5.5.200Scan.071719.P1._HRD10591_14-12-34-913.txt Node
Date: Thu Jul 18 14:12:34 EDT 2019
User: cochatt
Spectrometer: HR+D1059
Trigger mode: 1
Integration Time (sec): 1.000000E-1
Scans to average: 1
Electric dark correction enabled: true
Nonlinearity correction enabled: false
Boxcar width: 0
XAxis mode: Wavelengths
Number of Pixels in Spectrum: 2048
>>>>>Begin Spectral Data<<<<<
223.165	-13.69
223.4	-13.69
223.635	-13.69
223.869	-20.69
224.104	-13.69
224.338	-8.69
224.573	-9.69
224.808	-19.69
225.042	-5.69
225.277	-11.69
225.511	-1.69
225.746	-7.69
225.98	10.31
226.215	12.31
226.449	14.31
226.683	19.31
226.918	24.31
227.152	32.31
227.387	29.31
227.621	28.31
227.856	33.31
228.09	52.31
228.324	41.31
228.559	42.31
228.793	63.31
229.027	74.31
229.262	83.31
229.496	76.31
229.73	87.31
229.964	81.31
230.199	84.31
230.433	88.31
230.667	73.31
230.901	88.31
231.136	83.31
231.37	94.31
231.604	89.31
231.838	91.31
232.072	107.31
232.306	93.31
232.541	94.31
232.775	78.31
233.009	87.31
233.243	87.31
233.477	98.31
233.711	89.31
233.945	90.31
234.179	89.31
234.413	90.31
234.647	92.31
234.881	100.31
235.115	76.31
235.349	87.31
235.583	85.31
235.817	90.31
236.051	91.31
236.285	89.31
236.519	85.31
236.753	114.31
236.987	102.31
237.221	122.31
237.455	146.31
237.689	118.31
237.922	110.31
238.156	93.31
238.39	97.31
238.624	87.31
238.858	90.31
239.091	97.31
239.325	93.31
239.559	102.31
239.793	99.31
240.027	69.31
240.26	103.31
240.494	117.31
240.728	105.31
240.961	111.31
241.195	110.31
241.429	95.31
241.662	96.31
241.896	90.31
242.13	97.31
242.363	115.31
242.597	83.31
242.83	97.31
243.064	100.31
243.298	94.31
243.531	117.31
243.765	95.31
243.998	103.31
244.232	102.31
244.465	98.31
244.699	98.31
244.932	110.31
245.166	100.31
245.399	93.31
245.633	101.31
245.866	91.31
246.099	98.31
246.333	98.31
246.566	96.31
246.8	99.31
247.033	106.31
247.266	109.31
247.5	104.31
247.733	104.31
247.966	114.31
248.2	103.31
248.433	115.31
248.666	113.31
248.899	117.31
249.133	122.31
249.366	120.31
249.599	122.31
249.832	123.31
250.066	124.31
250.299	98.31
250.532	123.31
250.765	106.31
250.998	123.31
251.231	132.31
251.465	113.31
251.698	111.31
251.931	117.31
252.164	117.31
252.397	109.31
252.63	118.31
252.863	115.31
253.096	142.31
253.329	130.31
253.562	143.31
253.795	128.31
254.028	118.31
254.261	135.31
254.494	131.31
254.727	133.31
254.96	137.31
255.193	161.31
255.426	139.31
255.659	139.31
255.892	123.31
256.124	140.31
256.357	133.31
256.59	126.31
256.823	133.31
257.056	127.31
257.289	108.31
257.521	107.31
257.754	107.31
257.987	114.31
258.22	134.31
258.452	143.31
258.685	123.31
258.918	118.31
259.151	123.31
259.383	135.31
259.616	120.31
259.849	129.31
260.081	132.31
260.314	148.31
260.547	125.31
260.779	133.31
261.012	133.31
261.244	141.31
261.477	130.31
261.71	123.31
261.942	136.31
262.175	141.31
262.407	140.31
262.64	132.31
262.872	125.31
263.105	147.31
263.337	126.31
263.57	126.31
263.802	123.31
264.035	132.31
264.267	133.31
264.499	125.31
264.732	143.31
264.964	117.31
265.197	119.31
265.429	118.31
265.661	126.31
265.894	117.31
266.126	133.31
266.358	127.31
266.591	131.31
266.823	131.31
267.055	147.31
267.287	138.31
267.52	153.31
267.752	136.31
267.984	134.31
268.216	129.31
268.448	139.31
268.681	131.31
268.913	158.31
269.145	146.31
269.377	154.31
269.609	155.31
269.841	134.31
270.073	144.31
270.306	167.31
270.538	170.31
270.77	158.31
271.002	165.31
271.234	161.31
271.466	162.31
271.698	171.31
271.93	163.31
272.162	155.31
272.394	185.31
272.626	153.31
272.858	161.31
273.09	161.31
273.322	155.31
273.553	142.31
273.785	139.31
274.017	141.31
274.249	138.31
274.481	152.31
274.713	148.31
274.945	152.31
275.176	149.31
275.408	147.31
275.64	143.31
275.872	148.31
276.104	134.31
276.335	162.31
276.567	147.31
276.799	144.31
277.031	185.31
277.262	163.31
277.494	171.31
277.726	169.31
277.957	163.31
278.189	147.31
278.421	160.31
278.652	167.31
278.884	159.31
279.115	155.31
279.347	144.31
279.579	148.31
279.81	139.31
280.042	149.31
280.273	147.31
280.505	149.31
280.736	153.31
280.968	151.31
281.199	142.31
281.431	143.31
281.662	158.31
281.894	150.31
282.125	151.31
282.356	163.31
282.588	178.31
282.819	174.31
283.051	155.31
283.282	143.31
283.513	143.31
283.745	137.31
283.976	153.31
284.207	159.31
284.439	167.31
284.67	152.31
284.901	167.31
285.132	149.31
285.364	137.31
285.595	143.31
285.826	164.31
286.057	169.31
286.288	155.31
286.52	152.31
286.751	157.31
286.982	171.31
287.213	179.31
287.444	155.31
287.675	154.31
287.906	140.31
288.138	148.31
288.369	174.31
288.6	158.31
288.831	158.31
289.062	158.31
289.293	142.31
289.524	160.31
289.755	167.31
289.986	148.31
290.217	147.31
290.448	153.31
290.679	157.31
290.91	133.31
291.141	149.31
291.371	142.31
291.602	141.31
291.833	141.31
292.064	155.31
292.295	151.31
292.526	162.31
292.757	154.31
292.987	164.31
293.218	153.31
293.449	152.31
293.68	152.31
293.91	146.31
294.141	172.31
294.372	157.31
294.603	167.31
294.833	165.31
295.064	154.31
295.295	163.31
295.525	166.31
295.756	169.31
295.987	162.31
296.217	179.31
296.448	165.31
296.679	154.31
296.909	160.31
297.14	165.31
297.37	165.31
297.601	169.31
297.831	158.31
298.062	154.31
298.292	161.31
298.523	156.31
298.753	167.31
298.984	157.31
299.214	173.31
299.445	149.31
299.675	167.31
299.905	159.31
300.136	181.31
300.366	172.31
300.597	164.31
300.827	159.31
301.057	162.31
301.288	169.31
301.518	164.31
301.748	160.31
301.979	168.31
302.209	171.31
302.439	172.31
302.669	173.31
302.9	180.31
303.13	173.31
303.36	157.31
303.59	163.31
303.82	168.31
304.051	190.31
304.281	171.31
304.511	171.31
304.741	178.31
304.971	160.31
305.201	159.31
305.431	156.31
305.661	169.31
305.891	170.31
306.121	167.31
306.352	175.31
306.582	167.31
306.812	163.31
307.042	169.31
307.272	163.31
307.502	153.31
307.731	166.31
307.961	172.31
308.191	190.31
308.421	173.31
308.651	181.31
308.881	182.31
309.111	182.31
309.341	171.31
309.571	168.31
309.8	189.31
310.03	170.31
310.26	195.31
310.49	196.31
310.72	196.31
310.949	186.31
311.179	201.31
311.409	177.31
311.639	181.31
311.868	196.31
312.098	191.31
312.328	201.31
312.557	207.31
312.787	203.31
313.017	211.31
313.246	195.31
313.476	192.31
313.706	194.31
313.935	194.31
314.165	197.31
314.394	215.31
314.624	192.31
314.853	201.31
315.083	202.31
315.312	187.31
315.542	185.31
315.771	186.31
316.001	186.31
316.23	189.31
316.46	177.31
316.689	182.31
316.919	183.31
317.148	195.31
317.377	200.31
317.607	194.31
317.836	168.31
318.065	201.31
318.295	185.31
318.524	182.31
318.753	206.31
318.983	196.31
319.212	182.31
319.441	201.31
319.67	199.31
319.9	200.31
320.129	194.31
320.358	200.31
320.587	191.31
320.816	195.31
321.046	190.31
321.275	200.31
321.504	183.31
321.733	194.31
321.962	191.31
322.191	205.31
322.42	218.31
322.649	209.31
322.878	209.31
323.108	225.31
323.337	224.31
323.566	244.31
323.795	234.31
324.024	269.31
324.253	305.31
324.482	452.31
324.71	655.31
324.939	857.31
325.168	710.31
325.397	359.31
325.626	269.31
325.855	239.31
326.084	217.31
326.313	205.31
326.542	242.31
326.77	269.31
326.999	299.31
327.228	417.31
327.457	583.31
327.686	674.31
327.914	431.31
328.143	316.31
328.372	296.31
328.6	277.31
328.829	253.31
329.058	264.31
329.287	275.31
329.515	266.31
329.744	245.31
329.972	241.31
330.201	261.31
330.43	268.31
330.658	276.31
330.887	314.31
331.115	281.31
331.344	245.31
331.572	222.31
331.801	248.31
332.03	236.31
332.258	219.31
332.486	215.31
332.715	222.31
332.943	218.31
333.172	220.31
333.4	229.31
333.629	233.31
333.857	254.31
334.085	232.31
334.314	258.31
334.542	262.31
334.771	289.31
334.999	254.31
335.227	228.31
335.455	230.31
335.684	223.31
335.912	218.31
336.14	199.31
336.369	221.31
336.597	211.31
336.825	223.31
337.053	208.31
337.281	209.31
337.51	207.31
337.738	208.31
337.966	205.31
338.194	201.31
338.422	218.31
338.65	210.31
338.878	218.31
339.106	215.31
339.334	211.31
339.562	210.31
339.79	197.31
340.018	219.31
340.246	204.31
340.474	221.31
340.702	210.31
340.93	217.31
341.158	209.31
341.386	198.31
341.614	209.31
341.842	213.31
342.07	197.31
342.298	212.31
342.526	202.31
342.754	211.31
342.981	204.31
343.209	201.31
343.437	206.31
343.665	199.31
343.893	216.31
344.12	211.31
344.348	210.31
344.576	232.31
344.804	195.31
345.031	214.31
345.259	211.31
345.487	203.31
345.714	212.31
345.942	177.31
346.17	200.31
346.397	208.31
346.625	221.31
346.853	206.31
347.08	202.31
347.308	205.31
347.535	202.31
347.763	202.31
347.99	196.31
348.218	207.31
348.445	198.31
348.673	197.31
348.9	195.31
349.128	206.31
349.355	191.31
349.583	186.31
349.81	199.31
350.037	200.31
350.265	183.31
350.492	193.31
350.72	197.31
350.947	193.31
351.174	202.31
351.402	212.31
351.629	189.31
351.856	190.31
352.083	216.31
352.311	208.31
352.538	213.31
352.765	217.31
352.992	202.31
353.22	197.31
353.447	195.31
353.674	205.31
353.901	200.31
354.128	180.31
354.355	205.31
354.583	212.31
354.81	209.31
355.037	181.31
355.264	177.31
355.491	190.31
355.718	179.31
355.945	170.31
356.172	191.31
356.399	196.31
356.626	191.31
356.853	195.31
357.08	177.31
357.307	195.31
357.534	191.31
357.761	189.31
357.988	190.31
358.215	190.31
358.441	173.31
358.668	185.31
358.895	202.31
359.122	200.31
359.349	190.31
359.576	200.31
359.802	215.31
360.029	229.31
360.256	232.31
360.483	213.31
360.709	197.31
360.936	187.31
361.163	190.31
361.39	206.31
361.616	211.31
361.843	186.31
362.07	205.31
362.296	204.31
362.523	195.31
362.749	172.31
362.976	193.31
363.203	206.31
363.429	204.31
363.656	197.31
363.882	197.31
364.109	195.31
364.335	187.31
364.562	195.31
364.788	202.31
365.015	207.31
365.241	191.31
365.468	181.31
365.694	196.31
365.92	202.31
366.147	196.31
366.373	190.31
366.599	198.31
366.826	175.31
367.052	189.31
367.278	188.31
367.505	195.31
367.731	209.31
367.957	197.31
368.184	182.31
368.41	182.31
368.636	179.31
368.862	214.31
369.089	194.31
369.315	192.31
369.541	198.31
369.767	205.31
369.993	199.31
370.219	197.31
370.445	200.31
370.672	189.31
370.898	197.31
371.124	175.31
371.35	183.31
371.576	192.31
371.802	208.31
372.028	185.31
372.254	178.31
372.48	181.31
372.706	199.31
372.932	211.31
373.158	195.31
373.384	197.31
373.61	198.31
373.835	189.31
374.061	197.31
374.287	183.31
374.513	181.31
374.739	192.31
374.965	188.31
375.191	189.31
375.416	207.31
375.642	208.31
375.868	204.31
376.094	192.31
376.319	193.31
376.545	217.31
376.771	193.31
376.997	197.31
377.222	174.31
377.448	211.31
377.674	190.31
377.899	187.31
378.125	198.31
378.35	194.31
378.576	188.31
378.802	177.31
379.027	172.31
379.253	199.31
379.478	215.31
379.704	183.31
379.929	181.31
380.155	181.31
380.38	181.31
380.606	189.31
380.831	189.31
381.057	184.31
381.282	183.31
381.507	189.31
381.733	183.31
381.958	191.31
382.184	196.31
382.409	191.31
382.634	193.31
382.86	193.31
383.085	200.31
383.31	208.31
383.535	190.31
383.761	211.31
383.986	190.31
384.211	205.31
384.436	213.31
384.662	207.31
384.887	216.31
385.112	215.31
385.337	207.31
385.562	212.31
385.787	197.31
386.013	216.31
386.238	221.31
386.463	213.31
386.688	209.31
386.913	201.31
387.138	208.31
387.363	197.31
387.588	195.31
387.813	213.31
388.038	185.31
388.263	198.31
388.488	213.31
388.713	201.31
388.938	206.31
389.163	212.31
389.387	204.31
389.612	194.31
389.837	210.31
390.062	202.31
390.287	215.31
390.512	192.31
390.736	207.31
390.961	202.31
391.186	202.31
391.411	214.31
391.636	198.31
391.86	214.31
392.085	185.31
392.31	206.31
392.534	213.31
392.759	209.31
392.984	211.31
393.208	225.31
393.433	214.31
393.658	210.31
393.882	213.31
394.107	205.31
394.331	195.31
394.556	211.31
394.78	208.31
395.005	218.31
395.229	210.31
395.454	220.31
395.678	228.31
395.903	231.31
396.127	230.31
396.352	221.31
396.576	213.31
396.801	215.31
397.025	207.31
397.249	225.31
397.474	212.31
397.698	209.31
397.922	233.31
398.147	213.31
398.371	218.31
398.595	214.31
398.82	222.31
399.044	203.31
399.268	259.31
399.492	260.31
399.717	263.31
399.941	276.31
400.165	286.31
400.389	267.31
400.613	231.31
400.837	221.31
401.062	229.31
401.286	235.31
401.51	226.31
401.734	234.31
401.958	229.31
402.182	249.31
402.406	232.31
402.63	240.31
402.854	241.31
403.078	253.31
403.302	233.31
403.526	240.31
403.75	257.31
403.974	255.31
404.198	247.31
404.422	217.31
404.645	229.31
404.869	260.31
405.093	271.31
405.317	287.31
405.541	285.31
405.765	256.31
405.988	253.31
406.212	279.31
406.436	273.31
406.66	278.31
406.883	280.31
407.107	253.31
407.331	278.31
407.555	307.31
407.778	295.31
408.002	279.31
408.226	256.31
408.449	262.31
408.673	264.31
408.896	271.31
409.12	283.31
409.344	272.31
409.567	244.31
409.791	252.31
410.014	247.31
410.238	247.31
410.461	261.31
410.685	242.31
410.908	232.31
411.132	263.31
411.355	275.31
411.578	255.31
411.802	243.31
412.025	223.31
412.249	226.31
412.472	266.31
412.695	279.31
412.919	275.31
413.142	255.31
413.365	231.31
413.589	257.31
413.812	228.31
414.035	228.31
414.258	247.31
414.482	225.31
414.705	225.31
414.928	231.31
415.151	234.31
415.374	210.31
415.597	231.31
415.821	223.31
416.044	238.31
416.267	224.31
416.49	215.31
416.713	220.31
416.936	220.31
417.159	229.31
417.382	235.31
417.605	247.31
417.828	260.31
418.051	229.31
418.274	227.31
418.497	227.31
418.72	230.31
418.943	234.31
419.166	227.31
419.389	238.31
419.611	234.31
419.834	238.31
420.057	246.31
420.28	238.31
420.503	230.31
420.726	241.31
420.948	236.31
421.171	269.31
421.394	280.31
421.617	259.31
421.839	229.31
422.062	226.31
422.285	240.31
422.507	279.31
422.73	300.31
422.953	257.31
423.175	249.31
423.398	258.31
423.621	255.31
423.843	263.31
424.066	243.31
424.288	254.31
424.511	255.31
424.733	278.31
424.956	313.31
425.178	283.31
425.401	299.31
425.623	314.31
425.846	266.31
426.068	263.31
426.291	245.31
426.513	231.31
426.735	250.31
426.958	261.31
427.18	288.31
427.402	350.31
427.625	390.31
427.847	341.31
428.069	281.31
428.292	267.31
428.514	257.31
428.736	238.31
428.958	234.31
429.181	245.31
429.403	225.31
429.625	226.31
429.847	255.31
430.069	271.31
430.292	277.31
430.514	243.31
430.736	241.31
430.958	231.31
431.18	228.31
431.402	219.31
431.624	235.31
431.846	223.31
432.068	225.31
432.29	214.31
432.512	231.31
432.734	245.31
432.956	241.31
433.178	257.31
433.4	248.31
433.622	223.31
433.844	235.31
434.066	214.31
434.287	213.31
434.509	230.31
434.731	249.31
434.953	230.31
435.175	241.31
435.397	259.31
435.618	256.31
435.84	260.31
436.062	315.31
436.284	334.31
436.505	283.31
436.727	245.31
436.949	242.31
437.17	239.31
437.392	239.31
437.614	233.31
437.835	262.31
438.057	303.31
438.278	335.31
438.5	305.31
438.721	341.31
438.943	328.31
439.165	274.31
439.386	263.31
439.608	267.31
439.829	265.31
440.05	273.31
440.272	278.31
440.493	286.31
440.715	244.31
440.936	236.31
441.158	235.31
441.379	235.31
441.6	232.31
441.822	256.31
442.043	277.31
442.264	305.31
442.486	324.31
442.707	245.31
442.928	250.31
443.149	253.31
443.371	268.31
443.592	281.31
443.813	324.31
444.034	338.31
444.255	299.31
444.476	266.31
444.698	249.31
444.919	257.31
445.14	344.31
445.361	299.31
445.582	274.31
445.803	307.31
446.024	332.31
446.245	346.31
446.466	293.31
446.687	255.31
446.908	247.31
447.129	229.31
447.35	208.31
447.571	246.31
447.792	242.31
448.013	223.31
448.234	220.31
448.455	264.31
448.675	311.31
448.896	339.31
449.117	296.31
449.338	285.31
449.559	327.31
449.779	348.31
450	291.31
450.221	257.31
450.442	220.31
450.662	205.31
450.883	230.31
451.104	232.31
451.324	243.31
451.545	221.31
451.766	234.31
451.986	222.31
452.207	208.31
452.428	203.31
452.648	216.31
452.869	209.31
453.089	223.31
453.31	221.31
453.53	217.31
453.751	219.31
453.971	218.31
454.192	225.31
454.412	211.31
454.633	220.31
454.853	206.31
455.073	215.31
455.294	217.31
455.514	242.31
455.734	241.31
455.955	202.31
456.175	205.31
456.395	206.31
456.616	202.31
456.836	200.31
457.056	205.31
457.276	196.31
457.497	217.31
457.717	205.31
457.937	201.31
458.157	195.31
458.377	209.31
458.598	226.31
458.818	261.31
459.038	279.31
459.258	299.31
459.478	251.31
459.698	219.31
459.918	233.31
460.138	214.31
460.358	217.31
460.578	234.31
460.798	216.31
461.018	229.31
461.238	212.31
461.458	233.31
461.678	218.31
461.898	214.31
462.118	215.31
462.338	237.31
462.558	244.31
462.777	249.31
462.997	252.31
463.217	246.31
463.437	255.31
463.657	259.31
463.876	243.31
464.096	235.31
464.316	261.31
464.536	251.31
464.755	222.31
464.975	238.31
465.195	278.31
465.414	292.31
465.634	260.31
465.854	227.31
466.073	223.31
466.293	234.31
466.512	228.31
466.732	221.31
466.951	201.31
467.171	217.31
467.391	218.31
467.61	225.31
467.829	237.31
468.049	220.31
468.268	228.31
468.488	223.31
468.707	195.31
468.927	206.31
469.146	210.31
469.365	216.31
469.585	211.31
469.804	208.31
470.023	210.31
470.243	233.31
470.462	235.31
470.681	234.31
470.901	239.31
471.12	230.31
471.339	226.31
471.558	221.31
471.777	214.31
471.997	228.31
472.216	222.31
472.435	241.31
472.654	224.31
472.873	214.31
473.092	221.31
473.311	222.31
473.53	218.31
473.749	233.31
473.968	244.31
474.187	294.31
474.406	301.31
474.625	234.31
474.844	225.31
475.063	219.31
475.282	229.31
475.501	218.31
475.72	221.31
475.939	237.31
476.158	226.31
476.377	243.31
476.596	225.31
476.814	217.31
477.033	222.31
477.252	233.31
477.471	220.31
477.69	231.31
477.908	243.31
478.127	243.31
478.346	241.31
478.564	250.31
478.783	247.31
479.002	243.31
479.22	245.31
479.439	254.31
479.658	258.31
479.876	279.31
480.095	267.31
480.313	267.31
480.532	269.31
480.751	281.31
480.969	283.31
481.188	319.31
481.406	344.31
481.624	271.31
481.843	252.31
482.061	238.31
482.28	251.31
482.498	266.31
482.717	244.31
482.935	253.31
483.153	232.31
483.372	245.31
483.59	264.31
483.808	242.31
484.027	247.31
484.245	242.31
484.463	253.31
484.681	267.31
484.9	267.31
485.118	261.31
485.336	256.31
485.554	249.31
485.772	258.31
485.99	275.31
486.209	254.31
486.427	249.31
486.645	281.31
486.863	281.31
487.081	283.31
487.299	269.31
487.517	272.31
487.735	275.31
487.953	278.31
488.171	274.31
488.389	262.31
488.607	250.31
488.825	287.31
489.043	267.31
489.261	267.31
489.479	261.31
489.696	282.31
489.914	283.31
490.132	279.31
490.35	290.31
490.568	282.31
490.786	293.31
491.003	289.31
491.221	316.31
491.439	316.31
491.657	314.31
491.874	309.31
492.092	318.31
492.31	313.31
492.527	327.31
492.745	325.31
492.963	322.31
493.18	325.31
493.398	331.31
493.615	294.31
493.833	327.31
494.05	305.31
494.268	326.31
494.485	320.31
494.703	313.31
494.92	316.31
495.138	323.31
495.355	329.31
495.573	325.31
495.79	321.31
496.008	319.31
496.225	308.31
496.442	323.31
496.66	319.31
496.877	314.31
497.094	316.31
497.312	296.31
497.529	316.31
497.746	318.31
497.963	330.31
498.181	344.31
498.398	339.31
498.615	351.31
498.832	354.31
499.049	347.31
499.267	352.31
499.484	358.31
499.701	369.31
499.918	381.31
500.135	408.31
500.352	399.31
500.569	422.31
500.786	429.31
501.003	395.31
501.22	406.31
501.437	408.31
501.654	385.31
501.871	394.31
502.088	371.31
502.305	363.31
502.522	356.31
502.739	325.31
502.956	334.31
503.172	342.31
503.389	322.31
503.606	323.31
503.823	326.31
504.04	325.31
504.256	307.31
504.473	297.31
504.69	306.31
504.907	300.31
505.123	302.31
505.34	297.31
505.557	317.31
505.773	295.31
505.99	296.31
506.207	308.31
506.423	319.31
506.64	284.31
506.856	307.31
507.073	299.31
507.289	287.31
507.506	312.31
507.722	329.31
507.939	306.31
508.155	291.31
508.372	280.31
508.588	278.31
508.805	276.31
509.021	290.31
509.238	288.31
509.454	309.31
509.67	292.31
509.887	294.31
510.103	301.31
510.319	291.31
510.536	357.31
510.752	631.31
510.968	470.31
511.184	285.31
511.401	287.31
511.617	269.31
511.833	266.31
512.049	273.31
512.265	253.31
512.481	258.31
512.698	262.31
512.914	260.31
513.13	279.31
513.346	255.31
513.562	284.31
513.778	265.31
513.994	281.31
514.21	265.31
514.426	292.31
514.642	306.31
514.858	323.31
515.074	355.31
515.29	416.31
515.506	637.31
515.721	545.31
515.937	312.31
516.153	293.31
516.369	271.31
516.585	294.31
516.801	279.31
517.016	277.31
517.232	277.31
517.448	281.31
517.664	290.31
517.879	278.31
518.095	265.31
518.311	261.31
518.527	250.31
518.742	279.31
518.958	266.31
519.173	270.31
519.389	264.31
519.605	283.31
519.82	263.31
520.036	248.31
520.251	283.31
520.467	271.31
520.682	278.31
520.898	278.31
521.113	299.31
521.329	319.31
521.544	370.31
521.76	503.31
521.975	915.31
522.19	890.31
522.406	428.31
522.621	324.31
522.836	277.31
523.052	265.31
523.267	263.31
523.482	256.31
523.698	245.31
523.913	250.31
524.128	249.31
524.343	228.31
524.559	261.31
524.774	240.31
524.989	239.31
525.204	237.31
525.419	238.31
525.634	243.31
525.849	230.31
526.064	232.31
526.28	232.31
526.495	230.31
526.71	226.31
526.925	231.31
527.14	214.31
527.355	216.31
527.57	232.31
527.785	217.31
527.999	224.31
528.214	232.31
528.429	225.31
528.644	219.31
528.859	224.31
529.074	235.31
529.289	232.31
529.503	295.31
529.718	261.31
529.933	244.31
530.148	222.31
530.363	232.31
530.577	224.31
530.792	229.31
531.007	222.31
531.221	222.31
531.436	220.31
531.651	206.31
531.865	215.31
532.08	207.31
532.295	202.31
532.509	227.31
532.724	214.31
532.938	217.31
533.153	230.31
533.367	201.31
533.582	209.31
533.796	212.31
534.011	216.31
534.225	209.31
534.44	223.31
534.654	224.31
534.868	217.31
535.083	204.31
535.297	203.31
535.511	210.31
535.726	228.31
535.94	229.31
536.154	226.31
536.369	238.31
536.583	208.31
536.797	217.31
537.011	210.31
537.225	218.31
537.44	197.31
537.654	190.31
537.868	206.31
538.082	234.31
538.296	218.31
538.51	202.31
538.724	214.31
538.938	225.31
539.153	217.31
539.367	213.31
539.581	225.31
539.795	231.31
540.009	192.31
540.222	207.31
540.436	233.31
540.65	211.31
540.864	219.31
541.078	231.31
541.292	226.31
541.506	222.31
541.72	230.31
541.934	217.31
542.147	221.31
542.361	221.31
542.575	202.31
542.789	211.31
543.002	221.31
543.216	213.31
543.43	235.31
543.644	200.31
543.857	219.31
544.071	219.31
544.285	235.31
544.498	215.31
544.712	226.31
544.925	219.31
545.139	200.31
545.352	199.31
545.566	224.31
545.779	213.31
545.993	201.31
546.206	214.31
546.42	234.31
546.633	212.31
546.847	211.31
547.06	211.31
547.274	214.31
547.487	233.31
547.7	209.31
547.914	192.31
548.127	207.31
548.34	215.31
548.554	203.31
548.767	201.31
548.98	202.31
549.193	195.31
549.407	207.31
549.62	198.31
549.833	213.31
550.046	206.31
550.259	214.31
550.473	204.31
550.686	212.31
550.899	215.31
551.112	221.31
551.325	207.31
551.538	210.31
551.751	202.31
551.964	171.31
552.177	200.31
552.39	207.31
552.603	214.31
552.816	214.31
553.029	202.31
553.242	224.31
553.455	208.31
553.667	229.31
553.88	220.31
554.093	214.31
554.306	207.31
554.519	206.31
554.732	206.31
554.944	202.31
555.157	207.31
555.37	198.31
555.583	186.31
555.795	196.31
556.008	220.31
556.221	191.31
556.433	190.31
556.646	191.31
556.859	202.31
557.071	193.31
557.284	196.31
557.496	189.31
557.709	173.31
557.921	202.31
558.134	183.31
558.346	201.31
558.559	193.31
558.771	186.31
558.984	183.31
559.196	194.31
559.409	171.31
559.621	187.31
559.833	202.31
560.046	177.31
560.258	191.31
560.47	177.31
560.683	178.31
560.895	191.31
561.107	201.31
561.32	186.31
561.532	175.31
561.744	175.31
561.956	179.31
562.168	190.31
562.381	196.31
562.593	194.31
562.805	194.31
563.017	187.31
563.229	205.31
563.441	193.31
563.653	197.31
563.865	200.31
564.077	206.31
564.289	184.31
564.501	191.31
564.713	173.31
564.925	193.31
565.137	193.31
565.349	186.31
565.561	190.31
565.773	210.31
565.985	204.31
566.197	200.31
566.408	204.31
566.62	215.31
566.832	211.31
567.044	221.31
567.255	206.31
567.467	217.31
567.679	222.31
567.891	233.31
568.102	229.31
568.314	217.31
568.526	202.31
568.737	219.31
568.949	199.31
569.161	199.31
569.372	186.31
569.584	189.31
569.795	196.31
570.007	185.31
570.218	207.31
570.43	177.31
570.641	170.31
570.853	182.31
571.064	194.31
571.276	189.31
571.487	186.31
571.698	183.31
571.91	177.31
572.121	174.31
572.333	190.31
572.544	188.31
572.755	174.31
572.966	184.31
573.178	153.31
573.389	172.31
573.6	160.31
573.811	170.31
574.023	172.31
574.234	165.31
574.445	170.31
574.656	157.31
574.867	170.31
575.078	172.31
575.289	165.31
575.501	159.31
575.712	165.31
575.923	162.31
576.134	153.31
576.345	172.31
576.556	179.31
576.767	141.31
576.978	150.31
577.188	165.31
577.399	138.31
577.61	153.31
577.821	161.31
578.032	165.31
578.243	188.31
578.454	296.31
578.665	207.31
578.875	172.31
579.086	155.31
579.297	149.31
579.508	164.31
579.718	153.31
579.929	151.31
580.14	151.31
580.35	157.31
580.561	144.31
580.772	159.31
580.982	157.31
581.193	157.31
581.403	158.31
581.614	157.31
581.825	165.31
582.035	165.31
582.246	148.31
582.456	154.31
582.667	158.31
582.877	147.31
583.087	156.31
583.298	159.31
583.508	152.31
583.719	167.31
583.929	183.31
584.139	166.31
584.35	148.31
584.56	151.31
584.77	156.31
584.981	163.31
585.191	144.31
585.401	154.31
585.611	163.31
585.821	152.31
586.032	148.31
586.242	133.31
586.452	159.31
586.662	149.31
586.872	144.31
587.082	163.31
587.292	161.31
587.502	172.31
587.713	140.31
587.923	150.31
588.133	146.31
588.343	159.31
588.553	141.31
588.762	147.31
588.972	157.31
589.182	185.31
589.392	189.31
589.602	158.31
589.812	165.31
590.022	150.31
590.232	148.31
590.441	135.31
590.651	145.31
590.861	168.31
591.071	153.31
591.281	157.31
591.49	155.31
591.7	149.31
591.91	155.31
592.119	154.31
592.329	153.31
592.539	147.31
592.748	151.31
592.958	162.31
593.167	142.31
593.377	162.31
593.587	173.31
593.796	149.31
594.006	157.31
594.215	159.31
594.424	154.31
594.634	161.31
594.843	146.31
595.053	161.31
595.262	157.31
595.472	149.31
595.681	133.31
595.89	162.31
596.1	134.31
596.309	155.31
596.518	149.31
596.727	151.31
596.937	146.31
597.146	136.31
597.355	147.31
597.564	147.31
597.774	141.31
597.983	126.31
598.192	123.31
598.401	154.31
598.61	146.31
598.819	134.31
599.028	152.31
599.237	148.31
599.446	148.31
599.655	142.31
599.864	135.31
600.073	142.31
600.282	129.31
600.491	147.31
600.7	141.31
600.909	133.31
601.118	132.31
601.327	138.31
601.536	126.31
601.745	129.31
601.953	139.31
602.162	140.31
602.371	133.31
602.58	131.31
602.789	143.31
602.997	137.31
603.206	134.31
603.415	138.31
603.623	135.31
603.832	141.31
604.041	148.31
604.249	127.31
604.458	118.31
604.666	137.31
604.875	119.31
605.084	133.31
605.292	140.31
605.501	139.31
605.709	123.31
605.918	131.31
606.126	142.31
606.334	144.31
606.543	133.31
606.751	135.31
606.96	121.31
607.168	162.31
607.376	129.31
607.585	144.31
607.793	130.31
608.001	135.31
608.21	129.31
608.418	136.31
608.626	133.31
608.834	141.31
609.043	131.31
609.251	150.31
609.459	143.31
609.667	149.31
609.875	139.31
610.083	132.31
610.291	127.31
610.499	121.31
610.707	142.31
610.916	136.31
611.124	140.31
611.332	143.31
611.54	158.31
611.748	148.31
611.955	140.31
612.163	137.31
612.371	135.31
612.579	123.31
612.787	144.31
612.995	142.31
613.203	125.31
613.411	140.31
613.618	134.31
613.826	141.31
614.034	128.31
614.242	137.31
614.449	143.31
614.657	131.31
614.865	126.31
615.072	133.31
615.28	138.31
615.488	130.31
615.695	132.31
615.903	138.31
616.111	133.31
616.318	126.31
616.526	134.31
616.733	135.31
616.941	136.31
617.148	140.31
617.356	146.31
617.563	147.31
617.771	134.31
617.978	125.31
618.185	131.31
618.393	133.31
618.6	137.31
618.807	128.31
619.015	131.31
619.222	132.31
619.429	137.31
619.637	130.31
619.844	149.31
620.051	135.31
620.258	130.31
620.466	135.31
620.673	138.31
620.88	122.31
621.087	144.31
621.294	139.31
621.501	133.31
621.708	129.31
621.915	135.31
622.122	133.31
622.329	117.31
622.536	129.31
622.743	124.31
622.95	125.31
623.157	121.31
623.364	133.31
623.571	114.31
623.778	131.31
623.985	131.31
624.192	124.31
624.399	123.31
624.606	123.31
624.812	131.31
625.019	122.31
625.226	121.31
625.433	131.31
625.639	123.31
625.846	125.31
626.053	117.31
626.259	127.31
626.466	122.31
626.673	121.31
626.879	124.31
627.086	120.31
627.293	129.31
627.499	131.31
627.706	131.31
627.912	98.31
628.119	127.31
628.325	131.31
628.532	127.31
628.738	110.31
628.945	120.31
629.151	115.31
629.357	119.31
629.564	117.31
629.77	119.31
629.976	113.31
630.183	114.31
630.389	130.31
630.595	114.31
630.802	119.31
631.008	105.31
631.214	123.31
631.42	127.31
631.627	123.31
631.833	115.31
632.039	119.31
632.245	122.31
632.451	115.31
632.657	118.31
632.863	117.31
633.069	116.31
633.275	113.31
633.481	115.31
633.688	118.31
633.893	119.31
634.099	119.31
634.305	125.31
634.511	121.31
634.717	115.31
634.923	130.31
635.129	123.31
635.335	108.31
635.541	121.31
635.747	129.31
635.952	115.31
636.158	119.31
636.364	109.31
636.57	113.31
636.775	126.31
636.981	119.31
637.187	104.31
637.392	107.31
637.598	110.31
637.804	102.31
638.009	115.31
638.215	117.31
638.421	111.31
638.626	123.31
638.832	116.31
639.037	118.31
639.243	98.31
639.448	106.31
639.654	110.31
639.859	95.31
640.065	109.31
640.27	125.31
640.475	97.31
640.681	109.31
640.886	126.31
641.091	125.31
641.297	121.31
641.502	111.31
641.707	125.31
641.913	127.31
642.118	102.31
642.323	127.31
642.528	128.31
642.733	117.31
642.939	103.31
643.144	117.31
643.349	127.31
643.554	109.31
643.759	108.31
643.964	120.31
644.169	117.31
644.374	108.31
644.579	107.31
644.784	117.31
644.989	109.31
645.194	120.31
645.399	117.31
645.604	111.31
645.809	106.31
646.014	110.31
646.219	119.31
646.423	120.31
646.628	110.31
646.833	118.31
647.038	115.31
647.243	99.31
647.447	106.31
647.652	116.31
647.857	115.31
648.062	113.31
648.266	118.31
648.471	117.31
648.676	114.31
648.88	104.31
649.085	127.31
649.289	140.31
649.494	113.31
649.698	121.31
649.903	130.31
650.107	111.31
650.312	104.31
650.516	101.31
650.721	104.31
650.925	101.31
651.13	103.31
651.334	114.31
651.539	108.31
651.743	110.31
651.947	95.31
652.152	98.31
652.356	119.31
652.56	107.31
652.764	115.31
652.969	106.31
653.173	104.31
653.377	103.31
653.581	92.31
653.785	117.31
653.99	115.31
654.194	109.31
654.398	114.31
654.602	120.31
654.806	103.31
655.01	110.31
655.214	101.31
655.418	99.31
655.622	117.31
655.826	101.31
656.03	100.31
656.234	110.31
656.438	114.31
656.642	102.31
656.846	109.31
657.049	106.31
657.253	100.31
657.457	106.31
657.661	113.31
657.865	106.31
658.068	115.31
658.272	88.31
658.476	93.31
658.68	88.31
658.883	90.31
659.087	111.31
659.291	90.31
659.494	87.31
659.698	78.31
659.901	94.31
660.105	100.31
660.309	92.31
660.512	92.31
660.716	83.31
660.919	87.31
661.123	93.31
661.326	86.31
661.53	88.31
661.733	87.31
661.936	89.31
662.14	99.31
662.343	93.31
662.546	91.31
662.75	93.31
662.953	78.31
663.156	74.31
663.36	86.31
663.563	78.31
663.766	86.31
663.969	85.31
664.173	80.31
664.376	83.31
664.579	85.31
664.782	76.31
664.985	67.31
665.188	86.31
665.391	76.31
665.594	81.31
665.797	83.31
666	69.31
666.203	82.31
666.406	82.31
666.609	84.31
666.812	76.31
667.015	81.31
667.218	91.31
667.421	80.31
667.624	87.31
667.827	84.31
668.03	62.31
668.232	67.31
668.435	82.31
668.638	73.31
668.841	84.31
669.043	79.31
669.246	77.31
669.449	75.31
669.651	78.31
669.854	86.31
670.057	78.31
670.259	74.31
670.462	82.31
670.665	76.31
670.867	79.31
671.07	83.31
671.272	78.31
671.475	93.31
671.677	76.31
671.88	82.31
672.082	77.31
672.284	106.31
672.487	77.31
672.689	98.31
672.892	75.31
