Data from 1966.PennyLincolnUp.Lamp.En5.5.200Scan.071719.P1._HRD10591_14-15-01-917.txt Node
Date: Thu Jul 18 14:15:01 EDT 2019
User: cochatt
Spectrometer: HR+D1059
Trigger mode: 1
Integration Time (sec): 1.000000E-1
Scans to average: 1
Electric dark correction enabled: true
Nonlinearity correction enabled: false
Boxcar width: 0
XAxis mode: Wavelengths
Number of Pixels in Spectrum: 2048
>>>>>Begin Spectral Data<<<<<
223.165	-7.81
223.4	-7.81
223.635	-7.81
223.869	-21.81
224.104	-22.81
224.338	-0.81
224.573	-10.81
224.808	-19.81
225.042	-20.81
225.277	-5.81
225.511	-9.81
225.746	3.19
225.98	12.19
226.215	19.19
226.449	19.19
226.683	10.19
226.918	23.19
227.152	33.19
227.387	40.19
227.621	41.19
227.856	41.19
228.09	52.19
228.324	59.19
228.559	59.19
228.793	62.19
229.027	80.19
229.262	86.19
229.496	81.19
229.73	106.19
229.964	114.19
230.199	100.19
230.433	91.19
230.667	84.19
230.901	83.19
231.136	88.19
231.37	97.19
231.604	105.19
231.838	95.19
232.072	94.19
232.306	101.19
232.541	102.19
232.775	122.19
233.009	90.19
233.243	93.19
233.477	83.19
233.711	96.19
233.945	89.19
234.179	87.19
234.413	90.19
234.647	94.19
234.881	90.19
235.115	100.19
235.349	98.19
235.583	96.19
235.817	89.19
236.051	107.19
236.285	102.19
236.519	89.19
236.753	100.19
236.987	91.19
237.221	111.19
237.455	143.19
237.689	129.19
237.922	100.19
238.156	101.19
238.39	90.19
238.624	95.19
238.858	102.19
239.091	96.19
239.325	96.19
239.559	104.19
239.793	96.19
240.027	95.19
240.26	91.19
240.494	109.19
240.728	115.19
240.961	118.19
241.195	97.19
241.429	100.19
241.662	100.19
241.896	103.19
242.13	106.19
242.363	101.19
242.597	98.19
242.83	117.19
243.064	108.19
243.298	99.19
243.531	106.19
243.765	95.19
243.998	99.19
244.232	113.19
244.465	109.19
244.699	120.19
244.932	121.19
245.166	96.19
245.399	105.19
245.633	116.19
245.866	94.19
246.099	116.19
246.333	111.19
246.566	112.19
246.8	98.19
247.033	98.19
247.266	117.19
247.5	114.19
247.733	125.19
247.966	98.19
248.2	131.19
248.433	117.19
248.666	121.19
248.899	124.19
249.133	132.19
249.366	118.19
249.599	133.19
249.832	133.19
250.066	131.19
250.299	127.19
250.532	134.19
250.765	122.19
250.998	150.19
251.231	149.19
251.465	139.19
251.698	132.19
251.931	131.19
252.164	124.19
252.397	133.19
252.63	140.19
252.863	133.19
253.096	144.19
253.329	144.19
253.562	134.19
253.795	156.19
254.028	141.19
254.261	143.19
254.494	133.19
254.727	144.19
254.96	161.19
255.193	165.19
255.426	152.19
255.659	146.19
255.892	137.19
256.124	150.19
256.357	138.19
256.59	143.19
256.823	141.19
257.056	132.19
257.289	137.19
257.521	139.19
257.754	131.19
257.987	118.19
258.22	133.19
258.452	124.19
258.685	153.19
258.918	136.19
259.151	138.19
259.383	138.19
259.616	135.19
259.849	149.19
260.081	141.19
260.314	167.19
260.547	167.19
260.779	151.19
261.012	133.19
261.244	144.19
261.477	136.19
261.71	135.19
261.942	135.19
262.175	154.19
262.407	141.19
262.64	143.19
262.872	139.19
263.105	147.19
263.337	161.19
263.57	135.19
263.802	151.19
264.035	123.19
264.267	131.19
264.499	152.19
264.732	133.19
264.964	149.19
265.197	144.19
265.429	134.19
265.661	147.19
265.894	136.19
266.126	141.19
266.358	127.19
266.591	128.19
266.823	135.19
267.055	138.19
267.287	124.19
267.52	151.19
267.752	140.19
267.984	129.19
268.216	145.19
268.448	157.19
268.681	153.19
268.913	151.19
269.145	174.19
269.377	174.19
269.609	169.19
269.841	165.19
270.073	171.19
270.306	181.19
270.538	193.19
270.77	189.19
271.002	179.19
271.234	171.19
271.466	191.19
271.698	200.19
271.93	210.19
272.162	194.19
272.394	178.19
272.626	186.19
272.858	174.19
273.09	178.19
273.322	157.19
273.553	154.19
273.785	160.19
274.017	163.19
274.249	170.19
274.481	151.19
274.713	159.19
274.945	143.19
275.176	147.19
275.408	174.19
275.64	149.19
275.872	166.19
276.104	156.19
276.335	179.19
276.567	171.19
276.799	183.19
277.031	188.19
277.262	187.19
277.494	193.19
277.726	196.19
277.957	161.19
278.189	168.19
278.421	179.19
278.652	171.19
278.884	167.19
279.115	164.19
279.347	173.19
279.579	161.19
279.81	151.19
280.042	167.19
280.273	154.19
280.505	162.19
280.736	163.19
280.968	181.19
281.199	175.19
281.431	157.19
281.662	158.19
281.894	162.19
282.125	161.19
282.356	181.19
282.588	181.19
282.819	181.19
283.051	186.19
283.282	165.19
283.513	167.19
283.745	147.19
283.976	171.19
284.207	175.19
284.439	178.19
284.67	169.19
284.901	173.19
285.132	162.19
285.364	148.19
285.595	165.19
285.826	160.19
286.057	162.19
286.288	166.19
286.52	165.19
286.751	173.19
286.982	168.19
287.213	164.19
287.444	177.19
287.675	181.19
287.906	171.19
288.138	169.19
288.369	177.19
288.6	175.19
288.831	189.19
289.062	185.19
289.293	182.19
289.524	166.19
289.755	181.19
289.986	177.19
290.217	168.19
290.448	182.19
290.679	167.19
290.91	166.19
291.141	159.19
291.371	167.19
291.602	182.19
291.833	166.19
292.064	157.19
292.295	171.19
292.526	163.19
292.757	169.19
292.987	183.19
293.218	172.19
293.449	168.19
293.68	166.19
293.91	164.19
294.141	182.19
294.372	167.19
294.603	188.19
294.833	165.19
295.064	185.19
295.295	174.19
295.525	190.19
295.756	167.19
295.987	183.19
296.217	199.19
296.448	206.19
296.679	180.19
296.909	177.19
297.14	174.19
297.37	179.19
297.601	185.19
297.831	194.19
298.062	183.19
298.292	185.19
298.523	187.19
298.753	177.19
298.984	172.19
299.214	171.19
299.445	168.19
299.675	178.19
299.905	181.19
300.136	175.19
300.366	182.19
300.597	184.19
300.827	180.19
301.057	199.19
301.288	180.19
301.518	188.19
301.748	182.19
301.979	186.19
302.209	193.19
302.439	199.19
302.669	182.19
302.9	197.19
303.13	180.19
303.36	174.19
303.59	198.19
303.82	191.19
304.051	196.19
304.281	193.19
304.511	183.19
304.741	184.19
304.971	190.19
305.201	181.19
305.431	188.19
305.661	186.19
305.891	206.19
306.121	196.19
306.352	182.19
306.582	193.19
306.812	189.19
307.042	181.19
307.272	185.19
307.502	190.19
307.731	200.19
307.961	190.19
308.191	181.19
308.421	187.19
308.651	203.19
308.881	200.19
309.111	189.19
309.341	205.19
309.571	203.19
309.8	199.19
310.03	209.19
310.26	214.19
310.49	213.19
310.72	213.19
310.949	222.19
311.179	232.19
311.409	211.19
311.639	207.19
311.868	215.19
312.098	212.19
312.328	217.19
312.557	234.19
312.787	243.19
313.017	228.19
313.246	215.19
313.476	218.19
313.706	207.19
313.935	206.19
314.165	216.19
314.394	215.19
314.624	207.19
314.853	206.19
315.083	219.19
315.312	211.19
315.542	197.19
315.771	209.19
316.001	198.19
316.23	218.19
316.46	201.19
316.689	198.19
316.919	218.19
317.148	211.19
317.377	213.19
317.607	232.19
317.836	203.19
318.065	201.19
318.295	219.19
318.524	193.19
318.753	195.19
318.983	205.19
319.212	216.19
319.441	218.19
319.67	215.19
319.9	220.19
320.129	203.19
320.358	197.19
320.587	225.19
320.816	216.19
321.046	212.19
321.275	197.19
321.504	222.19
321.733	207.19
321.962	223.19
322.191	246.19
322.42	236.19
322.649	246.19
322.878	256.19
323.108	253.19
323.337	266.19
323.566	269.19
323.795	271.19
324.024	288.19
324.253	376.19
324.482	545.19
324.71	838.19
324.939	1137.19
325.168	900.19
325.397	453.19
325.626	297.19
325.855	283.19
326.084	275.19
326.313	261.19
326.542	259.19
326.77	294.19
326.999	351.19
327.228	503.19
327.457	726.19
327.686	839.19
327.914	553.19
328.143	381.19
328.372	344.19
328.6	322.19
328.829	318.19
329.058	315.19
329.287	334.19
329.515	310.19
329.744	281.19
329.972	275.19
330.201	285.19
330.43	336.19
330.658	337.19
330.887	354.19
331.115	339.19
331.344	296.19
331.572	268.19
331.801	263.19
332.03	265.19
332.258	234.19
332.486	240.19
332.715	247.19
332.943	262.19
333.172	243.19
333.4	261.19
333.629	260.19
333.857	265.19
334.085	279.19
334.314	298.19
334.542	325.19
334.771	333.19
334.999	280.19
335.227	253.19
335.455	252.19
335.684	268.19
335.912	241.19
336.14	248.19
336.369	242.19
336.597	245.19
336.825	234.19
337.053	247.19
337.281	256.19
337.51	229.19
337.738	229.19
337.966	241.19
338.194	245.19
338.422	252.19
338.65	251.19
338.878	246.19
339.106	238.19
339.334	231.19
339.562	219.19
339.79	227.19
340.018	229.19
340.246	235.19
340.474	228.19
340.702	232.19
340.93	227.19
341.158	226.19
341.386	229.19
341.614	243.19
341.842	227.19
342.07	224.19
342.298	228.19
342.526	244.19
342.754	228.19
342.981	224.19
343.209	224.19
343.437	235.19
343.665	227.19
343.893	229.19
344.12	229.19
344.348	226.19
344.576	229.19
344.804	228.19
345.031	226.19
345.259	270.19
345.487	236.19
345.714	231.19
345.942	221.19
346.17	235.19
346.397	212.19
346.625	207.19
346.853	229.19
347.08	230.19
347.308	226.19
347.535	222.19
347.763	217.19
347.99	223.19
348.218	232.19
348.445	220.19
348.673	213.19
348.9	221.19
349.128	217.19
349.355	211.19
349.583	217.19
349.81	214.19
350.037	224.19
350.265	206.19
350.492	206.19
350.72	218.19
350.947	205.19
351.174	221.19
351.402	229.19
351.629	218.19
351.856	234.19
352.083	230.19
352.311	232.19
352.538	226.19
352.765	231.19
352.992	247.19
353.22	225.19
353.447	221.19
353.674	216.19
353.901	223.19
354.128	208.19
354.355	215.19
354.583	208.19
354.81	220.19
355.037	206.19
355.264	199.19
355.491	201.19
355.718	177.19
355.945	221.19
356.172	206.19
356.399	201.19
356.626	205.19
356.853	207.19
357.08	203.19
357.307	210.19
357.534	221.19
357.761	220.19
357.988	218.19
358.215	199.19
358.441	197.19
358.668	212.19
358.895	206.19
359.122	205.19
359.349	198.19
359.576	221.19
359.802	250.19
360.029	271.19
360.256	259.19
360.483	257.19
360.709	242.19
360.936	231.19
361.163	223.19
361.39	241.19
361.616	204.19
361.843	215.19
362.07	219.19
362.296	230.19
362.523	206.19
362.749	239.19
362.976	227.19
363.203	226.19
363.429	230.19
363.656	217.19
363.882	205.19
364.109	190.19
364.335	221.19
364.562	211.19
364.788	213.19
365.015	221.19
365.241	231.19
365.468	219.19
365.694	223.19
365.92	206.19
366.147	202.19
366.373	213.19
366.599	226.19
366.826	209.19
367.052	226.19
367.278	212.19
367.505	216.19
367.731	211.19
367.957	207.19
368.184	220.19
368.41	218.19
368.636	231.19
368.862	221.19
369.089	216.19
369.315	220.19
369.541	202.19
369.767	201.19
369.993	207.19
370.219	202.19
370.445	222.19
370.672	222.19
370.898	215.19
371.124	225.19
371.35	204.19
371.576	209.19
371.802	228.19
372.028	209.19
372.254	214.19
372.48	216.19
372.706	201.19
372.932	218.19
373.158	199.19
373.384	198.19
373.61	233.19
373.835	215.19
374.061	214.19
374.287	229.19
374.513	217.19
374.739	225.19
374.965	206.19
375.191	197.19
375.416	213.19
375.642	203.19
375.868	213.19
376.094	220.19
376.319	205.19
376.545	211.19
376.771	212.19
376.997	193.19
377.222	199.19
377.448	209.19
377.674	205.19
377.899	210.19
378.125	198.19
378.35	210.19
378.576	204.19
378.802	193.19
379.027	223.19
379.253	212.19
379.478	205.19
379.704	207.19
379.929	213.19
380.155	209.19
380.38	202.19
380.606	200.19
380.831	207.19
381.057	208.19
381.282	204.19
381.507	222.19
381.733	211.19
381.958	207.19
382.184	229.19
382.409	221.19
382.634	214.19
382.86	219.19
383.085	214.19
383.31	218.19
383.535	209.19
383.761	210.19
383.986	212.19
384.211	222.19
384.436	206.19
384.662	217.19
384.887	216.19
385.112	214.19
385.337	214.19
385.562	217.19
385.787	220.19
386.013	220.19
386.238	230.19
386.463	241.19
386.688	222.19
386.913	228.19
387.138	214.19
387.363	230.19
387.588	213.19
387.813	233.19
388.038	222.19
388.263	225.19
388.488	221.19
388.713	242.19
388.938	225.19
389.163	212.19
389.387	217.19
389.612	241.19
389.837	228.19
390.062	229.19
390.287	213.19
390.512	217.19
390.736	205.19
390.961	222.19
391.186	219.19
391.411	215.19
391.636	206.19
391.86	236.19
392.085	228.19
392.31	225.19
392.534	241.19
392.759	232.19
392.984	224.19
393.208	229.19
393.433	222.19
393.658	245.19
393.882	219.19
394.107	237.19
394.331	222.19
394.556	215.19
394.78	226.19
395.005	248.19
395.229	220.19
395.454	229.19
395.678	229.19
395.903	218.19
396.127	254.19
396.352	263.19
396.576	233.19
396.801	230.19
397.025	233.19
397.249	237.19
397.474	233.19
397.698	246.19
397.922	245.19
398.147	245.19
398.371	253.19
398.595	247.19
398.82	252.19
399.044	245.19
399.268	259.19
399.492	269.19
399.717	305.19
399.941	291.19
400.165	309.19
400.389	298.19
400.613	280.19
400.837	262.19
401.062	260.19
401.286	252.19
401.51	258.19
401.734	248.19
401.958	250.19
402.182	249.19
402.406	265.19
402.63	271.19
402.854	250.19
403.078	261.19
403.302	259.19
403.526	265.19
403.75	262.19
403.974	261.19
404.198	250.19
404.422	258.19
404.645	264.19
404.869	243.19
405.093	286.19
405.317	307.19
405.541	315.19
405.765	269.19
405.988	271.19
406.212	285.19
406.436	293.19
406.66	318.19
406.883	282.19
407.107	301.19
407.331	314.19
407.555	343.19
407.778	338.19
408.002	319.19
408.226	298.19
408.449	275.19
408.673	265.19
408.896	294.19
409.12	307.19
409.344	295.19
409.567	257.19
409.791	271.19
410.014	263.19
410.238	241.19
410.461	263.19
410.685	267.19
410.908	282.19
411.132	285.19
411.355	292.19
411.578	309.19
411.802	250.19
412.025	262.19
412.249	261.19
412.472	269.19
412.695	298.19
412.919	277.19
413.142	270.19
413.365	269.19
413.589	254.19
413.812	242.19
414.035	243.19
414.258	261.19
414.482	229.19
414.705	261.19
414.928	254.19
415.151	241.19
415.374	236.19
415.597	246.19
415.821	255.19
416.044	260.19
416.267	235.19
416.49	227.19
416.713	244.19
416.936	254.19
417.159	238.19
417.382	234.19
417.605	257.19
417.828	249.19
418.051	262.19
418.274	250.19
418.497	254.19
418.72	250.19
418.943	254.19
419.166	243.19
419.389	277.19
419.611	265.19
419.834	259.19
420.057	254.19
420.28	256.19
420.503	251.19
420.726	271.19
420.948	248.19
421.171	291.19
421.394	311.19
421.617	259.19
421.839	266.19
422.062	261.19
422.285	266.19
422.507	307.19
422.73	324.19
422.953	295.19
423.175	281.19
423.398	281.19
423.621	283.19
423.843	269.19
424.066	279.19
424.288	277.19
424.511	283.19
424.733	307.19
424.956	353.19
425.178	332.19
425.401	330.19
425.623	320.19
425.846	271.19
426.068	246.19
426.291	285.19
426.513	257.19
426.735	294.19
426.958	296.19
427.18	334.19
427.402	385.19
427.625	426.19
427.847	391.19
428.069	335.19
428.292	295.19
428.514	274.19
428.736	261.19
428.958	265.19
429.181	247.19
429.403	261.19
429.625	253.19
429.847	270.19
430.069	295.19
430.292	328.19
430.514	275.19
430.736	273.19
430.958	265.19
431.18	247.19
431.402	259.19
431.624	244.19
431.846	231.19
432.068	255.19
432.29	246.19
432.512	236.19
432.734	243.19
432.956	249.19
433.178	243.19
433.4	257.19
433.622	248.19
433.844	254.19
434.066	265.19
434.287	241.19
434.509	243.19
434.731	245.19
434.953	246.19
435.175	246.19
435.397	277.19
435.618	283.19
435.84	293.19
436.062	330.19
436.284	374.19
436.505	297.19
436.727	269.19
436.949	261.19
437.17	281.19
437.392	252.19
437.614	280.19
437.835	282.19
438.057	326.19
438.278	379.19
438.5	359.19
438.721	371.19
438.943	366.19
439.165	305.19
439.386	262.19
439.608	283.19
439.829	284.19
440.05	287.19
440.272	334.19
440.493	285.19
440.715	267.19
440.936	254.19
441.158	293.19
441.379	249.19
441.6	278.19
441.822	288.19
442.043	290.19
442.264	345.19
442.486	341.19
442.707	293.19
442.928	306.19
443.149	296.19
443.371	316.19
443.592	321.19
443.813	357.19
444.034	366.19
444.255	312.19
444.476	289.19
444.698	283.19
444.919	293.19
445.14	380.19
445.361	317.19
445.582	301.19
445.803	337.19
446.024	370.19
446.245	403.19
446.466	343.19
446.687	314.19
446.908	283.19
447.129	244.19
447.35	265.19
447.571	255.19
447.792	255.19
448.013	258.19
448.234	271.19
448.455	268.19
448.675	359.19
448.896	377.19
449.117	322.19
449.338	319.19
449.559	357.19
449.779	387.19
450	311.19
450.221	245.19
450.442	267.19
450.662	265.19
450.883	283.19
451.104	270.19
451.324	261.19
451.545	249.19
451.766	250.19
451.986	214.19
452.207	237.19
452.428	260.19
452.648	250.19
452.869	255.19
453.089	246.19
453.31	243.19
453.53	266.19
453.751	247.19
453.971	248.19
454.192	272.19
454.412	249.19
454.633	237.19
454.853	255.19
455.073	233.19
455.294	245.19
455.514	283.19
455.734	270.19
455.955	231.19
456.175	222.19
456.395	207.19
456.616	214.19
456.836	227.19
457.056	225.19
457.276	205.19
457.497	218.19
457.717	247.19
457.937	225.19
458.157	224.19
458.377	229.19
458.598	248.19
458.818	289.19
459.038	339.19
459.258	328.19
459.478	262.19
459.698	275.19
459.918	236.19
460.138	237.19
460.358	250.19
460.578	240.19
460.798	250.19
461.018	242.19
461.238	269.19
461.458	253.19
461.678	226.19
461.898	257.19
462.118	241.19
462.338	247.19
462.558	262.19
462.777	250.19
462.997	277.19
463.217	281.19
463.437	265.19
463.657	280.19
463.876	249.19
464.096	271.19
464.316	257.19
464.536	266.19
464.755	265.19
464.975	262.19
465.195	310.19
465.414	360.19
465.634	293.19
465.854	275.19
466.073	246.19
466.293	237.19
466.512	239.19
466.732	238.19
466.951	256.19
467.171	235.19
467.391	250.19
467.61	241.19
467.829	249.19
468.049	254.19
468.268	258.19
468.488	247.19
468.707	232.19
468.927	226.19
469.146	222.19
469.365	230.19
469.585	253.19
469.804	242.19
470.023	263.19
470.243	236.19
470.462	232.19
470.681	271.19
470.901	263.19
471.12	233.19
471.339	244.19
471.558	253.19
471.777	237.19
471.997	250.19
472.216	265.19
472.435	283.19
472.654	284.19
472.873	256.19
473.092	242.19
473.311	239.19
473.53	231.19
473.749	246.19
473.968	273.19
474.187	326.19
474.406	339.19
474.625	278.19
474.844	248.19
475.063	226.19
475.282	226.19
475.501	254.19
475.72	239.19
475.939	257.19
476.158	248.19
476.377	267.19
476.596	238.19
476.814	243.19
477.033	244.19
477.252	262.19
477.471	261.19
477.69	250.19
477.908	268.19
478.127	258.19
478.346	245.19
478.564	273.19
478.783	275.19
479.002	280.19
479.22	288.19
479.439	282.19
479.658	292.19
479.876	301.19
480.095	293.19
480.313	308.19
480.532	290.19
480.751	293.19
480.969	320.19
481.188	361.19
481.406	406.19
481.624	329.19
481.843	281.19
482.061	283.19
482.28	294.19
482.498	289.19
482.717	280.19
482.935	281.19
483.153	269.19
483.372	276.19
483.59	281.19
483.808	291.19
484.027	298.19
484.245	284.19
484.463	292.19
484.681	317.19
484.9	271.19
485.118	311.19
485.336	274.19
485.554	279.19
485.772	289.19
485.99	270.19
486.209	276.19
486.427	306.19
486.645	307.19
486.863	318.19
487.081	318.19
487.299	306.19
487.517	303.19
487.735	309.19
487.953	294.19
488.171	308.19
488.389	301.19
488.607	284.19
488.825	285.19
489.043	297.19
489.261	291.19
489.479	301.19
489.696	306.19
489.914	295.19
490.132	329.19
490.35	307.19
490.568	325.19
490.786	320.19
491.003	337.19
491.221	325.19
491.439	354.19
491.657	364.19
491.874	356.19
492.092	356.19
492.31	354.19
492.527	365.19
492.745	348.19
492.963	355.19
493.18	359.19
493.398	358.19
493.615	374.19
493.833	348.19
494.05	356.19
494.268	343.19
494.485	369.19
494.703	351.19
494.92	354.19
495.138	370.19
495.355	343.19
495.573	366.19
495.79	362.19
496.008	345.19
496.225	363.19
496.442	336.19
496.66	356.19
496.877	348.19
497.094	371.19
497.312	371.19
497.529	372.19
497.746	357.19
497.963	342.19
498.181	363.19
498.398	358.19
498.615	378.19
498.832	385.19
499.049	375.19
499.267	387.19
499.484	422.19
499.701	426.19
499.918	430.19
500.135	449.19
500.352	439.19
500.569	459.19
500.786	465.19
501.003	468.19
501.22	445.19
501.437	443.19
501.654	425.19
501.871	452.19
502.088	420.19
502.305	386.19
502.522	389.19
502.739	373.19
502.956	369.19
503.172	355.19
503.389	349.19
503.606	361.19
503.823	376.19
504.04	341.19
504.256	339.19
504.473	342.19
504.69	328.19
504.907	333.19
505.123	328.19
505.34	346.19
505.557	331.19
505.773	331.19
505.99	332.19
506.207	343.19
506.423	325.19
506.64	318.19
506.856	315.19
507.073	342.19
507.289	322.19
507.506	336.19
507.722	342.19
507.939	357.19
508.155	331.19
508.372	315.19
508.588	322.19
508.805	315.19
509.021	335.19
509.238	322.19
509.454	338.19
509.67	332.19
509.887	327.19
510.103	324.19
510.319	341.19
510.536	419.19
510.752	797.19
510.968	581.19
511.184	323.19
511.401	313.19
511.617	293.19
511.833	308.19
512.049	309.19
512.265	302.19
512.481	286.19
512.698	296.19
512.914	286.19
513.13	305.19
513.346	316.19
513.562	316.19
513.778	314.19
513.994	314.19
514.21	319.19
514.426	343.19
514.642	359.19
514.858	362.19
515.074	398.19
515.29	513.19
515.506	883.19
515.721	678.19
515.937	397.19
516.153	349.19
516.369	328.19
516.585	313.19
516.801	312.19
517.016	318.19
517.232	307.19
517.448	329.19
517.664	316.19
517.879	289.19
518.095	324.19
518.311	322.19
518.527	301.19
518.742	300.19
518.958	308.19
519.173	301.19
519.389	303.19
519.605	295.19
519.82	293.19
520.036	327.19
520.251	331.19
520.467	334.19
520.682	321.19
520.898	345.19
521.113	353.19
521.329	388.19
521.544	445.19
521.76	652.19
521.975	1223.19
522.19	1160.19
522.406	554.19
522.621	360.19
522.836	321.19
523.052	317.19
523.267	285.19
523.482	278.19
523.698	282.19
523.913	277.19
524.128	277.19
524.343	266.19
524.559	274.19
524.774	260.19
524.989	277.19
525.204	250.19
525.419	270.19
525.634	284.19
525.849	259.19
526.064	262.19
526.28	250.19
526.495	250.19
526.71	246.19
526.925	240.19
527.14	257.19
527.355	263.19
527.57	243.19
527.785	236.19
527.999	240.19
528.214	245.19
528.429	253.19
528.644	263.19
528.859	254.19
529.074	263.19
529.289	265.19
529.503	337.19
529.718	326.19
529.933	259.19
530.148	254.19
530.363	245.19
530.577	241.19
530.792	250.19
531.007	251.19
531.221	261.19
531.436	221.19
531.651	233.19
531.865	240.19
532.08	231.19
532.295	241.19
532.509	236.19
532.724	235.19
532.938	234.19
533.153	233.19
533.367	250.19
533.582	229.19
533.796	238.19
534.011	225.19
534.225	228.19
534.44	242.19
534.654	218.19
534.868	227.19
535.083	253.19
535.297	236.19
535.511	231.19
535.726	235.19
535.94	237.19
536.154	238.19
536.369	227.19
536.583	223.19
536.797	230.19
537.011	235.19
537.225	233.19
537.44	234.19
537.654	224.19
537.868	227.19
538.082	229.19
538.296	224.19
538.51	226.19
538.724	249.19
538.938	226.19
539.153	237.19
539.367	249.19
539.581	240.19
539.795	231.19
540.009	226.19
540.222	226.19
540.436	228.19
540.65	240.19
540.864	231.19
541.078	236.19
541.292	241.19
541.506	233.19
541.72	235.19
541.934	226.19
542.147	230.19
542.361	228.19
542.575	233.19
542.789	238.19
543.002	243.19
543.216	257.19
543.43	231.19
543.644	244.19
543.857	236.19
544.071	249.19
544.285	243.19
544.498	230.19
544.712	233.19
544.925	229.19
545.139	227.19
545.352	241.19
545.566	238.19
545.779	227.19
545.993	238.19
546.206	248.19
546.42	226.19
546.633	229.19
546.847	229.19
547.06	231.19
547.274	224.19
547.487	229.19
547.7	221.19
547.914	227.19
548.127	241.19
548.34	228.19
548.554	222.19
548.767	223.19
548.98	223.19
549.193	221.19
549.407	231.19
549.62	217.19
549.833	229.19
550.046	227.19
550.259	242.19
550.473	219.19
550.686	225.19
550.899	209.19
551.112	223.19
551.325	198.19
551.538	218.19
551.751	215.19
551.964	215.19
552.177	215.19
552.39	225.19
552.603	226.19
552.816	225.19
553.029	219.19
553.242	234.19
553.455	237.19
553.667	221.19
553.88	246.19
554.093	218.19
554.306	223.19
554.519	228.19
554.732	231.19
554.944	218.19
555.157	215.19
555.37	221.19
555.583	206.19
555.795	223.19
556.008	224.19
556.221	217.19
556.433	212.19
556.646	223.19
556.859	218.19
557.071	204.19
557.284	206.19
557.496	206.19
557.709	212.19
557.921	207.19
558.134	220.19
558.346	197.19
558.559	205.19
558.771	191.19
558.984	201.19
559.196	184.19
559.409	194.19
559.621	190.19
559.833	195.19
560.046	213.19
560.258	192.19
560.47	189.19
560.683	210.19
560.895	195.19
561.107	186.19
561.32	189.19
561.532	201.19
561.744	199.19
561.956	193.19
562.168	194.19
562.381	201.19
562.593	198.19
562.805	213.19
563.017	206.19
563.229	201.19
563.441	207.19
563.653	197.19
563.865	214.19
564.077	205.19
564.289	207.19
564.501	216.19
564.713	210.19
564.925	215.19
565.137	219.19
565.349	205.19
565.561	194.19
565.773	212.19
565.985	213.19
566.197	205.19
566.408	210.19
566.62	229.19
566.832	217.19
567.044	228.19
567.255	233.19
567.467	225.19
567.679	233.19
567.891	237.19
568.102	239.19
568.314	221.19
568.526	238.19
568.737	214.19
568.949	211.19
569.161	210.19
569.372	217.19
569.584	209.19
569.795	196.19
570.007	199.19
570.218	230.19
570.43	220.19
570.641	186.19
570.853	184.19
571.064	184.19
571.276	201.19
571.487	189.19
571.698	180.19
571.91	173.19
572.121	182.19
572.333	195.19
572.544	193.19
572.755	180.19
572.966	198.19
573.178	195.19
573.389	189.19
573.6	190.19
573.811	178.19
574.023	169.19
574.234	175.19
574.445	181.19
574.656	175.19
574.867	170.19
575.078	173.19
575.289	168.19
575.501	177.19
575.712	167.19
575.923	172.19
576.134	168.19
576.345	176.19
576.556	174.19
576.767	161.19
576.978	181.19
577.188	168.19
577.399	182.19
577.61	175.19
577.821	163.19
578.032	186.19
578.243	198.19
578.454	387.19
578.665	265.19
578.875	166.19
579.086	172.19
579.297	171.19
579.508	180.19
579.718	179.19
579.929	156.19
580.14	162.19
580.35	155.19
580.561	173.19
580.772	161.19
580.982	158.19
581.193	162.19
581.403	152.19
581.614	163.19
581.825	168.19
582.035	175.19
582.246	165.19
582.456	175.19
582.667	156.19
582.877	169.19
583.087	163.19
583.298	166.19
583.508	171.19
583.719	173.19
583.929	157.19
584.139	147.19
584.35	161.19
584.56	162.19
584.77	164.19
584.981	167.19
585.191	161.19
585.401	152.19
585.611	177.19
585.821	171.19
586.032	164.19
586.242	151.19
586.452	165.19
586.662	164.19
586.872	141.19
587.082	168.19
587.292	162.19
587.502	149.19
587.713	142.19
587.923	164.19
588.133	170.19
588.343	156.19
588.553	156.19
588.762	165.19
588.972	153.19
589.182	155.19
589.392	163.19
589.602	164.19
589.812	169.19
590.022	156.19
590.232	156.19
590.441	149.19
590.651	165.19
590.861	157.19
591.071	166.19
591.281	160.19
591.49	157.19
591.7	153.19
591.91	163.19
592.119	169.19
592.329	164.19
592.539	141.19
592.748	165.19
592.958	169.19
593.167	166.19
593.377	157.19
593.587	164.19
593.796	166.19
594.006	177.19
594.215	167.19
594.424	177.19
594.634	168.19
594.843	151.19
595.053	173.19
595.262	163.19
595.472	159.19
595.681	151.19
595.89	166.19
596.1	177.19
596.309	159.19
596.518	166.19
596.727	157.19
596.937	163.19
597.146	142.19
597.355	156.19
597.564	145.19
597.774	159.19
597.983	149.19
598.192	153.19
598.401	155.19
598.61	155.19
598.819	156.19
599.028	135.19
599.237	149.19
599.446	144.19
599.655	154.19
599.864	149.19
600.073	161.19
600.282	162.19
600.491	144.19
600.7	143.19
600.909	145.19
601.118	149.19
601.327	149.19
601.536	146.19
601.745	158.19
601.953	139.19
602.162	152.19
602.371	145.19
602.58	136.19
602.789	139.19
602.997	137.19
603.206	150.19
603.415	141.19
603.623	137.19
603.832	144.19
604.041	146.19
604.249	149.19
604.458	153.19
604.666	142.19
604.875	134.19
605.084	157.19
605.292	140.19
605.501	136.19
605.709	147.19
605.918	130.19
606.126	137.19
606.334	136.19
606.543	138.19
606.751	136.19
606.96	128.19
607.168	147.19
607.376	147.19
607.585	146.19
607.793	155.19
608.001	137.19
608.21	143.19
608.418	145.19
608.626	156.19
608.834	146.19
609.043	151.19
609.251	144.19
609.459	142.19
609.667	151.19
609.875	139.19
610.083	141.19
610.291	144.19
610.499	153.19
610.707	139.19
610.916	141.19
611.124	139.19
611.332	143.19
611.54	142.19
611.748	161.19
611.955	146.19
612.163	153.19
612.371	143.19
612.579	167.19
612.787	145.19
612.995	134.19
613.203	167.19
613.411	135.19
613.618	154.19
613.826	152.19
614.034	149.19
614.242	133.19
614.449	140.19
614.657	139.19
614.865	147.19
615.072	148.19
615.28	152.19
615.488	145.19
615.695	132.19
615.903	133.19
616.111	136.19
616.318	144.19
616.526	132.19
616.733	152.19
616.941	127.19
617.148	144.19
617.356	127.19
617.563	143.19
617.771	125.19
617.978	136.19
618.185	129.19
618.393	141.19
618.6	133.19
618.807	138.19
619.015	138.19
619.222	150.19
619.429	133.19
619.637	134.19
619.844	153.19
620.051	143.19
620.258	144.19
620.466	150.19
620.673	137.19
620.88	121.19
621.087	124.19
621.294	122.19
621.501	141.19
621.708	129.19
621.915	158.19
622.122	139.19
622.329	143.19
622.536	138.19
622.743	144.19
622.95	135.19
623.157	153.19
623.364	137.19
623.571	113.19
623.778	126.19
623.985	134.19
624.192	132.19
624.399	134.19
624.606	142.19
624.812	122.19
625.019	138.19
625.226	136.19
625.433	140.19
625.639	124.19
625.846	123.19
626.053	133.19
626.259	143.19
626.466	133.19
626.673	122.19
626.879	127.19
627.086	127.19
627.293	123.19
627.499	130.19
627.706	131.19
627.912	127.19
628.119	131.19
628.325	135.19
628.532	122.19
628.738	129.19
628.945	116.19
629.151	129.19
629.357	122.19
629.564	126.19
629.77	118.19
629.976	113.19
630.183	129.19
630.389	129.19
630.595	135.19
630.802	129.19
631.008	119.19
631.214	126.19
631.42	138.19
631.627	129.19
631.833	118.19
632.039	115.19
632.245	131.19
632.451	133.19
632.657	124.19
632.863	119.19
633.069	118.19
633.275	133.19
633.481	123.19
633.688	116.19
633.893	136.19
634.099	117.19
634.305	128.19
634.511	121.19
634.717	119.19
634.923	106.19
635.129	125.19
635.335	119.19
635.541	124.19
635.747	129.19
635.952	118.19
636.158	122.19
636.364	127.19
636.57	130.19
636.775	125.19
636.981	102.19
637.187	121.19
637.392	121.19
637.598	120.19
637.804	124.19
638.009	115.19
638.215	119.19
638.421	121.19
638.626	125.19
638.832	126.19
639.037	111.19
639.243	122.19
639.448	106.19
639.654	143.19
639.859	121.19
640.065	117.19
640.27	119.19
640.475	115.19
640.681	111.19
640.886	126.19
641.091	122.19
641.297	117.19
641.502	131.19
641.707	127.19
641.913	109.19
642.118	119.19
642.323	125.19
642.528	124.19
642.733	118.19
642.939	106.19
643.144	117.19
643.349	115.19
643.554	113.19
643.759	108.19
643.964	93.19
644.169	107.19
644.374	121.19
644.579	138.19
644.784	113.19
644.989	119.19
645.194	124.19
645.399	122.19
645.604	119.19
645.809	117.19
646.014	115.19
646.219	116.19
646.423	106.19
646.628	108.19
646.833	126.19
647.038	114.19
647.243	113.19
647.447	117.19
647.652	113.19
647.857	114.19
648.062	105.19
648.266	129.19
648.471	115.19
648.676	125.19
648.88	117.19
649.085	123.19
649.289	114.19
649.494	110.19
649.698	126.19
649.903	115.19
650.107	123.19
650.312	115.19
650.516	109.19
650.721	126.19
650.925	111.19
651.13	109.19
651.334	110.19
651.539	119.19
651.743	102.19
651.947	103.19
652.152	104.19
652.356	125.19
652.56	104.19
652.764	104.19
652.969	100.19
653.173	121.19
653.377	103.19
653.581	102.19
653.785	105.19
653.99	104.19
654.194	110.19
654.398	118.19
654.602	117.19
654.806	103.19
655.01	111.19
655.214	115.19
655.418	105.19
655.622	100.19
655.826	107.19
656.03	108.19
656.234	98.19
656.438	114.19
656.642	119.19
656.846	114.19
657.049	126.19
657.253	121.19
657.457	104.19
657.661	109.19
657.865	106.19
658.068	87.19
658.272	95.19
658.476	103.19
658.68	81.19
658.883	87.19
659.087	90.19
659.291	92.19
659.494	78.19
659.698	93.19
659.901	79.19
660.105	83.19
660.309	92.19
660.512	101.19
660.716	92.19
660.919	73.19
661.123	87.19
661.326	87.19
661.53	103.19
661.733	94.19
661.936	101.19
662.14	92.19
662.343	88.19
662.546	77.19
662.75	81.19
662.953	87.19
663.156	86.19
663.36	80.19
663.563	85.19
663.766	79.19
663.969	76.19
664.173	79.19
664.376	73.19
664.579	88.19
664.782	84.19
664.985	91.19
665.188	77.19
665.391	68.19
665.594	82.19
665.797	77.19
666	89.19
666.203	76.19
666.406	83.19
666.609	85.19
666.812	82.19
667.015	78.19
667.218	88.19
667.421	83.19
667.624	91.19
667.827	87.19
668.03	84.19
668.232	80.19
668.435	76.19
668.638	92.19
668.841	84.19
669.043	77.19
669.246	85.19
669.449	75.19
669.651	89.19
669.854	87.19
670.057	77.19
670.259	83.19
670.462	72.19
670.665	95.19
670.867	70.19
671.07	89.19
671.272	78.19
671.475	84.19
671.677	74.19
671.88	83.19
672.082	70.19
672.284	84.19
672.487	70.19
672.689	73.19
672.892	96.19
