Data from 1966.PennyLincolnUp.Lamp.En5.5.200Scan.071719.P1._HRD10591_14-13-10-913.txt Node
Date: Thu Jul 18 14:13:10 EDT 2019
User: cochatt
Spectrometer: HR+D1059
Trigger mode: 1
Integration Time (sec): 1.000000E-1
Scans to average: 1
Electric dark correction enabled: true
Nonlinearity correction enabled: false
Boxcar width: 0
XAxis mode: Wavelengths
Number of Pixels in Spectrum: 2048
>>>>>Begin Spectral Data<<<<<
223.165	-20.81
223.4	-20.81
223.635	-20.81
223.869	-10.81
224.104	-15.81
224.338	-25.81
224.573	-16.81
224.808	-5.81
225.042	-12.81
225.277	4.19
225.511	-8.81
225.746	0.19
225.98	11.19
226.215	16.19
226.449	15.19
226.683	18.19
226.918	25.19
227.152	27.19
227.387	31.19
227.621	33.19
227.856	49.19
228.09	53.19
228.324	57.19
228.559	49.19
228.793	60.19
229.027	72.19
229.262	82.19
229.496	93.19
229.73	101.19
229.964	101.19
230.199	100.19
230.433	92.19
230.667	97.19
230.901	94.19
231.136	92.19
231.37	87.19
231.604	83.19
231.838	88.19
232.072	84.19
232.306	104.19
232.541	85.19
232.775	84.19
233.009	91.19
233.243	91.19
233.477	91.19
233.711	91.19
233.945	95.19
234.179	96.19
234.413	89.19
234.647	89.19
234.881	103.19
235.115	93.19
235.349	106.19
235.583	96.19
235.817	88.19
236.051	97.19
236.285	90.19
236.519	100.19
236.753	107.19
236.987	106.19
237.221	115.19
237.455	129.19
237.689	117.19
237.922	81.19
238.156	89.19
238.39	91.19
238.624	105.19
238.858	98.19
239.091	91.19
239.325	95.19
239.559	88.19
239.793	95.19
240.027	102.19
240.26	105.19
240.494	122.19
240.728	97.19
240.961	104.19
241.195	108.19
241.429	98.19
241.662	94.19
241.896	102.19
242.13	103.19
242.363	100.19
242.597	108.19
242.83	109.19
243.064	102.19
243.298	105.19
243.531	92.19
243.765	103.19
243.998	96.19
244.232	116.19
244.465	110.19
244.699	110.19
244.932	107.19
245.166	98.19
245.399	105.19
245.633	110.19
245.866	134.19
246.099	93.19
246.333	106.19
246.566	110.19
246.8	109.19
247.033	92.19
247.266	106.19
247.5	116.19
247.733	97.19
247.966	127.19
248.2	108.19
248.433	115.19
248.666	120.19
248.899	120.19
249.133	130.19
249.366	129.19
249.599	116.19
249.832	121.19
250.066	127.19
250.299	134.19
250.532	123.19
250.765	147.19
250.998	146.19
251.231	142.19
251.465	126.19
251.698	125.19
251.931	107.19
252.164	122.19
252.397	116.19
252.63	123.19
252.863	138.19
253.096	128.19
253.329	150.19
253.562	129.19
253.795	142.19
254.028	135.19
254.261	131.19
254.494	139.19
254.727	154.19
254.96	182.19
255.193	152.19
255.426	134.19
255.659	144.19
255.892	147.19
256.124	143.19
256.357	144.19
256.59	127.19
256.823	134.19
257.056	124.19
257.289	120.19
257.521	142.19
257.754	146.19
257.987	131.19
258.22	134.19
258.452	138.19
258.685	128.19
258.918	129.19
259.151	127.19
259.383	131.19
259.616	134.19
259.849	144.19
260.081	137.19
260.314	162.19
260.547	152.19
260.779	158.19
261.012	125.19
261.244	127.19
261.477	140.19
261.71	133.19
261.942	144.19
262.175	139.19
262.407	146.19
262.64	110.19
262.872	139.19
263.105	135.19
263.337	133.19
263.57	136.19
263.802	127.19
264.035	137.19
264.267	132.19
264.499	126.19
264.732	141.19
264.964	130.19
265.197	139.19
265.429	123.19
265.661	137.19
265.894	129.19
266.126	122.19
266.358	123.19
266.591	143.19
266.823	125.19
267.055	135.19
267.287	120.19
267.52	127.19
267.752	141.19
267.984	119.19
268.216	132.19
268.448	147.19
268.681	137.19
268.913	124.19
269.145	163.19
269.377	153.19
269.609	156.19
269.841	157.19
270.073	152.19
270.306	185.19
270.538	179.19
270.77	177.19
271.002	165.19
271.234	157.19
271.466	168.19
271.698	181.19
271.93	181.19
272.162	192.19
272.394	173.19
272.626	158.19
272.858	158.19
273.09	163.19
273.322	160.19
273.553	149.19
273.785	153.19
274.017	156.19
274.249	153.19
274.481	135.19
274.713	149.19
274.945	155.19
275.176	161.19
275.408	143.19
275.64	151.19
275.872	146.19
276.104	155.19
276.335	154.19
276.567	163.19
276.799	155.19
277.031	180.19
277.262	179.19
277.494	176.19
277.726	169.19
277.957	160.19
278.189	153.19
278.421	165.19
278.652	167.19
278.884	149.19
279.115	147.19
279.347	138.19
279.579	148.19
279.81	151.19
280.042	141.19
280.273	158.19
280.505	166.19
280.736	152.19
280.968	152.19
281.199	182.19
281.431	150.19
281.662	141.19
281.894	146.19
282.125	152.19
282.356	153.19
282.588	160.19
282.819	183.19
283.051	182.19
283.282	150.19
283.513	163.19
283.745	152.19
283.976	162.19
284.207	153.19
284.439	157.19
284.67	167.19
284.901	171.19
285.132	157.19
285.364	149.19
285.595	157.19
285.826	156.19
286.057	161.19
286.288	159.19
286.52	164.19
286.751	156.19
286.982	153.19
287.213	159.19
287.444	156.19
287.675	163.19
287.906	176.19
288.138	168.19
288.369	167.19
288.6	176.19
288.831	167.19
289.062	161.19
289.293	163.19
289.524	168.19
289.755	159.19
289.986	159.19
290.217	167.19
290.448	159.19
290.679	159.19
290.91	163.19
291.141	153.19
291.371	157.19
291.602	159.19
291.833	169.19
292.064	169.19
292.295	165.19
292.526	169.19
292.757	171.19
292.987	165.19
293.218	174.19
293.449	159.19
293.68	171.19
293.91	161.19
294.141	153.19
294.372	148.19
294.603	163.19
294.833	183.19
295.064	166.19
295.295	156.19
295.525	169.19
295.756	159.19
295.987	174.19
296.217	181.19
296.448	196.19
296.679	173.19
296.909	175.19
297.14	168.19
297.37	154.19
297.601	167.19
297.831	176.19
298.062	172.19
298.292	175.19
298.523	173.19
298.753	169.19
298.984	166.19
299.214	167.19
299.445	163.19
299.675	172.19
299.905	175.19
300.136	181.19
300.366	156.19
300.597	165.19
300.827	179.19
301.057	181.19
301.288	191.19
301.518	188.19
301.748	185.19
301.979	176.19
302.209	188.19
302.439	183.19
302.669	169.19
302.9	172.19
303.13	169.19
303.36	192.19
303.59	188.19
303.82	176.19
304.051	179.19
304.281	180.19
304.511	156.19
304.741	187.19
304.971	192.19
305.201	169.19
305.431	181.19
305.661	185.19
305.891	173.19
306.121	164.19
306.352	178.19
306.582	188.19
306.812	190.19
307.042	189.19
307.272	167.19
307.502	174.19
307.731	193.19
307.961	170.19
308.191	185.19
308.421	165.19
308.651	187.19
308.881	177.19
309.111	181.19
309.341	189.19
309.571	191.19
309.8	182.19
310.03	198.19
310.26	182.19
310.49	197.19
310.72	212.19
310.949	211.19
311.179	201.19
311.409	199.19
311.639	199.19
311.868	212.19
312.098	205.19
312.328	198.19
312.557	204.19
312.787	220.19
313.017	226.19
313.246	209.19
313.476	186.19
313.706	196.19
313.935	201.19
314.165	216.19
314.394	201.19
314.624	190.19
314.853	205.19
315.083	198.19
315.312	184.19
315.542	198.19
315.771	193.19
316.001	184.19
316.23	188.19
316.46	191.19
316.689	190.19
316.919	211.19
317.148	201.19
317.377	204.19
317.607	202.19
317.836	196.19
318.065	193.19
318.295	193.19
318.524	203.19
318.753	181.19
318.983	201.19
319.212	196.19
319.441	219.19
319.67	206.19
319.9	175.19
320.129	185.19
320.358	198.19
320.587	198.19
320.816	198.19
321.046	197.19
321.275	199.19
321.504	209.19
321.733	184.19
321.962	203.19
322.191	204.19
322.42	223.19
322.649	227.19
322.878	217.19
323.108	244.19
323.337	234.19
323.566	250.19
323.795	258.19
324.024	283.19
324.253	341.19
324.482	475.19
324.71	688.19
324.939	939.19
325.168	773.19
325.397	399.19
325.626	267.19
325.855	246.19
326.084	235.19
326.313	245.19
326.542	256.19
326.77	280.19
326.999	325.19
327.228	403.19
327.457	613.19
327.686	693.19
327.914	462.19
328.143	317.19
328.372	295.19
328.6	296.19
328.829	256.19
329.058	282.19
329.287	308.19
329.515	269.19
329.744	283.19
329.972	261.19
330.201	272.19
330.43	301.19
330.658	304.19
330.887	315.19
331.115	302.19
331.344	259.19
331.572	243.19
331.801	251.19
332.03	246.19
332.258	219.19
332.486	214.19
332.715	232.19
332.943	232.19
333.172	222.19
333.4	224.19
333.629	263.19
333.857	257.19
334.085	247.19
334.314	242.19
334.542	272.19
334.771	301.19
334.999	263.19
335.227	235.19
335.455	222.19
335.684	224.19
335.912	220.19
336.14	214.19
336.369	223.19
336.597	219.19
336.825	224.19
337.053	234.19
337.281	218.19
337.51	216.19
337.738	214.19
337.966	214.19
338.194	211.19
338.422	205.19
338.65	230.19
338.878	217.19
339.106	230.19
339.334	228.19
339.562	216.19
339.79	206.19
340.018	204.19
340.246	203.19
340.474	237.19
340.702	221.19
340.93	215.19
341.158	223.19
341.386	187.19
341.614	211.19
341.842	208.19
342.07	232.19
342.298	217.19
342.526	197.19
342.754	195.19
342.981	214.19
343.209	209.19
343.437	214.19
343.665	220.19
343.893	211.19
344.12	219.19
344.348	223.19
344.576	221.19
344.804	213.19
345.031	230.19
345.259	214.19
345.487	217.19
345.714	202.19
345.942	213.19
346.17	210.19
346.397	203.19
346.625	195.19
346.853	201.19
347.08	207.19
347.308	201.19
347.535	196.19
347.763	221.19
347.99	200.19
348.218	232.19
348.445	230.19
348.673	219.19
348.9	203.19
349.128	197.19
349.355	210.19
349.583	191.19
349.81	188.19
350.037	208.19
350.265	211.19
350.492	203.19
350.72	205.19
350.947	204.19
351.174	211.19
351.402	224.19
351.629	220.19
351.856	208.19
352.083	211.19
352.311	232.19
352.538	219.19
352.765	213.19
352.992	213.19
353.22	206.19
353.447	204.19
353.674	201.19
353.901	202.19
354.128	201.19
354.355	185.19
354.583	184.19
354.81	200.19
355.037	204.19
355.264	203.19
355.491	190.19
355.718	193.19
355.945	202.19
356.172	210.19
356.399	189.19
356.626	187.19
356.853	190.19
357.08	187.19
357.307	204.19
357.534	192.19
357.761	201.19
357.988	205.19
358.215	218.19
358.441	203.19
358.668	199.19
358.895	191.19
359.122	201.19
359.349	202.19
359.576	199.19
359.802	222.19
360.029	251.19
360.256	243.19
360.483	221.19
360.709	207.19
360.936	213.19
361.163	204.19
361.39	209.19
361.616	223.19
361.843	201.19
362.07	212.19
362.296	219.19
362.523	208.19
362.749	205.19
362.976	207.19
363.203	203.19
363.429	201.19
363.656	208.19
363.882	188.19
364.109	212.19
364.335	213.19
364.562	196.19
364.788	191.19
365.015	202.19
365.241	212.19
365.468	202.19
365.694	220.19
365.92	207.19
366.147	212.19
366.373	189.19
366.599	192.19
366.826	195.19
367.052	193.19
367.278	205.19
367.505	201.19
367.731	195.19
367.957	190.19
368.184	202.19
368.41	216.19
368.636	220.19
368.862	189.19
369.089	206.19
369.315	196.19
369.541	187.19
369.767	195.19
369.993	206.19
370.219	200.19
370.445	205.19
370.672	183.19
370.898	211.19
371.124	205.19
371.35	201.19
371.576	203.19
371.802	188.19
372.028	190.19
372.254	203.19
372.48	216.19
372.706	195.19
372.932	197.19
373.158	205.19
373.384	188.19
373.61	222.19
373.835	207.19
374.061	190.19
374.287	192.19
374.513	202.19
374.739	214.19
374.965	197.19
375.191	215.19
375.416	217.19
375.642	201.19
375.868	202.19
376.094	192.19
376.319	184.19
376.545	201.19
376.771	189.19
376.997	216.19
377.222	195.19
377.448	206.19
377.674	208.19
377.899	200.19
378.125	196.19
378.35	201.19
378.576	197.19
378.802	200.19
379.027	214.19
379.253	195.19
379.478	187.19
379.704	193.19
379.929	197.19
380.155	193.19
380.38	198.19
380.606	197.19
380.831	185.19
381.057	201.19
381.282	197.19
381.507	194.19
381.733	209.19
381.958	195.19
382.184	200.19
382.409	181.19
382.634	198.19
382.86	206.19
383.085	199.19
383.31	191.19
383.535	212.19
383.761	221.19
383.986	207.19
384.211	211.19
384.436	204.19
384.662	205.19
384.887	212.19
385.112	213.19
385.337	199.19
385.562	197.19
385.787	198.19
386.013	215.19
386.238	227.19
386.463	198.19
386.688	190.19
386.913	209.19
387.138	214.19
387.363	214.19
387.588	214.19
387.813	234.19
388.038	220.19
388.263	217.19
388.488	216.19
388.713	224.19
388.938	215.19
389.163	213.19
389.387	199.19
389.612	225.19
389.837	215.19
390.062	220.19
390.287	205.19
390.512	218.19
390.736	205.19
390.961	213.19
391.186	207.19
391.411	219.19
391.636	204.19
391.86	217.19
392.085	223.19
392.31	221.19
392.534	231.19
392.759	216.19
392.984	212.19
393.208	217.19
393.433	222.19
393.658	234.19
393.882	214.19
394.107	217.19
394.331	217.19
394.556	216.19
394.78	205.19
395.005	214.19
395.229	209.19
395.454	203.19
395.678	228.19
395.903	219.19
396.127	226.19
396.352	212.19
396.576	215.19
396.801	225.19
397.025	224.19
397.249	222.19
397.474	241.19
397.698	207.19
397.922	229.19
398.147	238.19
398.371	229.19
398.595	227.19
398.82	244.19
399.044	239.19
399.268	250.19
399.492	264.19
399.717	264.19
399.941	274.19
400.165	269.19
400.389	285.19
400.613	271.19
400.837	248.19
401.062	230.19
401.286	232.19
401.51	233.19
401.734	222.19
401.958	216.19
402.182	252.19
402.406	244.19
402.63	235.19
402.854	246.19
403.078	228.19
403.302	224.19
403.526	245.19
403.75	245.19
403.974	236.19
404.198	228.19
404.422	241.19
404.645	257.19
404.869	268.19
405.093	245.19
405.317	277.19
405.541	279.19
405.765	273.19
405.988	259.19
406.212	270.19
406.436	288.19
406.66	273.19
406.883	279.19
407.107	280.19
407.331	279.19
407.555	308.19
407.778	305.19
408.002	287.19
408.226	285.19
408.449	265.19
408.673	273.19
408.896	294.19
409.12	284.19
409.344	277.19
409.567	245.19
409.791	239.19
410.014	240.19
410.238	251.19
410.461	230.19
410.685	230.19
410.908	237.19
411.132	260.19
411.355	287.19
411.578	289.19
411.802	255.19
412.025	222.19
412.249	246.19
412.472	261.19
412.695	265.19
412.919	255.19
413.142	272.19
413.365	238.19
413.589	248.19
413.812	257.19
414.035	229.19
414.258	255.19
414.482	229.19
414.705	240.19
414.928	237.19
415.151	250.19
415.374	229.19
415.597	257.19
415.821	234.19
416.044	233.19
416.267	233.19
416.49	252.19
416.713	225.19
416.936	228.19
417.159	239.19
417.382	236.19
417.605	244.19
417.828	237.19
418.051	245.19
418.274	241.19
418.497	240.19
418.72	238.19
418.943	245.19
419.166	261.19
419.389	253.19
419.611	253.19
419.834	252.19
420.057	248.19
420.28	248.19
420.503	248.19
420.726	233.19
420.948	253.19
421.171	266.19
421.394	281.19
421.617	251.19
421.839	227.19
422.062	252.19
422.285	245.19
422.507	275.19
422.73	299.19
422.953	296.19
423.175	238.19
423.398	258.19
423.621	262.19
423.843	283.19
424.066	255.19
424.288	254.19
424.511	259.19
424.733	294.19
424.956	308.19
425.178	298.19
425.401	308.19
425.623	307.19
425.846	285.19
426.068	263.19
426.291	271.19
426.513	251.19
426.735	248.19
426.958	291.19
427.18	323.19
427.402	357.19
427.625	385.19
427.847	353.19
428.069	309.19
428.292	268.19
428.514	260.19
428.736	243.19
428.958	238.19
429.181	227.19
429.403	238.19
429.625	245.19
429.847	257.19
430.069	290.19
430.292	293.19
430.514	260.19
430.736	239.19
430.958	247.19
431.18	233.19
431.402	235.19
431.624	230.19
431.846	224.19
432.068	243.19
432.29	238.19
432.512	239.19
432.734	231.19
432.956	236.19
433.178	246.19
433.4	256.19
433.622	224.19
433.844	222.19
434.066	244.19
434.287	235.19
434.509	227.19
434.731	231.19
434.953	238.19
435.175	254.19
435.397	239.19
435.618	253.19
435.84	264.19
436.062	299.19
436.284	333.19
436.505	290.19
436.727	275.19
436.949	245.19
437.17	267.19
437.392	244.19
437.614	251.19
437.835	281.19
438.057	313.19
438.278	336.19
438.5	340.19
438.721	359.19
438.943	343.19
439.165	289.19
439.386	281.19
439.608	273.19
439.829	269.19
440.05	279.19
440.272	274.19
440.493	277.19
440.715	243.19
440.936	244.19
441.158	246.19
441.379	246.19
441.6	245.19
441.822	267.19
442.043	263.19
442.264	314.19
442.486	325.19
442.707	271.19
442.928	284.19
443.149	279.19
443.371	307.19
443.592	304.19
443.813	338.19
444.034	357.19
444.255	299.19
444.476	286.19
444.698	269.19
444.919	257.19
445.14	338.19
445.361	311.19
445.582	274.19
445.803	315.19
446.024	368.19
446.245	363.19
446.466	334.19
446.687	295.19
446.908	277.19
447.129	243.19
447.35	244.19
447.571	221.19
447.792	217.19
448.013	251.19
448.234	251.19
448.455	279.19
448.675	315.19
448.896	360.19
449.117	306.19
449.338	319.19
449.559	348.19
449.779	378.19
450	307.19
450.221	276.19
450.442	248.19
450.662	225.19
450.883	229.19
451.104	265.19
451.324	246.19
451.545	226.19
451.766	221.19
451.986	205.19
452.207	213.19
452.428	231.19
452.648	227.19
452.869	231.19
453.089	234.19
453.31	250.19
453.53	236.19
453.751	214.19
453.971	219.19
454.192	220.19
454.412	224.19
454.633	216.19
454.853	215.19
455.073	217.19
455.294	238.19
455.514	271.19
455.734	258.19
455.955	232.19
456.175	215.19
456.395	211.19
456.616	207.19
456.836	209.19
457.056	214.19
457.276	216.19
457.497	219.19
457.717	220.19
457.937	208.19
458.157	204.19
458.377	221.19
458.598	228.19
458.818	265.19
459.038	305.19
459.258	301.19
459.478	250.19
459.698	233.19
459.918	234.19
460.138	257.19
460.358	248.19
460.578	238.19
460.798	240.19
461.018	230.19
461.238	233.19
461.458	227.19
461.678	227.19
461.898	231.19
462.118	219.19
462.338	222.19
462.558	246.19
462.777	234.19
462.997	264.19
463.217	239.19
463.437	255.19
463.657	246.19
463.876	244.19
464.096	251.19
464.316	283.19
464.536	262.19
464.755	245.19
464.975	263.19
465.195	299.19
465.414	321.19
465.634	286.19
465.854	237.19
466.073	241.19
466.293	231.19
466.512	229.19
466.732	224.19
466.951	240.19
467.171	233.19
467.391	219.19
467.61	228.19
467.829	243.19
468.049	229.19
468.268	233.19
468.488	234.19
468.707	223.19
468.927	230.19
469.146	219.19
469.365	222.19
469.585	228.19
469.804	220.19
470.023	244.19
470.243	232.19
470.462	236.19
470.681	260.19
470.901	247.19
471.12	225.19
471.339	222.19
471.558	229.19
471.777	237.19
471.997	222.19
472.216	249.19
472.435	263.19
472.654	261.19
472.873	245.19
473.092	210.19
473.311	225.19
473.53	224.19
473.749	230.19
473.968	246.19
474.187	300.19
474.406	310.19
474.625	243.19
474.844	251.19
475.063	216.19
475.282	239.19
475.501	232.19
475.72	244.19
475.939	239.19
476.158	236.19
476.377	225.19
476.596	230.19
476.814	261.19
477.033	263.19
477.252	244.19
477.471	247.19
477.69	243.19
477.908	235.19
478.127	226.19
478.346	235.19
478.564	252.19
478.783	227.19
479.002	254.19
479.22	275.19
479.439	251.19
479.658	277.19
479.876	263.19
480.095	278.19
480.313	291.19
480.532	278.19
480.751	275.19
480.969	285.19
481.188	317.19
481.406	341.19
481.624	302.19
481.843	277.19
482.061	243.19
482.28	257.19
482.498	249.19
482.717	264.19
482.935	244.19
483.153	255.19
483.372	259.19
483.59	275.19
483.808	247.19
484.027	252.19
484.245	272.19
484.463	260.19
484.681	272.19
484.9	256.19
485.118	268.19
485.336	280.19
485.554	266.19
485.772	263.19
485.99	259.19
486.209	279.19
486.427	274.19
486.645	269.19
486.863	286.19
487.081	288.19
487.299	295.19
487.517	284.19
487.735	286.19
487.953	283.19
488.171	285.19
488.389	269.19
488.607	287.19
488.825	294.19
489.043	279.19
489.261	303.19
489.479	285.19
489.696	279.19
489.914	293.19
490.132	292.19
490.35	289.19
490.568	292.19
490.786	323.19
491.003	311.19
491.221	328.19
491.439	323.19
491.657	330.19
491.874	327.19
492.092	327.19
492.31	339.19
492.527	336.19
492.745	322.19
492.963	335.19
493.18	349.19
493.398	325.19
493.615	336.19
493.833	334.19
494.05	332.19
494.268	339.19
494.485	343.19
494.703	324.19
494.92	337.19
495.138	335.19
495.355	331.19
495.573	316.19
495.79	326.19
496.008	321.19
496.225	335.19
496.442	332.19
496.66	316.19
496.877	317.19
497.094	323.19
497.312	315.19
497.529	348.19
497.746	340.19
497.963	331.19
498.181	342.19
498.398	342.19
498.615	352.19
498.832	375.19
499.049	363.19
499.267	356.19
499.484	397.19
499.701	406.19
499.918	408.19
500.135	425.19
500.352	439.19
500.569	443.19
500.786	452.19
501.003	449.19
501.22	395.19
501.437	421.19
501.654	399.19
501.871	421.19
502.088	391.19
502.305	371.19
502.522	365.19
502.739	353.19
502.956	359.19
503.172	326.19
503.389	315.19
503.606	328.19
503.823	319.19
504.04	329.19
504.256	319.19
504.473	322.19
504.69	303.19
504.907	326.19
505.123	322.19
505.34	316.19
505.557	309.19
505.773	321.19
505.99	316.19
506.207	321.19
506.423	322.19
506.64	304.19
506.856	296.19
507.073	301.19
507.289	307.19
507.506	299.19
507.722	307.19
507.939	321.19
508.155	309.19
508.372	305.19
508.588	297.19
508.805	297.19
509.021	284.19
509.238	301.19
509.454	289.19
509.67	320.19
509.887	288.19
510.103	289.19
510.319	307.19
510.536	377.19
510.752	683.19
510.968	519.19
511.184	319.19
511.401	293.19
511.617	297.19
511.833	263.19
512.049	295.19
512.265	281.19
512.481	277.19
512.698	279.19
512.914	269.19
513.13	293.19
513.346	281.19
513.562	269.19
513.778	283.19
513.994	285.19
514.21	283.19
514.426	307.19
514.642	330.19
514.858	344.19
515.074	374.19
515.29	459.19
515.506	727.19
515.721	572.19
515.937	359.19
516.153	329.19
516.369	301.19
516.585	296.19
516.801	285.19
517.016	298.19
517.232	273.19
517.448	296.19
517.664	291.19
517.879	280.19
518.095	296.19
518.311	293.19
518.527	267.19
518.742	251.19
518.958	281.19
519.173	279.19
519.389	284.19
519.605	287.19
519.82	264.19
520.036	281.19
520.251	303.19
520.467	312.19
520.682	325.19
520.898	307.19
521.113	320.19
521.329	340.19
521.544	413.19
521.76	551.19
521.975	1014.19
522.19	983.19
522.406	489.19
522.621	325.19
522.836	292.19
523.052	280.19
523.267	245.19
523.482	249.19
523.698	277.19
523.913	264.19
524.128	261.19
524.343	261.19
524.559	243.19
524.774	234.19
524.989	237.19
525.204	262.19
525.419	260.19
525.634	249.19
525.849	248.19
526.064	233.19
526.28	244.19
526.495	219.19
526.71	233.19
526.925	235.19
527.14	228.19
527.355	223.19
527.57	225.19
527.785	230.19
527.999	253.19
528.214	246.19
528.429	230.19
528.644	250.19
528.859	249.19
529.074	238.19
529.289	250.19
529.503	318.19
529.718	283.19
529.933	255.19
530.148	259.19
530.363	225.19
530.577	219.19
530.792	235.19
531.007	225.19
531.221	222.19
531.436	217.19
531.651	218.19
531.865	224.19
532.08	233.19
532.295	226.19
532.509	238.19
532.724	217.19
532.938	243.19
533.153	220.19
533.367	230.19
533.582	228.19
533.796	217.19
534.011	246.19
534.225	236.19
534.44	220.19
534.654	212.19
534.868	219.19
535.083	206.19
535.297	208.19
535.511	229.19
535.726	244.19
535.94	214.19
536.154	211.19
536.369	219.19
536.583	224.19
536.797	204.19
537.011	217.19
537.225	230.19
537.44	219.19
537.654	208.19
537.868	214.19
538.082	229.19
538.296	225.19
538.51	213.19
538.724	211.19
538.938	224.19
539.153	236.19
539.367	250.19
539.581	224.19
539.795	229.19
540.009	213.19
540.222	223.19
540.436	213.19
540.65	236.19
540.864	225.19
541.078	231.19
541.292	238.19
541.506	239.19
541.72	224.19
541.934	226.19
542.147	235.19
542.361	244.19
542.575	218.19
542.789	224.19
543.002	219.19
543.216	229.19
543.43	238.19
543.644	218.19
543.857	232.19
544.071	205.19
544.285	232.19
544.498	217.19
544.712	232.19
544.925	220.19
545.139	213.19
545.352	230.19
545.566	199.19
545.779	212.19
545.993	243.19
546.206	224.19
546.42	243.19
546.633	238.19
546.847	222.19
547.06	214.19
547.274	213.19
547.487	207.19
547.7	204.19
547.914	218.19
548.127	204.19
548.34	218.19
548.554	204.19
548.767	223.19
548.98	229.19
549.193	215.19
549.407	203.19
549.62	205.19
549.833	209.19
550.046	219.19
550.259	205.19
550.473	203.19
550.686	214.19
550.899	210.19
551.112	205.19
551.325	213.19
551.538	217.19
551.751	201.19
551.964	210.19
552.177	208.19
552.39	203.19
552.603	207.19
552.816	214.19
553.029	221.19
553.242	207.19
553.455	222.19
553.667	227.19
553.88	225.19
554.093	209.19
554.306	224.19
554.519	209.19
554.732	209.19
554.944	230.19
555.157	208.19
555.37	208.19
555.583	222.19
555.795	200.19
556.008	210.19
556.221	196.19
556.433	182.19
556.646	196.19
556.859	200.19
557.071	184.19
557.284	197.19
557.496	194.19
557.709	198.19
557.921	197.19
558.134	209.19
558.346	201.19
558.559	198.19
558.771	199.19
558.984	202.19
559.196	189.19
559.409	198.19
559.621	191.19
559.833	197.19
560.046	174.19
560.258	196.19
560.47	189.19
560.683	196.19
560.895	193.19
561.107	203.19
561.32	185.19
561.532	205.19
561.744	205.19
561.956	179.19
562.168	215.19
562.381	204.19
562.593	197.19
562.805	191.19
563.017	197.19
563.229	192.19
563.441	191.19
563.653	193.19
563.865	204.19
564.077	189.19
564.289	199.19
564.501	187.19
564.713	199.19
564.925	212.19
565.137	220.19
565.349	216.19
565.561	204.19
565.773	218.19
565.985	213.19
566.197	221.19
566.408	229.19
566.62	223.19
566.832	219.19
567.044	229.19
567.255	233.19
567.467	230.19
567.679	229.19
567.891	226.19
568.102	234.19
568.314	230.19
568.526	208.19
568.737	189.19
568.949	209.19
569.161	216.19
569.372	198.19
569.584	197.19
569.795	182.19
570.007	199.19
570.218	225.19
570.43	216.19
570.641	195.19
570.853	186.19
571.064	162.19
571.276	174.19
571.487	189.19
571.698	183.19
571.91	189.19
572.121	168.19
572.333	170.19
572.544	175.19
572.755	183.19
572.966	179.19
573.178	185.19
573.389	176.19
573.6	165.19
573.811	164.19
574.023	172.19
574.234	169.19
574.445	191.19
574.656	163.19
574.867	176.19
575.078	160.19
575.289	167.19
575.501	176.19
575.712	169.19
575.923	170.19
576.134	175.19
576.345	166.19
576.556	165.19
576.767	157.19
576.978	171.19
577.188	161.19
577.399	171.19
577.61	155.19
577.821	169.19
578.032	156.19
578.243	202.19
578.454	339.19
578.665	219.19
578.875	169.19
579.086	155.19
579.297	173.19
579.508	160.19
579.718	168.19
579.929	153.19
580.14	168.19
580.35	152.19
580.561	167.19
580.772	166.19
580.982	179.19
581.193	162.19
581.403	156.19
581.614	166.19
581.825	166.19
582.035	160.19
582.246	157.19
582.456	152.19
582.667	172.19
582.877	171.19
583.087	165.19
583.298	171.19
583.508	167.19
583.719	166.19
583.929	164.19
584.139	171.19
584.35	157.19
584.56	145.19
584.77	145.19
584.981	155.19
585.191	172.19
585.401	167.19
585.611	165.19
585.821	161.19
586.032	161.19
586.242	155.19
586.452	163.19
586.662	143.19
586.872	156.19
587.082	143.19
587.292	142.19
587.502	149.19
587.713	145.19
587.923	157.19
588.133	145.19
588.343	151.19
588.553	141.19
588.762	165.19
588.972	158.19
589.182	175.19
589.392	174.19
589.602	155.19
589.812	177.19
590.022	149.19
590.232	159.19
590.441	167.19
590.651	149.19
590.861	160.19
591.071	158.19
591.281	174.19
591.49	165.19
591.7	143.19
591.91	150.19
592.119	152.19
592.329	158.19
592.539	145.19
592.748	153.19
592.958	157.19
593.167	170.19
593.377	159.19
593.587	172.19
593.796	155.19
594.006	156.19
594.215	156.19
594.424	156.19
594.634	160.19
594.843	151.19
595.053	157.19
595.262	153.19
595.472	158.19
595.681	164.19
595.89	157.19
596.1	157.19
596.309	168.19
596.518	157.19
596.727	134.19
596.937	151.19
597.146	149.19
597.355	143.19
597.564	140.19
597.774	161.19
597.983	147.19
598.192	148.19
598.401	129.19
598.61	151.19
598.819	131.19
599.028	149.19
599.237	152.19
599.446	156.19
599.655	144.19
599.864	133.19
600.073	126.19
600.282	137.19
600.491	145.19
600.7	140.19
600.909	146.19
601.118	141.19
601.327	153.19
601.536	137.19
601.745	142.19
601.953	141.19
602.162	140.19
602.371	156.19
602.58	150.19
602.789	133.19
602.997	135.19
603.206	152.19
603.415	146.19
603.623	148.19
603.832	147.19
604.041	162.19
604.249	136.19
604.458	127.19
604.666	137.19
604.875	149.19
605.084	132.19
605.292	141.19
605.501	151.19
605.709	146.19
605.918	142.19
606.126	133.19
606.334	124.19
606.543	155.19
606.751	143.19
606.96	124.19
607.168	140.19
607.376	135.19
607.585	143.19
607.793	140.19
608.001	130.19
608.21	141.19
608.418	131.19
608.626	135.19
608.834	134.19
609.043	148.19
609.251	145.19
609.459	137.19
609.667	142.19
609.875	152.19
610.083	145.19
610.291	131.19
610.499	140.19
610.707	140.19
610.916	150.19
611.124	153.19
611.332	139.19
611.54	153.19
611.748	147.19
611.955	159.19
612.163	149.19
612.371	153.19
612.579	148.19
612.787	129.19
612.995	141.19
613.203	143.19
613.411	146.19
613.618	151.19
613.826	148.19
614.034	136.19
614.242	151.19
614.449	142.19
614.657	126.19
614.865	130.19
615.072	134.19
615.28	142.19
615.488	137.19
615.695	142.19
615.903	141.19
616.111	140.19
616.318	140.19
616.526	143.19
616.733	136.19
616.941	122.19
617.148	139.19
617.356	141.19
617.563	139.19
617.771	127.19
617.978	129.19
618.185	132.19
618.393	135.19
618.6	145.19
618.807	138.19
619.015	142.19
619.222	133.19
619.429	135.19
619.637	142.19
619.844	126.19
620.051	135.19
620.258	122.19
620.466	119.19
620.673	125.19
620.88	141.19
621.087	142.19
621.294	142.19
621.501	138.19
621.708	128.19
621.915	135.19
622.122	131.19
622.329	144.19
622.536	152.19
622.743	130.19
622.95	139.19
623.157	120.19
623.364	135.19
623.571	136.19
623.778	127.19
623.985	134.19
624.192	132.19
624.399	135.19
624.606	146.19
624.812	131.19
625.019	127.19
625.226	123.19
625.433	144.19
625.639	118.19
625.846	137.19
626.053	118.19
626.259	126.19
626.466	117.19
626.673	120.19
626.879	118.19
627.086	132.19
627.293	126.19
627.499	126.19
627.706	131.19
627.912	128.19
628.119	127.19
628.325	125.19
628.532	127.19
628.738	127.19
628.945	125.19
629.151	126.19
629.357	144.19
629.564	128.19
629.77	126.19
629.976	123.19
630.183	120.19
630.389	125.19
630.595	127.19
630.802	117.19
631.008	123.19
631.214	120.19
631.42	109.19
631.627	111.19
631.833	133.19
632.039	123.19
632.245	119.19
632.451	125.19
632.657	126.19
632.863	103.19
633.069	107.19
633.275	134.19
633.481	125.19
633.688	129.19
633.893	124.19
634.099	126.19
634.305	117.19
634.511	119.19
634.717	116.19
634.923	112.19
635.129	127.19
635.335	124.19
635.541	120.19
635.747	125.19
635.952	125.19
636.158	127.19
636.364	129.19
636.57	117.19
636.775	117.19
636.981	114.19
637.187	117.19
637.392	124.19
637.598	131.19
637.804	131.19
638.009	126.19
638.215	106.19
638.421	109.19
638.626	113.19
638.832	124.19
639.037	115.19
639.243	123.19
639.448	122.19
639.654	113.19
639.859	101.19
640.065	108.19
640.27	114.19
640.475	123.19
640.681	111.19
640.886	115.19
641.091	117.19
641.297	132.19
641.502	132.19
641.707	120.19
641.913	129.19
642.118	106.19
642.323	121.19
642.528	125.19
642.733	112.19
642.939	129.19
643.144	117.19
643.349	127.19
643.554	126.19
643.759	115.19
643.964	117.19
644.169	120.19
644.374	115.19
644.579	107.19
644.784	114.19
644.989	113.19
645.194	103.19
645.399	115.19
645.604	123.19
645.809	110.19
646.014	100.19
646.219	119.19
646.423	120.19
646.628	112.19
646.833	108.19
647.038	117.19
647.243	110.19
647.447	115.19
647.652	112.19
647.857	120.19
648.062	118.19
648.266	120.19
648.471	120.19
648.676	120.19
648.88	117.19
649.085	128.19
649.289	127.19
649.494	127.19
649.698	120.19
649.903	123.19
650.107	115.19
650.312	112.19
650.516	124.19
650.721	115.19
650.925	125.19
651.13	103.19
651.334	95.19
651.539	110.19
651.743	111.19
651.947	111.19
652.152	124.19
652.356	106.19
652.56	103.19
652.764	127.19
652.969	113.19
653.173	115.19
653.377	109.19
653.581	105.19
653.785	112.19
653.99	104.19
654.194	110.19
654.398	108.19
654.602	121.19
654.806	98.19
655.01	116.19
655.214	116.19
655.418	115.19
655.622	110.19
655.826	113.19
656.03	112.19
656.234	103.19
656.438	99.19
656.642	119.19
656.846	106.19
657.049	111.19
657.253	110.19
657.457	96.19
657.661	102.19
657.865	108.19
658.068	96.19
658.272	94.19
658.476	87.19
658.68	94.19
658.883	95.19
659.087	109.19
659.291	102.19
659.494	69.19
659.698	91.19
659.901	82.19
660.105	88.19
660.309	81.19
660.512	100.19
660.716	94.19
660.919	99.19
661.123	89.19
661.326	96.19
661.53	102.19
661.733	73.19
661.936	84.19
662.14	80.19
662.343	86.19
662.546	85.19
662.75	79.19
662.953	94.19
663.156	76.19
663.36	88.19
663.563	78.19
663.766	83.19
663.969	85.19
664.173	94.19
664.376	81.19
664.579	87.19
664.782	85.19
664.985	89.19
665.188	80.19
665.391	78.19
665.594	76.19
665.797	94.19
666	76.19
666.203	81.19
666.406	72.19
666.609	77.19
666.812	83.19
667.015	73.19
667.218	101.19
667.421	80.19
667.624	85.19
667.827	87.19
668.03	92.19
668.232	93.19
668.435	77.19
668.638	85.19
668.841	94.19
669.043	77.19
669.246	86.19
669.449	80.19
669.651	84.19
669.854	78.19
670.057	73.19
670.259	80.19
670.462	76.19
670.665	86.19
670.867	75.19
671.07	81.19
671.272	93.19
671.475	96.19
671.677	89.19
671.88	103.19
672.082	76.19
672.284	81.19
672.487	86.19
672.689	83.19
672.892	78.19
