Data from 1966.PennyLincolnUp.Lamp.En5.5.200Scan.071719.P1._HRD10591_14-13-54-914.txt Node
Date: Thu Jul 18 14:13:54 EDT 2019
User: cochatt
Spectrometer: HR+D1059
Trigger mode: 1
Integration Time (sec): 1.000000E-1
Scans to average: 1
Electric dark correction enabled: true
Nonlinearity correction enabled: false
Boxcar width: 0
XAxis mode: Wavelengths
Number of Pixels in Spectrum: 2048
>>>>>Begin Spectral Data<<<<<
223.165	-4
223.4	-4
223.635	-4
223.869	-14
224.104	-18
224.338	-12
224.573	-12
224.808	-3
225.042	-10
225.277	-5
225.511	-6
225.746	11
225.98	-13
226.215	-4
226.449	21
226.683	18
226.918	18
227.152	33
227.387	29
227.621	41
227.856	40
228.09	44
228.324	57
228.559	53
228.793	74
229.027	82
229.262	78
229.496	88
229.73	92
229.964	124
230.199	100
230.433	88
230.667	80
230.901	89
231.136	101
231.37	94
231.604	96
231.838	86
232.072	93
232.306	88
232.541	106
232.775	91
233.009	94
233.243	101
233.477	101
233.711	86
233.945	96
234.179	94
234.413	99
234.647	99
234.881	99
235.115	97
235.349	92
235.583	100
235.817	98
236.051	100
236.285	104
236.519	100
236.753	97
236.987	108
237.221	121
237.455	135
237.689	129
237.922	107
238.156	93
238.39	89
238.624	96
238.858	104
239.091	104
239.325	111
239.559	105
239.793	117
240.027	107
240.26	119
240.494	107
240.728	113
240.961	111
241.195	120
241.429	113
241.662	90
241.896	100
242.13	113
242.363	102
242.597	102
242.83	97
243.064	115
243.298	103
243.531	113
243.765	95
243.998	94
244.232	105
244.465	105
244.699	109
244.932	118
245.166	107
245.399	120
245.633	96
245.866	114
246.099	91
246.333	115
246.566	103
246.8	95
247.033	123
247.266	120
247.5	121
247.733	129
247.966	114
248.2	122
248.433	115
248.666	112
248.899	125
249.133	121
249.366	136
249.599	130
249.832	114
250.066	126
250.299	127
250.532	123
250.765	144
250.998	149
251.231	137
251.465	129
251.698	144
251.931	131
252.164	121
252.397	135
252.63	144
252.863	134
253.096	146
253.329	142
253.562	145
253.795	133
254.028	141
254.261	141
254.494	148
254.727	155
254.96	166
255.193	185
255.426	169
255.659	155
255.892	142
256.124	151
256.357	146
256.59	139
256.823	133
257.056	138
257.289	133
257.521	146
257.754	128
257.987	137
258.22	126
258.452	127
258.685	122
258.918	146
259.151	132
259.383	134
259.616	151
259.849	161
260.081	144
260.314	160
260.547	158
260.779	166
261.012	159
261.244	129
261.477	139
261.71	140
261.942	147
262.175	160
262.407	146
262.64	115
262.872	137
263.105	129
263.337	123
263.57	140
263.802	130
264.035	124
264.267	148
264.499	144
264.732	122
264.964	149
265.197	150
265.429	134
265.661	135
265.894	129
266.126	143
266.358	130
266.591	133
266.823	139
267.055	144
267.287	137
267.52	151
267.752	151
267.984	150
268.216	141
268.448	144
268.681	161
268.913	146
269.145	163
269.377	163
269.609	153
269.841	161
270.073	178
270.306	177
270.538	173
270.77	182
271.002	183
271.234	177
271.466	171
271.698	187
271.93	189
272.162	178
272.394	194
272.626	185
272.858	179
273.09	160
273.322	146
273.553	169
273.785	163
274.017	171
274.249	170
274.481	158
274.713	160
274.945	174
275.176	157
275.408	156
275.64	169
275.872	150
276.104	165
276.335	158
276.567	166
276.799	177
277.031	195
277.262	200
277.494	176
277.726	191
277.957	175
278.189	171
278.421	156
278.652	168
278.884	146
279.115	174
279.347	170
279.579	173
279.81	169
280.042	174
280.273	173
280.505	178
280.736	159
280.968	166
281.199	173
281.431	147
281.662	165
281.894	166
282.125	173
282.356	161
282.588	178
282.819	179
283.051	169
283.282	158
283.513	170
283.745	175
283.976	175
284.207	175
284.439	179
284.67	166
284.901	166
285.132	185
285.364	149
285.595	189
285.826	171
286.057	165
286.288	158
286.52	163
286.751	165
286.982	172
287.213	174
287.444	181
287.675	172
287.906	155
288.138	185
288.369	169
288.6	178
288.831	178
289.062	182
289.293	183
289.524	182
289.755	167
289.986	170
290.217	171
290.448	197
290.679	174
290.91	175
291.141	160
291.371	173
291.602	176
291.833	170
292.064	189
292.295	174
292.526	167
292.757	173
292.987	185
293.218	174
293.449	185
293.68	167
293.91	185
294.141	183
294.372	185
294.603	181
294.833	182
295.064	169
295.295	173
295.525	171
295.756	171
295.987	174
296.217	192
296.448	199
296.679	188
296.909	174
297.14	176
297.37	174
297.601	170
297.831	192
298.062	172
298.292	192
298.523	193
298.753	176
298.984	184
299.214	194
299.445	172
299.675	175
299.905	172
300.136	191
300.366	187
300.597	161
300.827	185
301.057	182
301.288	199
301.518	200
301.748	197
301.979	196
302.209	204
302.439	203
302.669	185
302.9	185
303.13	167
303.36	189
303.59	195
303.82	198
304.051	190
304.281	188
304.511	191
304.741	182
304.971	179
305.201	180
305.431	196
305.661	188
305.891	189
306.121	174
306.352	193
306.582	199
306.812	197
307.042	187
307.272	200
307.502	185
307.731	200
307.961	201
308.191	187
308.421	197
308.651	192
308.881	209
309.111	193
309.341	207
309.571	182
309.8	196
310.03	211
310.26	222
310.49	209
310.72	221
310.949	223
311.179	214
311.409	198
311.639	218
311.868	213
312.098	220
312.328	227
312.557	225
312.787	237
313.017	241
313.246	226
313.476	224
313.706	229
313.935	225
314.165	234
314.394	224
314.624	226
314.853	221
315.083	207
315.312	209
315.542	204
315.771	215
316.001	205
316.23	207
316.46	233
316.689	201
316.919	199
317.148	213
317.377	221
317.607	214
317.836	219
318.065	195
318.295	191
318.524	216
318.753	204
318.983	203
319.212	210
319.441	210
319.67	206
319.9	202
320.129	205
320.358	220
320.587	218
320.816	219
321.046	217
321.275	216
321.504	211
321.733	208
321.962	225
322.191	234
322.42	236
322.649	245
322.878	269
323.108	256
323.337	262
323.566	287
323.795	280
324.024	297
324.253	345
324.482	526
324.71	816
324.939	1045
325.168	829
325.397	443
325.626	321
325.855	270
326.084	241
326.313	261
326.542	271
326.77	305
326.999	351
327.228	466
327.457	703
327.686	811
327.914	531
328.143	370
328.372	343
328.6	320
328.829	294
329.058	313
329.287	323
329.515	309
329.744	267
329.972	284
330.201	270
330.43	315
330.658	329
330.887	343
331.115	333
331.344	300
331.572	271
331.801	270
332.03	261
332.258	265
332.486	262
332.715	257
332.943	247
333.172	272
333.4	245
333.629	259
333.857	248
334.085	274
334.314	297
334.542	315
334.771	307
334.999	275
335.227	266
335.455	249
335.684	238
335.912	249
336.14	245
336.369	253
336.597	249
336.825	231
337.053	252
337.281	229
337.51	242
337.738	249
337.966	234
338.194	248
338.422	222
338.65	256
338.878	240
339.106	252
339.334	230
339.562	247
339.79	242
340.018	226
340.246	227
340.474	243
340.702	237
340.93	225
341.158	225
341.386	234
341.614	217
341.842	241
342.07	226
342.298	236
342.526	216
342.754	232
342.981	235
343.209	224
343.437	219
343.665	225
343.893	228
344.12	237
344.348	232
344.576	231
344.804	236
345.031	223
345.259	240
345.487	253
345.714	230
345.942	226
346.17	223
346.397	215
346.625	217
346.853	233
347.08	215
347.308	222
347.535	225
347.763	247
347.99	221
348.218	230
348.445	241
348.673	232
348.9	240
349.128	222
349.355	214
349.583	203
349.81	214
350.037	199
350.265	214
350.492	223
350.72	232
350.947	243
351.174	231
351.402	231
351.629	220
351.856	249
352.083	229
352.311	240
352.538	240
352.765	238
352.992	225
353.22	234
353.447	226
353.674	225
353.901	214
354.128	224
354.355	219
354.583	212
354.81	212
355.037	216
355.264	228
355.491	213
355.718	224
355.945	223
356.172	203
356.399	202
356.626	217
356.853	210
357.08	220
357.307	211
357.534	215
357.761	211
357.988	217
358.215	219
358.441	225
358.668	218
358.895	213
359.122	232
359.349	225
359.576	224
359.802	242
360.029	254
360.256	256
360.483	269
360.709	229
360.936	231
361.163	238
361.39	222
361.616	232
361.843	237
362.07	234
362.296	240
362.523	205
362.749	209
362.976	228
363.203	207
363.429	203
363.656	225
363.882	196
364.109	211
364.335	214
364.562	202
364.788	221
365.015	224
365.241	215
365.468	230
365.694	228
365.92	234
366.147	225
366.373	208
366.599	218
366.826	209
367.052	207
367.278	221
367.505	206
367.731	207
367.957	208
368.184	215
368.41	228
368.636	221
368.862	241
369.089	211
369.315	211
369.541	205
369.767	210
369.993	217
370.219	225
370.445	194
370.672	205
370.898	209
371.124	209
371.35	202
371.576	214
371.802	200
372.028	207
372.254	207
372.48	202
372.706	200
372.932	214
373.158	212
373.384	217
373.61	229
373.835	228
374.061	216
374.287	218
374.513	221
374.739	210
374.965	207
375.191	210
375.416	216
375.642	209
375.868	209
376.094	210
376.319	229
376.545	215
376.771	206
376.997	196
377.222	207
377.448	217
377.674	201
377.899	214
378.125	205
378.35	193
378.576	207
378.802	218
379.027	216
379.253	204
379.478	203
379.704	215
379.929	224
380.155	202
380.38	213
380.606	199
380.831	209
381.057	206
381.282	222
381.507	226
381.733	207
381.958	199
382.184	212
382.409	190
382.634	210
382.86	213
383.085	215
383.31	209
383.535	212
383.761	206
383.986	209
384.211	221
384.436	223
384.662	229
384.887	217
385.112	234
385.337	214
385.562	216
385.787	224
386.013	225
386.238	229
386.463	223
386.688	217
386.913	216
387.138	220
387.363	234
387.588	233
387.813	227
388.038	215
388.263	214
388.488	219
388.713	228
388.938	224
389.163	233
389.387	249
389.612	218
389.837	215
390.062	208
390.287	231
390.512	225
390.736	237
390.961	232
391.186	229
391.411	220
391.636	238
391.86	238
392.085	221
392.31	223
392.534	222
392.759	236
392.984	231
393.208	223
393.433	245
393.658	237
393.882	211
394.107	230
394.331	213
394.556	221
394.78	227
395.005	220
395.229	234
395.454	231
395.678	213
395.903	236
396.127	265
396.352	236
396.576	236
396.801	246
397.025	224
397.249	245
397.474	240
397.698	233
397.922	242
398.147	258
398.371	247
398.595	263
398.82	232
399.044	250
399.268	257
399.492	274
399.717	290
399.941	289
400.165	315
400.389	293
400.613	280
400.837	281
401.062	286
401.286	251
401.51	263
401.734	261
401.958	263
402.182	253
402.406	272
402.63	264
402.854	264
403.078	273
403.302	274
403.526	258
403.75	268
403.974	262
404.198	263
404.422	282
404.645	273
404.869	273
405.093	281
405.317	300
405.541	306
405.765	298
405.988	284
406.212	297
406.436	311
406.66	309
406.883	295
407.107	309
407.331	309
407.555	336
407.778	341
408.002	302
408.226	290
408.449	273
408.673	288
408.896	291
409.12	304
409.344	281
409.567	287
409.791	282
410.014	276
410.238	263
410.461	269
410.685	270
410.908	282
411.132	294
411.355	283
411.578	291
411.802	251
412.025	269
412.249	275
412.472	286
412.695	311
412.919	290
413.142	285
413.365	258
413.589	276
413.812	258
414.035	250
414.258	259
414.482	261
414.705	240
414.928	241
415.151	250
415.374	261
415.597	259
415.821	259
416.044	246
416.267	266
416.49	269
416.713	249
416.936	264
417.159	244
417.382	268
417.605	273
417.828	272
418.051	279
418.274	235
418.497	255
418.72	246
418.943	234
419.166	257
419.389	273
419.611	263
419.834	262
420.057	287
420.28	271
420.503	253
420.726	255
420.948	267
421.171	285
421.394	306
421.617	276
421.839	271
422.062	267
422.285	271
422.507	306
422.73	319
422.953	312
423.175	279
423.398	291
423.621	302
423.843	287
424.066	283
424.288	275
424.511	294
424.733	306
424.956	355
425.178	342
425.401	329
425.623	352
425.846	290
426.068	290
426.291	286
426.513	273
426.735	283
426.958	282
427.18	334
427.402	395
427.625	417
427.847	378
428.069	329
428.292	297
428.514	289
428.736	271
428.958	284
429.181	270
429.403	267
429.625	271
429.847	283
430.069	302
430.292	304
430.514	271
430.736	268
430.958	270
431.18	253
431.402	262
431.624	255
431.846	262
432.068	266
432.29	254
432.512	250
432.734	258
432.956	265
433.178	276
433.4	250
433.622	253
433.844	250
434.066	246
434.287	246
434.509	246
434.731	253
434.953	247
435.175	276
435.397	286
435.618	289
435.84	299
436.062	333
436.284	355
436.505	274
436.727	287
436.949	267
437.17	255
437.392	270
437.614	261
437.835	282
438.057	325
438.278	379
438.5	363
438.721	377
438.943	381
439.165	304
439.386	288
439.608	275
439.829	289
440.05	291
440.272	323
440.493	304
440.715	275
440.936	271
441.158	256
441.379	259
441.6	272
441.822	279
442.043	296
442.264	356
442.486	334
442.707	282
442.928	282
443.149	319
443.371	313
443.592	326
443.813	352
444.034	355
444.255	311
444.476	288
444.698	289
444.919	266
445.14	349
445.361	366
445.582	313
445.803	352
446.024	404
446.245	380
446.466	354
446.687	279
446.908	281
447.129	273
447.35	280
447.571	264
447.792	265
448.013	265
448.234	278
448.455	311
448.675	342
448.896	368
449.117	322
449.338	314
449.559	340
449.779	410
450	318
450.221	287
450.442	267
450.662	263
450.883	270
451.104	271
451.324	262
451.545	264
451.766	236
451.986	232
452.207	244
452.428	234
452.648	257
452.869	255
453.089	253
453.31	257
453.53	237
453.751	242
453.971	248
454.192	267
454.412	269
454.633	211
454.853	234
455.073	237
455.294	237
455.514	299
455.734	276
455.955	235
456.175	227
456.395	203
456.616	234
456.836	212
457.056	231
457.276	218
457.497	221
457.717	221
457.937	238
458.157	238
458.377	226
458.598	243
458.818	287
459.038	313
459.258	333
459.478	265
459.698	272
459.918	262
460.138	250
460.358	261
460.578	257
460.798	257
461.018	248
461.238	254
461.458	272
461.678	254
461.898	265
462.118	257
462.338	264
462.558	267
462.777	284
462.997	307
463.217	289
463.437	276
463.657	252
463.876	290
464.096	272
464.316	272
464.536	262
464.755	301
464.975	280
465.195	312
465.414	358
465.634	291
465.854	281
466.073	258
466.293	250
466.512	234
466.732	234
466.951	230
467.171	255
467.391	248
467.61	281
467.829	254
468.049	264
468.268	256
468.488	256
468.707	242
468.927	232
469.146	237
469.365	241
469.585	252
469.804	247
470.023	241
470.243	247
470.462	267
470.681	273
470.901	251
471.12	246
471.339	233
471.558	253
471.777	251
471.997	237
472.216	266
472.435	311
472.654	277
472.873	240
473.092	229
473.311	240
473.53	249
473.749	250
473.968	266
474.187	337
474.406	329
474.625	274
474.844	246
475.063	247
475.282	239
475.501	238
475.72	259
475.939	234
476.158	255
476.377	247
476.596	254
476.814	262
477.033	273
477.252	250
477.471	251
477.69	256
477.908	268
478.127	266
478.346	260
478.564	285
478.783	276
479.002	289
479.22	274
479.439	297
479.658	283
479.876	290
480.095	289
480.313	298
480.532	294
480.751	303
480.969	317
481.188	367
481.406	393
481.624	323
481.843	283
482.061	285
482.28	281
482.498	291
482.717	273
482.935	298
483.153	283
483.372	268
483.59	283
483.808	285
484.027	297
484.245	294
484.463	283
484.681	299
484.9	280
485.118	292
485.336	301
485.554	282
485.772	301
485.99	265
486.209	293
486.427	289
486.645	295
486.863	320
487.081	305
487.299	304
487.517	294
487.735	295
487.953	301
488.171	298
488.389	314
488.607	297
488.825	299
489.043	302
489.261	293
489.479	311
489.696	290
489.914	305
490.132	312
490.35	309
490.568	316
490.786	327
491.003	317
491.221	358
491.439	365
491.657	337
491.874	345
492.092	350
492.31	368
492.527	358
492.745	364
492.963	360
493.18	358
493.398	377
493.615	373
493.833	387
494.05	354
494.268	371
494.485	385
494.703	353
494.92	359
495.138	348
495.355	344
495.573	358
495.79	348
496.008	350
496.225	358
496.442	346
496.66	356
496.877	343
497.094	368
497.312	362
497.529	357
497.746	354
497.963	329
498.181	387
498.398	377
498.615	369
498.832	388
499.049	379
499.267	404
499.484	399
499.701	423
499.918	428
500.135	449
500.352	477
500.569	496
500.786	485
501.003	462
501.22	447
501.437	454
501.654	437
501.871	427
502.088	414
502.305	389
502.522	377
502.739	377
502.956	354
503.172	354
503.389	368
503.606	370
503.823	356
504.04	354
504.256	339
504.473	350
504.69	353
504.907	374
505.123	347
505.34	336
505.557	359
505.773	334
505.99	326
506.207	353
506.423	338
506.64	333
506.856	323
507.073	339
507.289	327
507.506	313
507.722	360
507.939	352
508.155	326
508.372	325
508.588	308
508.805	317
509.021	310
509.238	339
509.454	330
509.67	333
509.887	335
510.103	324
510.319	335
510.536	408
510.752	793
510.968	559
511.184	343
511.401	305
511.617	299
511.833	307
512.049	305
512.265	299
512.481	320
512.698	286
512.914	287
513.13	284
513.346	300
513.562	299
513.778	318
513.994	291
514.21	326
514.426	310
514.642	349
514.858	363
515.074	400
515.29	482
515.506	807
515.721	635
515.937	388
516.153	343
516.369	336
516.585	319
516.801	317
517.016	321
517.232	311
517.448	301
517.664	311
517.879	313
518.095	306
518.311	290
518.527	307
518.742	305
518.958	302
519.173	318
519.389	300
519.605	298
519.82	319
520.036	311
520.251	323
520.467	333
520.682	332
520.898	352
521.113	350
521.329	364
521.544	442
521.76	605
521.975	1130
522.19	1082
522.406	521
522.621	369
522.836	330
523.052	319
523.267	291
523.482	279
523.698	273
523.913	289
524.128	283
524.343	257
524.559	268
524.774	266
524.989	267
525.204	275
525.419	267
525.634	266
525.849	265
526.064	258
526.28	235
526.495	254
526.71	259
526.925	247
527.14	233
527.355	245
527.57	254
527.785	245
527.999	243
528.214	245
528.429	265
528.644	259
528.859	238
529.074	251
529.289	284
529.503	345
529.718	319
529.933	276
530.148	235
530.363	271
530.577	263
530.792	251
531.007	239
531.221	227
531.436	234
531.651	259
531.865	241
532.08	242
532.295	249
532.509	231
532.724	256
532.938	239
533.153	242
533.367	244
533.582	239
533.796	242
534.011	225
534.225	237
534.44	233
534.654	247
534.868	236
535.083	228
535.297	248
535.511	246
535.726	257
535.94	251
536.154	221
536.369	241
536.583	261
536.797	241
537.011	241
537.225	238
537.44	235
537.654	234
537.868	218
538.082	221
538.296	235
538.51	236
538.724	236
538.938	236
539.153	236
539.367	253
539.581	242
539.795	234
540.009	224
540.222	221
540.436	236
540.65	247
540.864	238
541.078	241
541.292	243
541.506	246
541.72	251
541.934	243
542.147	251
542.361	240
542.575	241
542.789	237
543.002	222
543.216	237
543.43	239
543.644	230
543.857	250
544.071	235
544.285	246
544.498	237
544.712	234
544.925	230
545.139	222
545.352	251
545.566	238
545.779	222
545.993	250
546.206	233
546.42	222
546.633	227
546.847	234
547.06	227
547.274	228
547.487	232
547.7	233
547.914	225
548.127	227
548.34	235
548.554	227
548.767	246
548.98	212
549.193	234
549.407	241
549.62	225
549.833	218
550.046	234
550.259	230
550.473	223
550.686	229
550.899	237
551.112	222
551.325	218
551.538	233
551.751	223
551.964	249
552.177	240
552.39	217
552.603	238
552.816	221
553.029	226
553.242	218
553.455	227
553.667	245
553.88	245
554.093	236
554.306	221
554.519	219
554.732	230
554.944	218
555.157	195
555.37	235
555.583	213
555.795	206
556.008	211
556.221	205
556.433	219
556.646	212
556.859	211
557.071	201
557.284	206
557.496	209
557.709	205
557.921	213
558.134	214
558.346	205
558.559	210
558.771	208
558.984	211
559.196	207
559.409	208
559.621	205
559.833	201
560.046	200
560.258	219
560.47	213
560.683	197
560.895	197
561.107	186
561.32	181
561.532	222
561.744	216
561.956	211
562.168	196
562.381	226
562.593	204
562.805	214
563.017	203
563.229	215
563.441	190
563.653	199
563.865	202
564.077	202
564.289	194
564.501	201
564.713	201
564.925	201
565.137	207
565.349	215
565.561	220
565.773	192
565.985	227
566.197	223
566.408	233
566.62	225
566.832	252
567.044	235
567.255	226
567.467	252
567.679	239
567.891	237
568.102	246
568.314	250
568.526	241
568.737	227
568.949	231
569.161	211
569.372	202
569.584	197
569.795	196
570.007	207
570.218	240
570.43	227
570.641	201
570.853	202
571.064	202
571.276	200
571.487	194
571.698	185
571.91	186
572.121	171
572.333	175
572.544	203
572.755	185
572.966	177
573.178	192
573.389	173
573.6	175
573.811	178
574.023	170
574.234	183
574.445	172
574.656	188
574.867	179
575.078	190
575.289	175
575.501	171
575.712	193
575.923	181
576.134	166
576.345	184
576.556	171
576.767	167
576.978	176
577.188	199
577.399	190
577.61	186
577.821	163
578.032	171
578.243	209
578.454	377
578.665	267
578.875	166
579.086	183
579.297	172
579.508	173
579.718	165
579.929	175
580.14	171
580.35	170
580.561	178
580.772	174
580.982	169
581.193	162
581.403	160
581.614	169
581.825	159
582.035	162
582.246	158
582.456	174
582.667	178
582.877	167
583.087	158
583.298	176
583.508	188
583.719	144
583.929	153
584.139	171
584.35	157
584.56	162
584.77	172
584.981	165
585.191	170
585.401	170
585.611	174
585.821	178
586.032	161
586.242	170
586.452	167
586.662	162
586.872	168
587.082	158
587.292	159
587.502	170
587.713	170
587.923	165
588.133	163
588.343	149
588.553	157
588.762	161
588.972	147
589.182	181
589.392	177
589.602	157
589.812	167
590.022	162
590.232	139
590.441	154
590.651	159
590.861	173
591.071	159
591.281	170
591.49	150
591.7	161
591.91	169
592.119	161
592.329	174
592.539	173
592.748	190
592.958	167
593.167	160
593.377	161
593.587	169
593.796	175
594.006	173
594.215	165
594.424	159
594.634	147
594.843	165
595.053	163
595.262	151
595.472	173
595.681	160
595.89	154
596.1	167
596.309	152
596.518	153
596.727	153
596.937	151
597.146	161
597.355	148
597.564	143
597.774	153
597.983	145
598.192	144
598.401	144
598.61	157
598.819	134
599.028	133
599.237	161
599.446	156
599.655	153
599.864	148
600.073	162
600.282	137
600.491	149
600.7	149
600.909	156
601.118	147
601.327	144
601.536	151
601.745	147
601.953	148
602.162	157
602.371	143
602.58	142
602.789	167
602.997	153
603.206	141
603.415	158
603.623	164
603.832	138
604.041	140
604.249	156
604.458	146
604.666	145
604.875	135
605.084	150
605.292	145
605.501	145
605.709	148
605.918	140
606.126	137
606.334	135
606.543	154
606.751	143
606.96	147
607.168	151
607.376	139
607.585	154
607.793	149
608.001	150
608.21	157
608.418	139
608.626	147
608.834	149
609.043	140
609.251	145
609.459	163
609.667	148
609.875	155
610.083	138
610.291	150
610.499	131
610.707	141
610.916	138
611.124	157
611.332	159
611.54	156
611.748	154
611.955	153
612.163	149
612.371	131
612.579	131
612.787	142
612.995	143
613.203	153
613.411	157
613.618	156
613.826	136
614.034	145
614.242	143
614.449	138
614.657	138
614.865	148
615.072	141
615.28	125
615.488	138
615.695	148
615.903	144
616.111	144
616.318	157
616.526	140
616.733	126
616.941	139
617.148	141
617.356	141
617.563	133
617.771	151
617.978	132
618.185	145
618.393	131
618.6	138
618.807	151
619.015	127
619.222	143
619.429	141
619.637	123
619.844	127
620.051	142
620.258	161
620.466	144
620.673	145
620.88	144
621.087	137
621.294	147
621.501	133
621.708	151
621.915	145
622.122	137
622.329	148
622.536	133
622.743	125
622.95	150
623.157	137
623.364	135
623.571	152
623.778	142
623.985	145
624.192	138
624.399	131
624.606	152
624.812	127
625.019	133
625.226	137
625.433	127
625.639	118
625.846	124
626.053	146
626.259	123
626.466	115
626.673	137
626.879	126
627.086	119
627.293	136
627.499	135
627.706	139
627.912	130
628.119	129
628.325	129
628.532	125
628.738	139
628.945	126
629.151	111
629.357	123
629.564	143
629.77	131
629.976	138
630.183	134
630.389	133
630.595	127
630.802	139
631.008	119
631.214	135
631.42	127
631.627	135
631.833	129
632.039	135
632.245	131
632.451	137
632.657	122
632.863	137
633.069	121
633.275	117
633.481	112
633.688	114
633.893	111
634.099	119
634.305	125
634.511	129
634.717	145
634.923	109
635.129	111
635.335	109
635.541	129
635.747	119
635.952	124
636.158	109
636.364	127
636.57	133
636.775	132
636.981	124
637.187	121
637.392	118
637.598	114
637.804	125
638.009	121
638.215	109
638.421	112
638.626	103
638.832	119
639.037	120
639.243	129
639.448	122
639.654	125
639.859	126
640.065	126
640.27	119
640.475	107
640.681	116
640.886	129
641.091	115
641.297	118
641.502	107
641.707	123
641.913	112
642.118	120
642.323	126
642.528	127
642.733	121
642.939	118
643.144	117
643.349	117
643.554	128
643.759	133
643.964	117
644.169	117
644.374	124
644.579	115
644.784	123
644.989	120
645.194	114
645.399	121
645.604	121
645.809	112
646.014	107
646.219	109
646.423	115
646.628	123
646.833	107
647.038	129
647.243	121
647.447	113
647.652	129
647.857	127
648.062	127
648.266	120
648.471	133
648.676	126
648.88	112
649.085	121
649.289	109
649.494	134
649.698	137
649.903	143
650.107	130
650.312	112
650.516	112
650.721	130
650.925	106
651.13	123
651.334	104
651.539	115
651.743	107
651.947	115
652.152	122
652.356	113
652.56	105
652.764	117
652.969	104
653.173	98
653.377	117
653.581	113
653.785	128
653.99	107
654.194	101
654.398	92
654.602	97
654.806	111
655.01	114
655.214	112
655.418	102
655.622	111
655.826	110
656.03	110
656.234	104
656.438	102
656.642	115
656.846	128
657.049	109
657.253	107
657.457	104
657.661	101
657.865	102
658.068	94
658.272	104
658.476	109
658.68	100
658.883	81
659.087	102
659.291	92
659.494	83
659.698	83
659.901	94
660.105	93
660.309	89
660.512	88
660.716	98
660.919	96
661.123	97
661.326	82
661.53	79
661.733	90
661.936	93
662.14	91
662.343	92
662.546	101
662.75	89
662.953	86
663.156	98
663.36	75
663.563	88
663.766	102
663.969	89
664.173	85
664.376	84
664.579	82
664.782	92
664.985	89
665.188	80
665.391	78
665.594	88
665.797	83
666	90
666.203	97
666.406	91
666.609	100
666.812	79
667.015	73
667.218	83
667.421	96
667.624	89
667.827	85
668.03	79
668.232	90
668.435	81
668.638	92
668.841	93
669.043	86
669.246	86
669.449	87
669.651	78
669.854	83
670.057	85
670.259	89
670.462	84
670.665	82
670.867	99
671.07	87
671.272	110
671.475	86
671.677	78
671.88	88
672.082	75
672.284	81
672.487	86
672.689	77
672.892	84
