Data from 1966.PennyLincolnUp.Lamp.En5.5.200Scan.071719.P1._HRD10591_14-12-35-914.txt Node
Date: Thu Jul 18 14:12:35 EDT 2019
User: cochatt
Spectrometer: HR+D1059
Trigger mode: 1
Integration Time (sec): 1.000000E-1
Scans to average: 1
Electric dark correction enabled: true
Nonlinearity correction enabled: false
Boxcar width: 0
XAxis mode: Wavelengths
Number of Pixels in Spectrum: 2048
>>>>>Begin Spectral Data<<<<<
223.165	-16
223.4	-16
223.635	-16
223.869	-24
224.104	-9
224.338	-8
224.573	-18
224.808	-9
225.042	-18
225.277	-14
225.511	-10
225.746	3
225.98	11
226.215	12
226.449	7
226.683	28
226.918	33
227.152	32
227.387	29
227.621	60
227.856	52
228.09	58
228.324	52
228.559	45
228.793	69
229.027	87
229.262	102
229.496	85
229.73	87
229.964	99
230.199	99
230.433	81
230.667	101
230.901	79
231.136	87
231.37	80
231.604	89
231.838	83
232.072	93
232.306	87
232.541	104
232.775	106
233.009	87
233.243	94
233.477	87
233.711	94
233.945	98
234.179	97
234.413	96
234.647	90
234.881	89
235.115	98
235.349	98
235.583	83
235.817	97
236.051	93
236.285	91
236.519	109
236.753	107
236.987	109
237.221	124
237.455	133
237.689	131
237.922	103
238.156	95
238.39	96
238.624	124
238.858	107
239.091	109
239.325	105
239.559	95
239.793	110
240.027	94
240.26	96
240.494	106
240.728	102
240.961	118
241.195	118
241.429	89
241.662	88
241.896	100
242.13	118
242.363	87
242.597	96
242.83	109
243.064	96
243.298	92
243.531	104
243.765	118
243.998	102
244.232	111
244.465	106
244.699	94
244.932	94
245.166	110
245.399	113
245.633	113
245.866	109
246.099	120
246.333	106
246.566	98
246.8	101
247.033	100
247.266	115
247.5	113
247.733	113
247.966	107
248.2	110
248.433	107
248.666	135
248.899	124
249.133	111
249.366	121
249.599	124
249.832	113
250.066	131
250.299	135
250.532	127
250.765	124
250.998	129
251.231	145
251.465	134
251.698	121
251.931	135
252.164	121
252.397	116
252.63	121
252.863	129
253.096	138
253.329	135
253.562	141
253.795	137
254.028	145
254.261	132
254.494	142
254.727	141
254.96	145
255.193	157
255.426	135
255.659	137
255.892	122
256.124	128
256.357	140
256.59	124
256.823	126
257.056	128
257.289	132
257.521	121
257.754	122
257.987	126
258.22	127
258.452	122
258.685	129
258.918	128
259.151	130
259.383	131
259.616	143
259.849	136
260.081	139
260.314	134
260.547	141
260.779	137
261.012	139
261.244	137
261.477	132
261.71	139
261.942	144
262.175	129
262.407	146
262.64	143
262.872	129
263.105	133
263.337	135
263.57	123
263.802	117
264.035	129
264.267	122
264.499	128
264.732	132
264.964	138
265.197	137
265.429	111
265.661	141
265.894	152
266.126	131
266.358	129
266.591	137
266.823	136
267.055	141
267.287	139
267.52	142
267.752	153
267.984	138
268.216	139
268.448	152
268.681	147
268.913	141
269.145	147
269.377	158
269.609	155
269.841	147
270.073	161
270.306	158
270.538	173
270.77	161
271.002	168
271.234	168
271.466	171
271.698	162
271.93	162
272.162	171
272.394	175
272.626	166
272.858	147
273.09	168
273.322	150
273.553	141
273.785	137
274.017	146
274.249	151
274.481	145
274.713	148
274.945	161
275.176	137
275.408	134
275.64	145
275.872	157
276.104	153
276.335	158
276.567	156
276.799	173
277.031	174
277.262	176
277.494	161
277.726	167
277.957	150
278.189	155
278.421	162
278.652	153
278.884	143
279.115	142
279.347	164
279.579	140
279.81	157
280.042	163
280.273	161
280.505	154
280.736	150
280.968	151
281.199	160
281.431	166
281.662	148
281.894	134
282.125	141
282.356	163
282.588	188
282.819	165
283.051	161
283.282	137
283.513	165
283.745	160
283.976	148
284.207	152
284.439	155
284.67	160
284.901	154
285.132	148
285.364	154
285.595	145
285.826	154
286.057	162
286.288	149
286.52	163
286.751	167
286.982	174
287.213	151
287.444	157
287.675	167
287.906	164
288.138	157
288.369	167
288.6	175
288.831	155
289.062	155
289.293	169
289.524	161
289.755	155
289.986	177
290.217	160
290.448	153
290.679	170
290.91	158
291.141	153
291.371	159
291.602	163
291.833	153
292.064	147
292.295	151
292.526	157
292.757	152
292.987	162
293.218	161
293.449	183
293.68	167
293.91	162
294.141	169
294.372	163
294.603	155
294.833	168
295.064	168
295.295	168
295.525	168
295.756	143
295.987	169
296.217	177
296.448	176
296.679	168
296.909	179
297.14	154
297.37	160
297.601	147
297.831	153
298.062	169
298.292	175
298.523	181
298.753	158
298.984	170
299.214	159
299.445	177
299.675	183
299.905	169
300.136	171
300.366	169
300.597	168
300.827	164
301.057	170
301.288	168
301.518	187
301.748	173
301.979	167
302.209	181
302.439	173
302.669	164
302.9	163
303.13	174
303.36	161
303.59	167
303.82	182
304.051	178
304.281	202
304.511	169
304.741	169
304.971	183
305.201	162
305.431	171
305.661	167
305.891	169
306.121	170
306.352	176
306.582	165
306.812	184
307.042	183
307.272	177
307.502	180
307.731	183
307.961	168
308.191	169
308.421	183
308.651	171
308.881	183
309.111	181
309.341	165
309.571	171
309.8	189
310.03	197
310.26	186
310.49	200
310.72	206
310.949	219
311.179	210
311.409	183
311.639	197
311.868	194
312.098	186
312.328	192
312.557	198
312.787	198
313.017	198
313.246	195
313.476	209
313.706	190
313.935	185
314.165	201
314.394	204
314.624	207
314.853	195
315.083	203
315.312	205
315.542	194
315.771	209
316.001	207
316.23	200
316.46	179
316.689	193
316.919	189
317.148	187
317.377	193
317.607	189
317.836	192
318.065	218
318.295	194
318.524	193
318.753	178
318.983	189
319.212	201
319.441	186
319.67	206
319.9	206
320.129	194
320.358	201
320.587	187
320.816	191
321.046	215
321.275	214
321.504	207
321.733	199
321.962	200
322.191	205
322.42	227
322.649	222
322.878	232
323.108	235
323.337	254
323.566	228
323.795	256
324.024	259
324.253	306
324.482	458
324.71	675
324.939	902
325.168	741
325.397	397
325.626	281
325.855	245
326.084	227
326.313	240
326.542	240
326.77	257
326.999	323
327.228	430
327.457	578
327.686	656
327.914	445
328.143	314
328.372	280
328.6	269
328.829	269
329.058	267
329.287	273
329.515	253
329.744	234
329.972	249
330.201	262
330.43	269
330.658	294
330.887	296
331.115	295
331.344	256
331.572	237
331.801	243
332.03	245
332.258	231
332.486	217
332.715	228
332.943	209
333.172	227
333.4	229
333.629	220
333.857	239
334.085	237
334.314	263
334.542	269
334.771	264
334.999	235
335.227	266
335.455	222
335.684	219
335.912	218
336.14	206
336.369	222
336.597	220
336.825	223
337.053	223
337.281	222
337.51	227
337.738	196
337.966	203
338.194	217
338.422	245
338.65	227
338.878	226
339.106	223
339.334	210
339.562	217
339.79	207
340.018	218
340.246	195
340.474	209
340.702	190
340.93	207
341.158	204
341.386	198
341.614	202
341.842	210
342.07	216
342.298	211
342.526	205
342.754	211
342.981	199
343.209	199
343.437	196
343.665	222
343.893	212
344.12	220
344.348	211
344.576	211
344.804	206
345.031	222
345.259	228
345.487	220
345.714	211
345.942	205
346.17	192
346.397	189
346.625	196
346.853	215
347.08	198
347.308	193
347.535	210
347.763	223
347.99	223
348.218	198
348.445	200
348.673	209
348.9	205
349.128	200
349.355	201
349.583	187
349.81	195
350.037	201
350.265	203
350.492	200
350.72	200
350.947	203
351.174	183
351.402	198
351.629	223
351.856	206
352.083	198
352.311	218
352.538	204
352.765	214
352.992	204
353.22	205
353.447	212
353.674	201
353.901	206
354.128	197
354.355	198
354.583	178
354.81	207
355.037	183
355.264	187
355.491	195
355.718	205
355.945	190
356.172	193
356.399	169
356.626	188
356.853	186
357.08	206
357.307	206
357.534	201
357.761	169
357.988	192
358.215	175
358.441	193
358.668	189
358.895	198
359.122	191
359.349	205
359.576	212
359.802	211
360.029	234
360.256	224
360.483	223
360.709	207
360.936	220
361.163	204
361.39	219
361.616	193
361.843	219
362.07	210
362.296	219
362.523	186
362.749	189
362.976	209
363.203	200
363.429	189
363.656	201
363.882	189
364.109	194
364.335	204
364.562	179
364.788	185
365.015	204
365.241	207
365.468	187
365.694	197
365.92	200
366.147	193
366.373	199
366.599	193
366.826	195
367.052	198
367.278	202
367.505	202
367.731	192
367.957	181
368.184	188
368.41	206
368.636	205
368.862	195
369.089	200
369.315	187
369.541	190
369.767	199
369.993	205
370.219	196
370.445	210
370.672	191
370.898	182
371.124	208
371.35	194
371.576	202
371.802	187
372.028	200
372.254	202
372.48	191
372.706	200
372.932	183
373.158	191
373.384	190
373.61	197
373.835	207
374.061	202
374.287	197
374.513	202
374.739	206
374.965	182
375.191	203
375.416	200
375.642	202
375.868	206
376.094	207
376.319	182
376.545	202
376.771	192
376.997	187
377.222	195
377.448	199
377.674	185
377.899	189
378.125	189
378.35	203
378.576	178
378.802	176
379.027	199
379.253	192
379.478	193
379.704	183
379.929	204
380.155	200
380.38	212
380.606	202
380.831	210
381.057	186
381.282	182
381.507	203
381.733	219
381.958	196
382.184	215
382.409	188
382.634	206
382.86	185
383.085	208
383.31	214
383.535	201
383.761	203
383.986	222
384.211	196
384.436	218
384.662	195
384.887	216
385.112	194
385.337	206
385.562	202
385.787	214
386.013	221
386.238	202
386.463	192
386.688	194
386.913	205
387.138	215
387.363	211
387.588	211
387.813	206
388.038	208
388.263	217
388.488	203
388.713	196
388.938	200
389.163	209
389.387	210
389.612	200
389.837	200
390.062	204
390.287	211
390.512	206
390.736	196
390.961	200
391.186	216
391.411	216
391.636	224
391.86	203
392.085	217
392.31	224
392.534	210
392.759	203
392.984	215
393.208	219
393.433	197
393.658	214
393.882	195
394.107	214
394.331	213
394.556	222
394.78	213
395.005	227
395.229	223
395.454	212
395.678	216
395.903	241
396.127	220
396.352	217
396.576	239
396.801	233
397.025	211
397.249	213
397.474	201
397.698	209
397.922	224
398.147	206
398.371	229
398.595	238
398.82	253
399.044	222
399.268	247
399.492	253
399.717	271
399.941	273
400.165	276
400.389	267
400.613	259
400.837	248
401.062	242
401.286	239
401.51	230
401.734	240
401.958	236
402.182	250
402.406	247
402.63	234
402.854	261
403.078	232
403.302	238
403.526	249
403.75	257
403.974	240
404.198	245
404.422	238
404.645	241
404.869	258
405.093	270
405.317	281
405.541	282
405.765	257
405.988	265
406.212	249
406.436	277
406.66	285
406.883	252
407.107	280
407.331	307
407.555	312
407.778	294
408.002	271
408.226	281
408.449	261
408.673	270
408.896	261
409.12	269
409.344	273
409.567	247
409.791	244
410.014	250
410.238	241
410.461	237
410.685	237
410.908	245
411.132	270
411.355	269
411.578	260
411.802	232
412.025	226
412.249	239
412.472	250
412.695	274
412.919	243
413.142	253
413.365	225
413.589	230
413.812	239
414.035	236
414.258	242
414.482	236
414.705	241
414.928	234
415.151	247
415.374	238
415.597	233
415.821	235
416.044	233
416.267	241
416.49	236
416.713	238
416.936	240
417.159	239
417.382	238
417.605	239
417.828	242
418.051	242
418.274	233
418.497	243
418.72	226
418.943	233
419.166	234
419.389	253
419.611	252
419.834	234
420.057	268
420.28	257
420.503	255
420.726	249
420.948	239
421.171	263
421.394	264
421.617	265
421.839	246
422.062	249
422.285	245
422.507	271
422.73	286
422.953	293
423.175	254
423.398	225
423.621	250
423.843	258
424.066	264
424.288	249
424.511	267
424.733	283
424.956	309
425.178	305
425.401	289
425.623	300
425.846	263
426.068	274
426.291	265
426.513	254
426.735	255
426.958	272
427.18	296
427.402	350
427.625	387
427.847	335
428.069	306
428.292	255
428.514	240
428.736	237
428.958	235
429.181	238
429.403	251
429.625	241
429.847	256
430.069	285
430.292	285
430.514	246
430.736	241
430.958	249
431.18	219
431.402	226
431.624	226
431.846	251
432.068	229
432.29	253
432.512	247
432.734	232
432.956	241
433.178	239
433.4	234
433.622	233
433.844	231
434.066	236
434.287	231
434.509	215
434.731	233
434.953	239
435.175	245
435.397	277
435.618	270
435.84	285
436.062	296
436.284	342
436.505	275
436.727	265
436.949	249
437.17	250
437.392	227
437.614	231
437.835	274
438.057	292
438.278	331
438.5	330
438.721	351
438.943	320
439.165	270
439.386	245
439.608	249
439.829	262
440.05	275
440.272	304
440.493	276
440.715	247
440.936	240
441.158	240
441.379	245
441.6	247
441.822	252
442.043	282
442.264	306
442.486	313
442.707	270
442.928	263
443.149	271
443.371	300
443.592	302
443.813	342
444.034	329
444.255	298
444.476	253
444.698	250
444.919	275
445.14	343
445.361	322
445.582	269
445.803	293
446.024	340
446.245	332
446.466	314
446.687	271
446.908	251
447.129	245
447.35	239
447.571	229
447.792	239
448.013	242
448.234	246
448.455	270
448.675	311
448.896	348
449.117	292
449.338	295
449.559	328
449.779	363
450	323
450.221	265
450.442	233
450.662	232
450.883	263
451.104	249
451.324	249
451.545	235
451.766	227
451.986	239
452.207	214
452.428	229
452.648	226
452.869	210
453.089	223
453.31	242
453.53	214
453.751	223
453.971	214
454.192	243
454.412	228
454.633	221
454.853	210
455.073	211
455.294	209
455.514	257
455.734	260
455.955	213
456.175	227
456.395	199
456.616	213
456.836	218
457.056	203
457.276	198
457.497	202
457.717	214
457.937	191
458.157	207
458.377	227
458.598	221
458.818	258
459.038	293
459.258	294
459.478	249
459.698	221
459.918	230
460.138	227
460.358	231
460.578	242
460.798	245
461.018	242
461.238	223
461.458	235
461.678	235
461.898	219
462.118	237
462.338	227
462.558	254
462.777	239
462.997	255
463.217	256
463.437	268
463.657	240
463.876	247
464.096	259
464.316	245
464.536	270
464.755	237
464.975	269
465.195	270
465.414	293
465.634	266
465.854	244
466.073	234
466.293	227
466.512	240
466.732	227
466.951	221
467.171	218
467.391	224
467.61	255
467.829	269
468.049	229
468.268	242
468.488	232
468.707	229
468.927	211
469.146	229
469.365	224
469.585	197
469.804	237
470.023	240
470.243	230
470.462	233
470.681	247
470.901	252
471.12	220
471.339	227
471.558	251
471.777	225
471.997	225
472.216	246
472.435	266
472.654	229
472.873	242
473.092	217
473.311	214
473.53	230
473.749	237
473.968	251
474.187	285
474.406	277
474.625	238
474.844	223
475.063	241
475.282	235
475.501	227
475.72	230
475.939	240
476.158	235
476.377	233
476.596	232
476.814	229
477.033	247
477.252	241
477.471	233
477.69	239
477.908	238
478.127	253
478.346	247
478.564	248
478.783	232
479.002	240
479.22	249
479.439	245
479.658	273
479.876	283
480.095	255
480.313	281
480.532	281
480.751	271
480.969	283
481.188	312
481.406	338
481.624	283
481.843	261
482.061	252
482.28	263
482.498	260
482.717	258
482.935	261
483.153	250
483.372	250
483.59	253
483.808	257
484.027	249
484.245	269
484.463	245
484.681	268
484.9	263
485.118	258
485.336	277
485.554	261
485.772	259
485.99	252
486.209	261
486.427	263
486.645	273
486.863	262
487.081	265
487.299	276
487.517	265
487.735	259
487.953	287
488.171	283
488.389	287
488.607	268
488.825	279
489.043	277
489.261	254
489.479	277
489.696	276
489.914	307
490.132	280
490.35	303
490.568	286
490.786	304
491.003	304
491.221	315
491.439	313
491.657	304
491.874	314
492.092	331
492.31	327
492.527	320
492.745	337
492.963	334
493.18	301
493.398	352
493.615	319
493.833	309
494.05	317
494.268	325
494.485	329
494.703	315
494.92	328
495.138	319
495.355	315
495.573	333
495.79	331
496.008	320
496.225	322
496.442	330
496.66	315
496.877	308
497.094	323
497.312	330
497.529	325
497.746	331
497.963	318
498.181	343
498.398	318
498.615	336
498.832	337
499.049	350
499.267	369
499.484	377
499.701	384
499.918	392
500.135	409
500.352	422
500.569	431
500.786	440
501.003	447
501.22	427
501.437	405
501.654	394
501.871	390
502.088	383
502.305	370
502.522	351
502.739	346
502.956	334
503.172	322
503.389	313
503.606	322
503.823	325
504.04	313
504.256	309
504.473	307
504.69	302
504.907	306
505.123	317
505.34	313
505.557	307
505.773	320
505.99	311
506.207	311
506.423	288
506.64	301
506.856	295
507.073	293
507.289	302
507.506	312
507.722	321
507.939	313
508.155	303
508.372	300
508.588	303
508.805	297
509.021	289
509.238	298
509.454	304
509.67	277
509.887	278
510.103	291
510.319	303
510.536	356
510.752	660
510.968	466
511.184	314
511.401	291
511.617	280
511.833	276
512.049	263
512.265	278
512.481	279
512.698	285
512.914	271
513.13	247
513.346	261
513.562	270
513.778	281
513.994	289
514.21	289
514.426	303
514.642	296
514.858	311
515.074	336
515.29	409
515.506	691
515.721	538
515.937	347
516.153	315
516.369	306
516.585	275
516.801	279
517.016	280
517.232	272
517.448	268
517.664	277
517.879	271
518.095	283
518.311	281
518.527	272
518.742	287
518.958	283
519.173	256
519.389	267
519.605	249
519.82	280
520.036	273
520.251	287
520.467	302
520.682	305
520.898	302
521.113	293
521.329	325
521.544	401
521.76	519
521.975	955
522.19	901
522.406	438
522.621	315
522.836	273
523.052	260
523.267	270
523.482	248
523.698	254
523.913	253
524.128	278
524.343	233
524.559	245
524.774	248
524.989	265
525.204	260
525.419	261
525.634	229
525.849	240
526.064	241
526.28	223
526.495	229
526.71	229
526.925	238
527.14	216
527.355	232
527.57	258
527.785	230
527.999	203
528.214	228
528.429	223
528.644	242
528.859	241
529.074	241
529.289	247
529.503	302
529.718	281
529.933	249
530.148	249
530.363	211
530.577	224
530.792	224
531.007	214
531.221	217
531.436	211
531.651	213
531.865	205
532.08	215
532.295	225
532.509	223
532.724	212
532.938	225
533.153	223
533.367	212
533.582	211
533.796	230
534.011	222
534.225	227
534.44	209
534.654	219
534.868	223
535.083	212
535.297	228
535.511	212
535.726	240
535.94	229
536.154	224
536.369	229
536.583	213
536.797	211
537.011	223
537.225	221
537.44	225
537.654	216
537.868	195
538.082	226
538.296	221
538.51	241
538.724	217
538.938	225
539.153	218
539.367	236
539.581	211
539.795	216
540.009	218
540.222	211
540.436	203
540.65	236
540.864	242
541.078	243
541.292	212
541.506	213
541.72	222
541.934	217
542.147	221
542.361	206
542.575	212
542.789	216
543.002	226
543.216	229
543.43	213
543.644	223
543.857	219
544.071	221
544.285	215
544.498	218
544.712	238
544.925	211
545.139	206
545.352	206
545.566	229
545.779	211
545.993	219
546.206	210
546.42	203
546.633	230
546.847	205
547.06	215
547.274	207
547.487	221
547.7	217
547.914	203
548.127	209
548.34	209
548.554	211
548.767	226
548.98	208
549.193	215
549.407	201
549.62	219
549.833	218
550.046	214
550.259	208
550.473	215
550.686	215
550.899	214
551.112	203
551.325	208
551.538	209
551.751	194
551.964	197
552.177	214
552.39	207
552.603	209
552.816	206
553.029	215
553.242	229
553.455	196
553.667	221
553.88	209
554.093	222
554.306	223
554.519	216
554.732	218
554.944	209
555.157	212
555.37	194
555.583	210
555.795	198
556.008	201
556.221	201
556.433	195
556.646	172
556.859	202
557.071	201
557.284	195
557.496	200
557.709	182
557.921	184
558.134	195
558.346	192
558.559	179
558.771	193
558.984	184
559.196	195
559.409	205
559.621	202
559.833	181
560.046	190
560.258	185
560.47	199
560.683	197
560.895	163
561.107	199
561.32	188
561.532	206
561.744	177
561.956	194
562.168	191
562.381	194
562.593	187
562.805	190
563.017	197
563.229	202
563.441	198
563.653	195
563.865	199
564.077	202
564.289	190
564.501	197
564.713	198
564.925	195
565.137	193
565.349	188
565.561	191
565.773	203
565.985	208
566.197	223
566.408	202
566.62	208
566.832	235
567.044	223
567.255	216
567.467	216
567.679	211
567.891	239
568.102	234
568.314	236
568.526	206
568.737	197
568.949	194
569.161	193
569.372	189
569.584	188
569.795	207
570.007	193
570.218	227
570.43	218
570.641	196
570.853	177
571.064	187
571.276	183
571.487	198
571.698	182
571.91	177
572.121	176
572.333	196
572.544	174
572.755	187
572.966	178
573.178	161
573.389	168
573.6	177
573.811	151
574.023	170
574.234	177
574.445	171
574.656	169
574.867	162
575.078	168
575.289	168
575.501	171
575.712	179
575.923	141
576.134	166
576.345	168
576.556	192
576.767	162
576.978	160
577.188	184
577.399	162
577.61	160
577.821	168
578.032	169
578.243	198
578.454	327
578.665	229
578.875	174
579.086	170
579.297	163
579.508	165
579.718	167
579.929	166
580.14	163
580.35	161
580.561	158
580.772	149
580.982	161
581.193	151
581.403	164
581.614	150
581.825	158
582.035	157
582.246	156
582.456	162
582.667	162
582.877	148
583.087	172
583.298	147
583.508	178
583.719	156
583.929	182
584.139	159
584.35	165
584.56	165
584.77	152
584.981	161
585.191	162
585.401	158
585.611	158
585.821	158
586.032	173
586.242	146
586.452	157
586.662	167
586.872	157
587.082	149
587.292	154
587.502	155
587.713	140
587.923	153
588.133	149
588.343	148
588.553	145
588.762	158
588.972	171
589.182	189
589.392	183
589.602	164
589.812	174
590.022	183
590.232	153
590.441	171
590.651	154
590.861	144
591.071	149
591.281	154
591.49	157
591.7	147
591.91	171
592.119	168
592.329	163
592.539	164
592.748	158
592.958	170
593.167	169
593.377	169
593.587	163
593.796	167
594.006	156
594.215	166
594.424	147
594.634	160
594.843	165
595.053	156
595.262	157
595.472	174
595.681	159
595.89	146
596.1	168
596.309	144
596.518	161
596.727	151
596.937	157
597.146	147
597.355	135
597.564	154
597.774	147
597.983	136
598.192	144
598.401	150
598.61	146
598.819	154
599.028	147
599.237	128
599.446	157
599.655	139
599.864	154
600.073	146
600.282	153
600.491	138
600.7	144
600.909	150
601.118	151
601.327	146
601.536	132
601.745	142
601.953	155
602.162	130
602.371	143
602.58	151
602.789	161
602.997	153
603.206	141
603.415	139
603.623	146
603.832	144
604.041	146
604.249	144
604.458	130
604.666	137
604.875	149
605.084	131
605.292	138
605.501	143
605.709	141
605.918	138
606.126	144
606.334	146
606.543	130
606.751	143
606.96	136
607.168	147
607.376	126
607.585	121
607.793	129
608.001	136
608.21	127
608.418	130
608.626	129
608.834	136
609.043	136
609.251	131
609.459	149
609.667	152
609.875	157
610.083	130
610.291	137
610.499	143
610.707	146
610.916	151
611.124	153
611.332	154
611.54	168
611.748	142
611.955	129
612.163	136
612.371	144
612.579	126
612.787	140
612.995	132
613.203	147
613.411	153
613.618	139
613.826	132
614.034	128
614.242	154
614.449	144
614.657	141
614.865	141
615.072	139
615.28	140
615.488	127
615.695	129
615.903	129
616.111	144
616.318	135
616.526	114
616.733	129
616.941	121
617.148	138
617.356	140
617.563	144
617.771	133
617.978	121
618.185	145
618.393	145
618.6	138
618.807	137
619.015	141
619.222	119
619.429	143
619.637	153
619.844	127
620.051	136
620.258	134
620.466	142
620.673	142
620.88	129
621.087	137
621.294	134
621.501	127
621.708	142
621.915	129
622.122	127
622.329	130
622.536	146
622.743	127
622.95	146
623.157	137
623.364	147
623.571	128
623.778	132
623.985	121
624.192	134
624.399	138
624.606	135
624.812	132
625.019	124
625.226	129
625.433	133
625.639	129
625.846	128
626.053	125
626.259	115
626.466	125
626.673	139
626.879	121
627.086	128
627.293	135
627.499	132
627.706	138
627.912	136
628.119	134
628.325	111
628.532	126
628.738	131
628.945	135
629.151	131
629.357	124
629.564	129
629.77	139
629.976	130
630.183	133
630.389	131
630.595	125
630.802	122
631.008	113
631.214	131
631.42	129
631.627	140
631.833	128
632.039	117
632.245	121
632.451	112
632.657	111
632.863	134
633.069	121
633.275	121
633.481	129
633.688	129
633.893	137
634.099	138
634.305	127
634.511	114
634.717	104
634.923	121
635.129	132
635.335	123
635.541	120
635.747	124
635.952	113
636.158	124
636.364	127
636.57	134
636.775	122
636.981	124
637.187	121
637.392	117
637.598	119
637.804	124
638.009	117
638.215	118
638.421	121
638.626	115
638.832	126
639.037	125
639.243	119
639.448	133
639.654	112
639.859	120
640.065	119
640.27	129
640.475	114
640.681	119
640.886	103
641.091	115
641.297	121
641.502	113
641.707	127
641.913	123
642.118	111
642.323	122
642.528	117
642.733	113
642.939	115
643.144	120
643.349	117
643.554	115
643.759	131
643.964	130
644.169	105
644.374	112
644.579	107
644.784	109
644.989	115
645.194	106
645.399	119
645.604	121
645.809	113
646.014	113
646.219	113
646.423	118
646.628	115
646.833	131
647.038	119
647.243	115
647.447	117
647.652	133
647.857	111
648.062	124
648.266	116
648.471	122
648.676	123
648.88	124
649.085	114
649.289	124
649.494	119
649.698	120
649.903	114
650.107	106
650.312	104
650.516	123
650.721	119
650.925	112
651.13	97
651.334	114
651.539	121
651.743	101
651.947	113
652.152	114
652.356	109
652.56	105
652.764	100
652.969	124
653.173	118
653.377	122
653.581	111
653.785	94
653.99	103
654.194	109
654.398	104
654.602	115
654.806	112
655.01	110
655.214	106
655.418	103
655.622	118
655.826	116
656.03	113
656.234	101
656.438	105
656.642	107
656.846	112
657.049	116
657.253	117
657.457	103
657.661	106
657.865	94
658.068	99
658.272	88
658.476	102
658.68	87
658.883	91
659.087	98
659.291	108
659.494	92
659.698	107
659.901	99
660.105	88
660.309	95
660.512	103
660.716	97
660.919	96
661.123	90
661.326	91
661.53	93
661.733	93
661.936	104
662.14	93
662.343	91
662.546	90
662.75	109
662.953	87
663.156	87
663.36	86
663.563	79
663.766	73
663.969	80
664.173	89
664.376	86
664.579	91
664.782	88
664.985	88
665.188	83
665.391	88
665.594	84
665.797	85
666	83
666.203	98
666.406	89
666.609	80
666.812	99
667.015	95
667.218	88
667.421	90
667.624	91
667.827	95
668.03	97
668.232	86
668.435	72
668.638	99
668.841	81
669.043	86
669.246	97
669.449	84
669.651	89
669.854	92
670.057	81
670.259	91
670.462	90
670.665	70
670.867	90
671.07	80
671.272	79
671.475	93
671.677	74
671.88	71
672.082	96
672.284	96
672.487	76
672.689	85
672.892	100
