Data from 1966.PennyLincolnUp.Lamp.En5.5.200Scan.071719.P1._HRD10591_14-14-12-914.txt Node
Date: Thu Jul 18 14:14:12 EDT 2019
User: cochatt
Spectrometer: HR+D1059
Trigger mode: 1
Integration Time (sec): 1.000000E-1
Scans to average: 1
Electric dark correction enabled: true
Nonlinearity correction enabled: false
Boxcar width: 0
XAxis mode: Wavelengths
Number of Pixels in Spectrum: 2048
>>>>>Begin Spectral Data<<<<<
223.165	-12
223.4	-12
223.635	-12
223.869	-13
224.104	-26
224.338	-18
224.573	-10
224.808	-19
225.042	-28
225.277	-9
225.511	5
225.746	16
225.98	16
226.215	14
226.449	7
226.683	27
226.918	18
227.152	32
227.387	28
227.621	37
227.856	59
228.09	50
228.324	40
228.559	64
228.793	52
229.027	75
229.262	92
229.496	81
229.73	84
229.964	121
230.199	92
230.433	97
230.667	96
230.901	90
231.136	91
231.37	97
231.604	93
231.838	107
232.072	90
232.306	97
232.541	103
232.775	84
233.009	95
233.243	88
233.477	87
233.711	94
233.945	96
234.179	99
234.413	100
234.647	94
234.881	107
235.115	93
235.349	95
235.583	102
235.817	88
236.051	94
236.285	94
236.519	85
236.753	102
236.987	124
237.221	117
237.455	147
237.689	126
237.922	107
238.156	115
238.39	110
238.624	95
238.858	89
239.091	93
239.325	104
239.559	98
239.793	107
240.027	106
240.26	103
240.494	122
240.728	97
240.961	101
241.195	109
241.429	104
241.662	104
241.896	106
242.13	93
242.363	93
242.597	107
242.83	102
243.064	102
243.298	129
243.531	99
243.765	91
243.998	99
244.232	105
244.465	112
244.699	117
244.932	95
245.166	115
245.399	108
245.633	96
245.866	115
246.099	99
246.333	107
246.566	117
246.8	113
247.033	108
247.266	130
247.5	116
247.733	119
247.966	128
248.2	119
248.433	121
248.666	120
248.899	128
249.133	135
249.366	149
249.599	137
249.832	123
250.066	138
250.299	118
250.532	146
250.765	136
250.998	138
251.231	149
251.465	147
251.698	142
251.931	138
252.164	132
252.397	131
252.63	131
252.863	131
253.096	135
253.329	143
253.562	120
253.795	126
254.028	126
254.261	127
254.494	136
254.727	160
254.96	169
255.193	167
255.426	149
255.659	144
255.892	145
256.124	141
256.357	161
256.59	143
256.823	129
257.056	131
257.289	132
257.521	135
257.754	118
257.987	140
258.22	131
258.452	127
258.685	142
258.918	132
259.151	134
259.383	134
259.616	140
259.849	138
260.081	148
260.314	161
260.547	158
260.779	142
261.012	158
261.244	133
261.477	140
261.71	147
261.942	148
262.175	151
262.407	152
262.64	128
262.872	140
263.105	139
263.337	147
263.57	132
263.802	133
264.035	136
264.267	137
264.499	139
264.732	126
264.964	133
265.197	131
265.429	133
265.661	150
265.894	137
266.126	148
266.358	139
266.591	145
266.823	143
267.055	154
267.287	140
267.52	147
267.752	155
267.984	145
268.216	149
268.448	145
268.681	153
268.913	141
269.145	150
269.377	168
269.609	161
269.841	157
270.073	165
270.306	184
270.538	188
270.77	194
271.002	177
271.234	183
271.466	187
271.698	181
271.93	183
272.162	176
272.394	199
272.626	184
272.858	170
273.09	163
273.322	166
273.553	163
273.785	170
274.017	159
274.249	158
274.481	148
274.713	159
274.945	155
275.176	159
275.408	160
275.64	143
275.872	147
276.104	146
276.335	156
276.567	154
276.799	167
277.031	173
277.262	179
277.494	187
277.726	184
277.957	175
278.189	171
278.421	156
278.652	158
278.884	157
279.115	160
279.347	163
279.579	181
279.81	160
280.042	164
280.273	142
280.505	155
280.736	145
280.968	160
281.199	164
281.431	173
281.662	161
281.894	157
282.125	162
282.356	162
282.588	191
282.819	181
283.051	174
283.282	165
283.513	167
283.745	190
283.976	179
284.207	173
284.439	175
284.67	178
284.901	171
285.132	161
285.364	169
285.595	168
285.826	172
286.057	175
286.288	180
286.52	175
286.751	175
286.982	158
287.213	166
287.444	170
287.675	173
287.906	176
288.138	177
288.369	192
288.6	177
288.831	179
289.062	166
289.293	176
289.524	186
289.755	167
289.986	179
290.217	158
290.448	179
290.679	195
290.91	186
291.141	175
291.371	178
291.602	183
291.833	167
292.064	186
292.295	183
292.526	173
292.757	166
292.987	172
293.218	181
293.449	167
293.68	171
293.91	173
294.141	145
294.372	170
294.603	186
294.833	174
295.064	159
295.295	173
295.525	183
295.756	168
295.987	176
296.217	191
296.448	187
296.679	176
296.909	179
297.14	170
297.37	188
297.601	177
297.831	170
298.062	184
298.292	168
298.523	170
298.753	192
298.984	176
299.214	186
299.445	177
299.675	179
299.905	180
300.136	176
300.366	183
300.597	179
300.827	175
301.057	179
301.288	192
301.518	194
301.748	191
301.979	192
302.209	197
302.439	190
302.669	193
302.9	177
303.13	198
303.36	205
303.59	189
303.82	192
304.051	195
304.281	199
304.511	184
304.741	185
304.971	165
305.201	183
305.431	187
305.661	190
305.891	187
306.121	193
306.352	192
306.582	182
306.812	179
307.042	184
307.272	202
307.502	190
307.731	177
307.961	208
308.191	197
308.421	191
308.651	187
308.881	181
309.111	190
309.341	203
309.571	195
309.8	206
310.03	212
310.26	212
310.49	211
310.72	222
310.949	207
311.179	228
311.409	209
311.639	222
311.868	215
312.098	200
312.328	218
312.557	224
312.787	234
313.017	231
313.246	234
313.476	224
313.706	221
313.935	220
314.165	205
314.394	219
314.624	213
314.853	219
315.083	213
315.312	212
315.542	208
315.771	194
316.001	208
316.23	207
316.46	207
316.689	201
316.919	216
317.148	219
317.377	229
317.607	234
317.836	220
318.065	194
318.295	204
318.524	203
318.753	200
318.983	191
319.212	200
319.441	214
319.67	216
319.9	206
320.129	239
320.358	221
320.587	224
320.816	211
321.046	216
321.275	210
321.504	229
321.733	223
321.962	238
322.191	230
322.42	233
322.649	235
322.878	247
323.108	241
323.337	259
323.566	265
323.795	274
324.024	299
324.253	382
324.482	545
324.71	805
324.939	1066
325.168	858
325.397	443
325.626	314
325.855	267
326.084	258
326.313	253
326.542	277
326.77	296
326.999	358
327.228	468
327.457	697
327.686	808
327.914	513
328.143	388
328.372	349
328.6	305
328.829	308
329.058	297
329.287	316
329.515	309
329.744	271
329.972	280
330.201	300
330.43	318
330.658	334
330.887	352
331.115	332
331.344	276
331.572	276
331.801	280
332.03	275
332.258	273
332.486	243
332.715	245
332.943	234
333.172	247
333.4	251
333.629	266
333.857	270
334.085	262
334.314	275
334.542	294
334.771	317
334.999	291
335.227	261
335.455	240
335.684	269
335.912	232
336.14	238
336.369	244
336.597	241
336.825	239
337.053	253
337.281	237
337.51	230
337.738	255
337.966	256
338.194	249
338.422	248
338.65	232
338.878	247
339.106	225
339.334	232
339.562	223
339.79	224
340.018	235
340.246	234
340.474	230
340.702	238
340.93	230
341.158	233
341.386	231
341.614	249
341.842	243
342.07	225
342.298	229
342.526	233
342.754	206
342.981	229
343.209	221
343.437	231
343.665	211
343.893	225
344.12	227
344.348	235
344.576	241
344.804	247
345.031	232
345.259	238
345.487	238
345.714	234
345.942	241
346.17	230
346.397	216
346.625	241
346.853	217
347.08	223
347.308	226
347.535	239
347.763	234
347.99	238
348.218	222
348.445	226
348.673	224
348.9	232
349.128	225
349.355	221
349.583	204
349.81	223
350.037	209
350.265	222
350.492	203
350.72	201
350.947	222
351.174	239
351.402	238
351.629	228
351.856	219
352.083	227
352.311	238
352.538	253
352.765	235
352.992	232
353.22	220
353.447	229
353.674	223
353.901	209
354.128	200
354.355	213
354.583	207
354.81	207
355.037	218
355.264	198
355.491	202
355.718	211
355.945	201
356.172	205
356.399	204
356.626	200
356.853	217
357.08	207
357.307	208
357.534	206
357.761	204
357.988	199
358.215	213
358.441	213
358.668	218
358.895	208
359.122	223
359.349	215
359.576	236
359.802	237
360.029	265
360.256	272
360.483	251
360.709	223
360.936	233
361.163	216
361.39	236
361.616	232
361.843	218
362.07	235
362.296	224
362.523	224
362.749	218
362.976	215
363.203	203
363.429	204
363.656	214
363.882	204
364.109	235
364.335	213
364.562	212
364.788	216
365.015	225
365.241	216
365.468	224
365.694	227
365.92	225
366.147	214
366.373	216
366.599	202
366.826	205
367.052	225
367.278	218
367.505	212
367.731	217
367.957	202
368.184	219
368.41	214
368.636	239
368.862	238
369.089	212
369.315	216
369.541	212
369.767	216
369.993	220
370.219	206
370.445	221
370.672	214
370.898	215
371.124	202
371.35	209
371.576	215
371.802	190
372.028	212
372.254	201
372.48	217
372.706	205
372.932	226
373.158	211
373.384	213
373.61	220
373.835	197
374.061	222
374.287	226
374.513	206
374.739	222
374.965	199
375.191	210
375.416	205
375.642	219
375.868	219
376.094	211
376.319	209
376.545	202
376.771	214
376.997	200
377.222	207
377.448	218
377.674	217
377.899	212
378.125	214
378.35	210
378.576	206
378.802	216
379.027	209
379.253	210
379.478	195
379.704	202
379.929	188
380.155	227
380.38	206
380.606	215
380.831	221
381.057	206
381.282	210
381.507	216
381.733	221
381.958	221
382.184	209
382.409	211
382.634	214
382.86	215
383.085	235
383.31	210
383.535	223
383.761	220
383.986	223
384.211	225
384.436	220
384.662	217
384.887	208
385.112	229
385.337	213
385.562	220
385.787	207
386.013	235
386.238	224
386.463	240
386.688	228
386.913	215
387.138	231
387.363	222
387.588	227
387.813	238
388.038	220
388.263	205
388.488	220
388.713	231
388.938	224
389.163	223
389.387	232
389.612	224
389.837	211
390.062	220
390.287	220
390.512	209
390.736	216
390.961	220
391.186	217
391.411	225
391.636	219
391.86	216
392.085	226
392.31	229
392.534	228
392.759	215
392.984	213
393.208	213
393.433	220
393.658	217
393.882	252
394.107	235
394.331	217
394.556	224
394.78	230
395.005	235
395.229	216
395.454	232
395.678	224
395.903	243
396.127	255
396.352	238
396.576	224
396.801	238
397.025	232
397.249	223
397.474	229
397.698	227
397.922	236
398.147	259
398.371	253
398.595	243
398.82	240
399.044	261
399.268	260
399.492	295
399.717	293
399.941	294
400.165	302
400.389	307
400.613	281
400.837	257
401.062	266
401.286	254
401.51	261
401.734	269
401.958	248
402.182	251
402.406	266
402.63	260
402.854	281
403.078	267
403.302	263
403.526	266
403.75	261
403.974	262
404.198	253
404.422	285
404.645	259
404.869	273
405.093	280
405.317	288
405.541	307
405.765	281
405.988	271
406.212	295
406.436	300
406.66	311
406.883	261
407.107	292
407.331	311
407.555	331
407.778	338
408.002	291
408.226	296
408.449	267
408.673	286
408.896	298
409.12	319
409.344	274
409.567	267
409.791	272
410.014	266
410.238	272
410.461	242
410.685	247
410.908	281
411.132	273
411.355	289
411.578	283
411.802	270
412.025	257
412.249	271
412.472	277
412.695	311
412.919	269
413.142	267
413.365	248
413.589	259
413.812	273
414.035	254
414.258	262
414.482	250
414.705	257
414.928	251
415.151	260
415.374	238
415.597	257
415.821	251
416.044	246
416.267	258
416.49	234
416.713	251
416.936	261
417.159	266
417.382	273
417.605	251
417.828	271
418.051	270
418.274	262
418.497	248
418.72	249
418.943	248
419.166	258
419.389	265
419.611	269
419.834	255
420.057	277
420.28	268
420.503	269
420.726	268
420.948	280
421.171	288
421.394	325
421.617	270
421.839	257
422.062	259
422.285	254
422.507	296
422.73	331
422.953	315
423.175	296
423.398	286
423.621	266
423.843	277
424.066	279
424.288	279
424.511	278
424.733	328
424.956	348
425.178	334
425.401	321
425.623	350
425.846	298
426.068	288
426.291	285
426.513	277
426.735	303
426.958	294
427.18	329
427.402	389
427.625	466
427.847	394
428.069	325
428.292	289
428.514	265
428.736	261
428.958	245
429.181	239
429.403	260
429.625	275
429.847	275
430.069	311
430.292	307
430.514	269
430.736	234
430.958	246
431.18	248
431.402	254
431.624	246
431.846	254
432.068	247
432.29	228
432.512	251
432.734	261
432.956	258
433.178	253
433.4	269
433.622	248
433.844	255
434.066	244
434.287	240
434.509	247
434.731	251
434.953	266
435.175	273
435.397	293
435.618	265
435.84	303
436.062	332
436.284	367
436.505	313
436.727	277
436.949	261
437.17	257
437.392	252
437.614	272
437.835	294
438.057	343
438.278	356
438.5	354
438.721	408
438.943	373
439.165	319
439.386	291
439.608	299
439.829	282
440.05	304
440.272	304
440.493	311
440.715	269
440.936	256
441.158	274
441.379	275
441.6	267
441.822	288
442.043	311
442.264	330
442.486	339
442.707	310
442.928	280
443.149	295
443.371	311
443.592	309
443.813	366
444.034	379
444.255	317
444.476	296
444.698	291
444.919	281
445.14	368
445.361	336
445.582	302
445.803	350
446.024	367
446.245	383
446.466	347
446.687	273
446.908	265
447.129	263
447.35	255
447.571	262
447.792	249
448.013	257
448.234	268
448.455	296
448.675	330
448.896	376
449.117	337
449.338	323
449.559	362
449.779	391
450	319
450.221	289
450.442	268
450.662	269
450.883	246
451.104	277
451.324	272
451.545	271
451.766	247
451.986	230
452.207	238
452.428	244
452.648	238
452.869	241
453.089	248
453.31	260
453.53	249
453.751	241
453.971	232
454.192	265
454.412	241
454.633	247
454.853	226
455.073	220
455.294	253
455.514	277
455.734	278
455.955	234
456.175	230
456.395	223
456.616	229
456.836	224
457.056	230
457.276	220
457.497	223
457.717	236
457.937	233
458.157	222
458.377	218
458.598	229
458.818	283
459.038	317
459.258	328
459.478	253
459.698	247
459.918	253
460.138	252
460.358	246
460.578	247
460.798	252
461.018	236
461.238	249
461.458	246
461.678	251
461.898	248
462.118	258
462.338	243
462.558	245
462.777	265
462.997	282
463.217	271
463.437	254
463.657	248
463.876	268
464.096	253
464.316	267
464.536	290
464.755	285
464.975	287
465.195	308
465.414	358
465.634	317
465.854	256
466.073	263
466.293	252
466.512	240
466.732	247
466.951	249
467.171	235
467.391	222
467.61	269
467.829	256
468.049	261
468.268	269
468.488	232
468.707	232
468.927	220
469.146	239
469.365	236
469.585	231
469.804	228
470.023	236
470.243	232
470.462	257
470.681	291
470.901	272
471.12	250
471.339	247
471.558	258
471.777	238
471.997	243
472.216	256
472.435	288
472.654	267
472.873	236
473.092	242
473.311	240
473.53	261
473.749	246
473.968	249
474.187	331
474.406	325
474.625	278
474.844	252
475.063	239
475.282	247
475.501	255
475.72	253
475.939	240
476.158	257
476.377	238
476.596	246
476.814	262
477.033	262
477.252	251
477.471	256
477.69	249
477.908	260
478.127	267
478.346	279
478.564	277
478.783	255
479.002	274
479.22	261
479.439	292
479.658	299
479.876	290
480.095	314
480.313	309
480.532	288
480.751	291
480.969	292
481.188	367
481.406	381
481.624	312
481.843	293
482.061	286
482.28	288
482.498	280
482.717	300
482.935	277
483.153	269
483.372	268
483.59	263
483.808	296
484.027	269
484.245	272
484.463	285
484.681	283
484.9	279
485.118	302
485.336	304
485.554	300
485.772	297
485.99	292
486.209	281
486.427	298
486.645	302
486.863	300
487.081	295
487.299	303
487.517	307
487.735	295
487.953	305
488.171	308
488.389	319
488.607	311
488.825	310
489.043	303
489.261	321
489.479	315
489.696	338
489.914	305
490.132	311
490.35	316
490.568	311
490.786	321
491.003	317
491.221	339
491.439	353
491.657	348
491.874	352
492.092	355
492.31	379
492.527	356
492.745	362
492.963	348
493.18	367
493.398	353
493.615	371
493.833	344
494.05	368
494.268	351
494.485	361
494.703	360
494.92	350
495.138	371
495.355	371
495.573	356
495.79	362
496.008	362
496.225	349
496.442	356
496.66	362
496.877	345
497.094	335
497.312	373
497.529	371
497.746	359
497.963	381
498.181	369
498.398	378
498.615	379
498.832	383
499.049	380
499.267	402
499.484	402
499.701	414
499.918	428
500.135	462
500.352	459
500.569	483
500.786	467
501.003	475
501.22	449
501.437	456
501.654	431
501.871	414
502.088	411
502.305	395
502.522	380
502.739	357
502.956	362
503.172	374
503.389	348
503.606	346
503.823	343
504.04	338
504.256	335
504.473	324
504.69	337
504.907	351
505.123	319
505.34	333
505.557	337
505.773	335
505.99	344
506.207	337
506.423	336
506.64	347
506.856	337
507.073	311
507.289	322
507.506	325
507.722	338
507.939	339
508.155	303
508.372	324
508.588	317
508.805	313
509.021	330
509.238	312
509.454	313
509.67	317
509.887	316
510.103	311
510.319	339
510.536	416
510.752	779
510.968	579
511.184	335
511.401	309
511.617	317
511.833	316
512.049	310
512.265	293
512.481	312
512.698	289
512.914	313
513.13	297
513.346	292
513.562	296
513.778	310
513.994	309
514.21	313
514.426	336
514.642	367
514.858	374
515.074	403
515.29	490
515.506	825
515.721	655
515.937	387
516.153	337
516.369	328
516.585	317
516.801	311
517.016	302
517.232	302
517.448	310
517.664	307
517.879	323
518.095	299
518.311	302
518.527	307
518.742	311
518.958	301
519.173	313
519.389	298
519.605	326
519.82	301
520.036	321
520.251	335
520.467	352
520.682	325
520.898	333
521.113	343
521.329	377
521.544	451
521.76	599
521.975	1141
522.19	1127
522.406	531
522.621	380
522.836	324
523.052	318
523.267	295
523.482	292
523.698	291
523.913	281
524.128	271
524.343	279
524.559	276
524.774	262
524.989	259
525.204	268
525.419	272
525.634	254
525.849	240
526.064	259
526.28	264
526.495	246
526.71	253
526.925	257
527.14	241
527.355	246
527.57	228
527.785	251
527.999	263
528.214	264
528.429	238
528.644	270
528.859	257
529.074	276
529.289	294
529.503	332
529.718	315
529.933	304
530.148	270
530.363	246
530.577	255
530.792	255
531.007	258
531.221	237
531.436	248
531.651	247
531.865	253
532.08	229
532.295	231
532.509	236
532.724	236
532.938	245
533.153	229
533.367	237
533.582	253
533.796	240
534.011	238
534.225	261
534.44	232
534.654	236
534.868	246
535.083	239
535.297	219
535.511	245
535.726	243
535.94	252
536.154	248
536.369	243
536.583	230
536.797	239
537.011	245
537.225	234
537.44	234
537.654	228
537.868	212
538.082	238
538.296	236
538.51	222
538.724	246
538.938	247
539.153	251
539.367	265
539.581	246
539.795	228
540.009	244
540.222	240
540.436	239
540.65	233
540.864	228
541.078	244
541.292	246
541.506	231
541.72	229
541.934	241
542.147	230
542.361	228
542.575	222
542.789	249
543.002	231
543.216	245
543.43	252
543.644	250
543.857	232
544.071	241
544.285	248
544.498	229
544.712	236
544.925	229
545.139	238
545.352	232
545.566	237
545.779	240
545.993	225
546.206	236
546.42	237
546.633	236
546.847	232
547.06	215
547.274	226
547.487	222
547.7	221
547.914	215
548.127	215
548.34	227
548.554	236
548.767	221
548.98	229
549.193	224
549.407	228
549.62	220
549.833	217
550.046	220
550.259	224
550.473	229
550.686	227
550.899	205
551.112	228
551.325	214
551.538	220
551.751	233
551.964	231
552.177	236
552.39	215
552.603	210
552.816	238
553.029	222
553.242	231
553.455	232
553.667	241
553.88	236
554.093	240
554.306	231
554.519	231
554.732	215
554.944	222
555.157	217
555.37	212
555.583	187
555.795	223
556.008	220
556.221	213
556.433	201
556.646	207
556.859	208
557.071	206
557.284	213
557.496	192
557.709	208
557.921	214
558.134	207
558.346	216
558.559	202
558.771	207
558.984	198
559.196	194
559.409	208
559.621	209
559.833	192
560.046	197
560.258	198
560.47	207
560.683	203
560.895	209
561.107	190
561.32	214
561.532	191
561.744	189
561.956	205
562.168	186
562.381	213
562.593	198
562.805	216
563.017	185
563.229	206
563.441	209
563.653	207
563.865	216
564.077	224
564.289	197
564.501	218
564.713	200
564.925	206
565.137	207
565.349	214
565.561	212
565.773	206
565.985	220
566.197	227
566.408	230
566.62	221
566.832	234
567.044	209
567.255	247
567.467	227
567.679	229
567.891	238
568.102	255
568.314	236
568.526	230
568.737	223
568.949	213
569.161	224
569.372	213
569.584	213
569.795	222
570.007	212
570.218	240
570.43	235
570.641	191
570.853	190
571.064	205
571.276	211
571.487	198
571.698	209
571.91	209
572.121	200
572.333	193
572.544	188
572.755	177
572.966	187
573.178	190
573.389	183
573.6	184
573.811	194
574.023	183
574.234	188
574.445	179
574.656	187
574.867	176
575.078	189
575.289	176
575.501	167
575.712	179
575.923	197
576.134	168
576.345	163
576.556	180
576.767	169
576.978	172
577.188	180
577.399	169
577.61	161
577.821	171
578.032	182
578.243	207
578.454	373
578.665	243
578.875	171
579.086	179
579.297	164
579.508	177
579.718	168
579.929	198
580.14	163
580.35	158
580.561	181
580.772	161
580.982	155
581.193	149
581.403	161
581.614	172
581.825	170
582.035	161
582.246	148
582.456	162
582.667	165
582.877	157
583.087	177
583.298	162
583.508	158
583.719	174
583.929	177
584.139	165
584.35	169
584.56	158
584.77	175
584.981	159
585.191	176
585.401	160
585.611	172
585.821	183
586.032	169
586.242	174
586.452	169
586.662	164
586.872	163
587.082	159
587.292	157
587.502	167
587.713	171
587.923	145
588.133	168
588.343	159
588.553	161
588.762	165
588.972	166
589.182	172
589.392	167
589.602	172
589.812	185
590.022	167
590.232	172
590.441	160
590.651	154
590.861	151
591.071	165
591.281	172
591.49	185
591.7	164
591.91	166
592.119	156
592.329	153
592.539	169
592.748	184
592.958	160
593.167	157
593.377	176
593.587	184
593.796	158
594.006	174
594.215	163
594.424	171
594.634	171
594.843	186
595.053	165
595.262	159
595.472	163
595.681	159
595.89	163
596.1	163
596.309	152
596.518	142
596.727	165
596.937	162
597.146	147
597.355	149
597.564	140
597.774	154
597.983	158
598.192	150
598.401	157
598.61	143
598.819	152
599.028	145
599.237	145
599.446	154
599.655	161
599.864	160
600.073	148
600.282	152
600.491	157
600.7	154
600.909	142
601.118	147
601.327	147
601.536	132
601.745	157
601.953	153
602.162	146
602.371	141
602.58	144
602.789	135
602.997	172
603.206	151
603.415	160
603.623	162
603.832	141
604.041	140
604.249	143
604.458	141
604.666	135
604.875	152
605.084	140
605.292	132
605.501	150
605.709	132
605.918	130
606.126	148
606.334	145
606.543	135
606.751	145
606.96	149
607.168	135
607.376	147
607.585	135
607.793	147
608.001	122
608.21	148
608.418	149
608.626	141
608.834	144
609.043	148
609.251	145
609.459	149
609.667	156
609.875	129
610.083	157
610.291	155
610.499	149
610.707	151
610.916	158
611.124	142
611.332	156
611.54	153
611.748	155
611.955	142
612.163	139
612.371	160
612.579	149
612.787	149
612.995	156
613.203	148
613.411	139
613.618	144
613.826	135
614.034	129
614.242	154
614.449	157
614.657	138
614.865	158
615.072	158
615.28	153
615.488	144
615.695	129
615.903	150
616.111	150
616.318	151
616.526	141
616.733	144
616.941	141
617.148	139
617.356	153
617.563	142
617.771	135
617.978	151
618.185	158
618.393	129
618.6	139
618.807	134
619.015	143
619.222	131
619.429	135
619.637	131
619.844	146
620.051	135
620.258	147
620.466	139
620.673	134
620.88	130
621.087	128
621.294	152
621.501	132
621.708	147
621.915	143
622.122	142
622.329	138
622.536	151
622.743	132
622.95	139
623.157	142
623.364	147
623.571	146
623.778	152
623.985	124
624.192	126
624.399	128
624.606	125
624.812	127
625.019	139
625.226	141
625.433	127
625.639	147
625.846	138
626.053	128
626.259	117
626.466	124
626.673	118
626.879	129
627.086	140
627.293	120
627.499	124
627.706	138
627.912	123
628.119	126
628.325	134
628.532	134
628.738	136
628.945	127
629.151	127
629.357	126
629.564	127
629.77	127
629.976	120
630.183	129
630.389	129
630.595	131
630.802	124
631.008	115
631.214	122
631.42	125
631.627	118
631.833	122
632.039	122
632.245	140
632.451	133
632.657	132
632.863	113
633.069	135
633.275	130
633.481	131
633.688	130
633.893	125
634.099	126
634.305	131
634.511	132
634.717	129
634.923	135
635.129	124
635.335	120
635.541	125
635.747	131
635.952	119
636.158	120
636.364	131
636.57	119
636.775	126
636.981	121
637.187	124
637.392	129
637.598	115
637.804	133
638.009	135
638.215	137
638.421	106
638.626	120
638.832	118
639.037	112
639.243	112
639.448	121
639.654	113
639.859	117
640.065	121
640.27	119
640.475	127
640.681	124
640.886	123
641.091	133
641.297	119
641.502	120
641.707	124
641.913	111
642.118	123
642.323	103
642.528	126
642.733	123
642.939	116
643.144	116
643.349	117
643.554	125
643.759	127
643.964	116
644.169	122
644.374	119
644.579	125
644.784	106
644.989	121
645.194	124
645.399	117
645.604	119
645.809	121
646.014	120
646.219	126
646.423	121
646.628	119
646.833	126
647.038	119
647.243	120
647.447	131
647.652	123
647.857	104
648.062	121
648.266	100
648.471	115
648.676	123
648.88	131
649.085	124
649.289	128
649.494	125
649.698	128
649.903	125
650.107	120
650.312	126
650.516	123
650.721	104
650.925	112
651.13	111
651.334	136
651.539	112
651.743	132
651.947	113
652.152	108
652.356	119
652.56	112
652.764	124
652.969	118
653.173	105
653.377	118
653.581	104
653.785	99
653.99	97
654.194	110
654.398	100
654.602	115
654.806	108
655.01	115
655.214	118
655.418	100
655.622	111
655.826	99
656.03	106
656.234	112
656.438	122
656.642	121
656.846	111
657.049	106
657.253	104
657.457	115
657.661	113
657.865	98
658.068	106
658.272	99
658.476	88
658.68	92
658.883	94
659.087	88
659.291	88
659.494	83
659.698	83
659.901	94
660.105	97
660.309	80
660.512	89
660.716	101
660.919	88
661.123	88
661.326	94
661.53	78
661.733	89
661.936	83
662.14	96
662.343	87
662.546	79
662.75	120
662.953	76
663.156	85
663.36	90
663.563	74
663.766	81
663.969	81
664.173	95
664.376	87
664.579	96
664.782	86
664.985	81
665.188	92
665.391	75
665.594	92
665.797	92
666	92
666.203	90
666.406	80
666.609	81
666.812	63
667.015	77
667.218	87
667.421	86
667.624	83
667.827	100
668.03	79
668.232	78
668.435	78
668.638	82
668.841	77
669.043	90
669.246	78
669.449	101
669.651	83
669.854	88
670.057	77
670.259	90
670.462	92
670.665	81
670.867	77
671.07	81
671.272	78
671.475	80
671.677	89
671.88	91
672.082	100
672.284	81
672.487	77
672.689	79
672.892	80
