Data from 1966.PennyLincolnUp.Lamp.En5.5.200Scan.071719.P1._HRD10591_14-12-21-913.txt Node
Date: Thu Jul 18 14:12:21 EDT 2019
User: cochatt
Spectrometer: HR+D1059
Trigger mode: 1
Integration Time (sec): 1.000000E-1
Scans to average: 1
Electric dark correction enabled: true
Nonlinearity correction enabled: false
Boxcar width: 0
XAxis mode: Wavelengths
Number of Pixels in Spectrum: 2048
>>>>>Begin Spectral Data<<<<<
223.165	-9
223.4	-9
223.635	-9
223.869	-21
224.104	-24
224.338	-16
224.573	-8
224.808	-18
225.042	-13
225.277	5
225.511	11
225.746	5
225.98	17
226.215	4
226.449	13
226.683	6
226.918	19
227.152	29
227.387	33
227.621	38
227.856	35
228.09	52
228.324	42
228.559	55
228.793	49
229.027	66
229.262	84
229.496	83
229.73	92
229.964	95
230.199	93
230.433	93
230.667	83
230.901	91
231.136	87
231.37	91
231.604	104
231.838	96
232.072	91
232.306	94
232.541	86
232.775	97
233.009	97
233.243	91
233.477	92
233.711	92
233.945	106
234.179	105
234.413	84
234.647	96
234.881	99
235.115	98
235.349	97
235.583	86
235.817	93
236.051	102
236.285	98
236.519	118
236.753	104
236.987	107
237.221	131
237.455	141
237.689	121
237.922	98
238.156	102
238.39	100
238.624	94
238.858	97
239.091	87
239.325	92
239.559	75
239.793	91
240.027	100
240.26	95
240.494	106
240.728	94
240.961	112
241.195	110
241.429	86
241.662	84
241.896	92
242.13	99
242.363	86
242.597	96
242.83	101
243.064	98
243.298	89
243.531	103
243.765	95
243.998	95
244.232	102
244.465	121
244.699	121
244.932	96
245.166	99
245.399	109
245.633	124
245.866	107
246.099	97
246.333	106
246.566	99
246.8	110
247.033	124
247.266	110
247.5	110
247.733	117
247.966	110
248.2	123
248.433	131
248.666	108
248.899	133
249.133	128
249.366	129
249.599	124
249.832	127
250.066	127
250.299	118
250.532	141
250.765	127
250.998	134
251.231	125
251.465	131
251.698	131
251.931	116
252.164	126
252.397	113
252.63	131
252.863	132
253.096	128
253.329	145
253.562	139
253.795	123
254.028	136
254.261	144
254.494	129
254.727	144
254.96	170
255.193	165
255.426	142
255.659	129
255.892	136
256.124	122
256.357	137
256.59	102
256.823	132
257.056	122
257.289	112
257.521	129
257.754	121
257.987	106
258.22	141
258.452	123
258.685	129
258.918	127
259.151	138
259.383	129
259.616	129
259.849	125
260.081	142
260.314	147
260.547	155
260.779	128
261.012	142
261.244	131
261.477	137
261.71	108
261.942	123
262.175	140
262.407	121
262.64	134
262.872	133
263.105	114
263.337	142
263.57	126
263.802	143
264.035	137
264.267	135
264.499	124
264.732	122
264.964	135
265.197	129
265.429	139
265.661	122
265.894	124
266.126	140
266.358	131
266.591	127
266.823	120
267.055	140
267.287	133
267.52	133
267.752	140
267.984	131
268.216	123
268.448	140
268.681	126
268.913	143
269.145	146
269.377	145
269.609	159
269.841	138
270.073	161
270.306	156
270.538	159
270.77	166
271.002	167
271.234	163
271.466	150
271.698	164
271.93	184
272.162	174
272.394	159
272.626	179
272.858	166
273.09	153
273.322	151
273.553	146
273.785	145
274.017	149
274.249	137
274.481	141
274.713	145
274.945	145
275.176	153
275.408	143
275.64	140
275.872	133
276.104	147
276.335	141
276.567	140
276.799	158
277.031	166
277.262	183
277.494	173
277.726	154
277.957	150
278.189	169
278.421	171
278.652	163
278.884	137
279.115	137
279.347	156
279.579	155
279.81	148
280.042	160
280.273	144
280.505	137
280.736	157
280.968	151
281.199	137
281.431	169
281.662	156
281.894	171
282.125	148
282.356	159
282.588	154
282.819	162
283.051	147
283.282	143
283.513	162
283.745	141
283.976	149
284.207	151
284.439	158
284.67	156
284.901	154
285.132	155
285.364	152
285.595	155
285.826	164
286.057	162
286.288	154
286.52	159
286.751	159
286.982	159
287.213	156
287.444	149
287.675	153
287.906	158
288.138	171
288.369	160
288.6	169
288.831	159
289.062	168
289.293	145
289.524	157
289.755	163
289.986	156
290.217	182
290.448	174
290.679	156
290.91	146
291.141	160
291.371	164
291.602	158
291.833	161
292.064	167
292.295	164
292.526	141
292.757	147
292.987	168
293.218	161
293.449	164
293.68	169
293.91	162
294.141	158
294.372	160
294.603	167
294.833	159
295.064	157
295.295	157
295.525	166
295.756	170
295.987	168
296.217	181
296.448	179
296.679	164
296.909	168
297.14	145
297.37	182
297.601	168
297.831	173
298.062	175
298.292	172
298.523	169
298.753	174
298.984	173
299.214	154
299.445	159
299.675	176
299.905	174
300.136	163
300.366	173
300.597	157
300.827	164
301.057	159
301.288	181
301.518	179
301.748	167
301.979	167
302.209	173
302.439	173
302.669	170
302.9	170
303.13	173
303.36	173
303.59	159
303.82	169
304.051	166
304.281	172
304.511	182
304.741	165
304.971	176
305.201	177
305.431	184
305.661	170
305.891	174
306.121	179
306.352	173
306.582	165
306.812	204
307.042	186
307.272	179
307.502	170
307.731	171
307.961	176
308.191	188
308.421	155
308.651	158
308.881	187
309.111	179
309.341	167
309.571	165
309.8	176
310.03	180
310.26	188
310.49	190
310.72	190
310.949	206
311.179	190
311.409	187
311.639	192
311.868	199
312.098	196
312.328	192
312.557	209
312.787	201
313.017	184
313.246	197
313.476	183
313.706	189
313.935	201
314.165	215
314.394	212
314.624	206
314.853	189
315.083	179
315.312	180
315.542	176
315.771	185
316.001	182
316.23	175
316.46	204
316.689	208
316.919	193
317.148	183
317.377	201
317.607	187
317.836	192
318.065	189
318.295	190
318.524	197
318.753	190
318.983	184
319.212	182
319.441	189
319.67	194
319.9	187
320.129	202
320.358	192
320.587	191
320.816	197
321.046	187
321.275	203
321.504	195
321.733	209
321.962	209
322.191	199
322.42	211
322.649	220
322.878	207
323.108	222
323.337	229
323.566	233
323.795	246
324.024	271
324.253	307
324.482	452
324.71	655
324.939	916
325.168	733
325.397	374
325.626	286
325.855	249
326.084	238
326.313	219
326.542	245
326.77	245
326.999	299
327.228	419
327.457	590
327.686	693
327.914	450
328.143	302
328.372	289
328.6	251
328.829	268
329.058	266
329.287	274
329.515	249
329.744	239
329.972	216
330.201	244
330.43	261
330.658	282
330.887	281
331.115	276
331.344	250
331.572	235
331.801	227
332.03	233
332.258	223
332.486	216
332.715	210
332.943	215
333.172	219
333.4	216
333.629	229
333.857	219
334.085	234
334.314	259
334.542	285
334.771	273
334.999	259
335.227	238
335.455	224
335.684	237
335.912	231
336.14	215
336.369	222
336.597	245
336.825	217
337.053	215
337.281	207
337.51	209
337.738	213
337.966	212
338.194	210
338.422	232
338.65	212
338.878	192
339.106	209
339.334	222
339.562	209
339.79	199
340.018	205
340.246	203
340.474	213
340.702	235
340.93	211
341.158	202
341.386	204
341.614	217
341.842	196
342.07	203
342.298	202
342.526	191
342.754	199
342.981	202
343.209	195
343.437	218
343.665	221
343.893	224
344.12	211
344.348	213
344.576	220
344.804	204
345.031	221
345.259	225
345.487	209
345.714	208
345.942	197
346.17	207
346.397	196
346.625	211
346.853	198
347.08	189
347.308	199
347.535	218
347.763	215
347.99	215
348.218	213
348.445	205
348.673	201
348.9	219
349.128	199
349.355	191
349.583	187
349.81	201
350.037	208
350.265	187
350.492	195
350.72	191
350.947	199
351.174	212
351.402	207
351.629	211
351.856	212
352.083	211
352.311	206
352.538	205
352.765	210
352.992	216
353.22	222
353.447	198
353.674	193
353.901	201
354.128	198
354.355	188
354.583	195
354.81	181
355.037	208
355.264	212
355.491	168
355.718	175
355.945	204
356.172	199
356.399	191
356.626	189
356.853	183
357.08	194
357.307	180
357.534	169
357.761	198
357.988	186
358.215	174
358.441	185
358.668	190
358.895	202
359.122	200
359.349	191
359.576	200
359.802	213
360.029	220
360.256	231
360.483	230
360.709	189
360.936	198
361.163	211
361.39	198
361.616	214
361.843	197
362.07	208
362.296	195
362.523	214
362.749	181
362.976	196
363.203	201
363.429	184
363.656	218
363.882	207
364.109	195
364.335	193
364.562	179
364.788	192
365.015	194
365.241	191
365.468	179
365.694	200
365.92	181
366.147	196
366.373	203
366.599	207
366.826	197
367.052	195
367.278	189
367.505	207
367.731	216
367.957	198
368.184	199
368.41	201
368.636	201
368.862	205
369.089	192
369.315	189
369.541	199
369.767	204
369.993	198
370.219	198
370.445	192
370.672	199
370.898	183
371.124	192
371.35	198
371.576	199
371.802	185
372.028	196
372.254	193
372.48	193
372.706	205
372.932	182
373.158	199
373.384	193
373.61	213
373.835	195
374.061	182
374.287	191
374.513	200
374.739	211
374.965	207
375.191	202
375.416	205
375.642	193
375.868	183
376.094	200
376.319	207
376.545	206
376.771	197
376.997	203
377.222	198
377.448	201
377.674	191
377.899	191
378.125	197
378.35	209
378.576	203
378.802	195
379.027	207
379.253	209
379.478	176
379.704	212
379.929	214
380.155	208
380.38	203
380.606	184
380.831	177
381.057	208
381.282	177
381.507	187
381.733	183
381.958	203
382.184	197
382.409	204
382.634	203
382.86	196
383.085	206
383.31	209
383.535	201
383.761	209
383.986	194
384.211	211
384.436	218
384.662	209
384.887	213
385.112	206
385.337	215
385.562	207
385.787	210
386.013	215
386.238	208
386.463	200
386.688	216
386.913	203
387.138	206
387.363	207
387.588	209
387.813	209
388.038	213
388.263	218
388.488	234
388.713	227
388.938	209
389.163	204
389.387	206
389.612	197
389.837	198
390.062	207
390.287	213
390.512	189
390.736	197
390.961	207
391.186	215
391.411	203
391.636	199
391.86	206
392.085	200
392.31	218
392.534	191
392.759	212
392.984	209
393.208	208
393.433	238
393.658	222
393.882	204
394.107	187
394.331	219
394.556	220
394.78	218
395.005	218
395.229	213
395.454	226
395.678	207
395.903	209
396.127	238
396.352	223
396.576	209
396.801	232
397.025	212
397.249	216
397.474	211
397.698	205
397.922	215
398.147	233
398.371	204
398.595	233
398.82	233
399.044	228
399.268	236
399.492	263
399.717	272
399.941	279
400.165	293
400.389	284
400.613	257
400.837	260
401.062	247
401.286	249
401.51	238
401.734	225
401.958	257
402.182	243
402.406	252
402.63	248
402.854	244
403.078	234
403.302	243
403.526	230
403.75	256
403.974	261
404.198	245
404.422	263
404.645	251
404.869	238
405.093	269
405.317	265
405.541	298
405.765	265
405.988	253
406.212	262
406.436	281
406.66	291
406.883	286
407.107	282
407.331	289
407.555	320
407.778	307
408.002	279
408.226	266
408.449	264
408.673	269
408.896	283
409.12	297
409.344	267
409.567	269
409.791	244
410.014	224
410.238	243
410.461	231
410.685	263
410.908	262
411.132	283
411.355	276
411.578	293
411.802	231
412.025	257
412.249	247
412.472	278
412.695	271
412.919	268
413.142	268
413.365	248
413.589	232
413.812	223
414.035	247
414.258	240
414.482	231
414.705	253
414.928	223
415.151	227
415.374	219
415.597	213
415.821	236
416.044	255
416.267	239
416.49	243
416.713	235
416.936	238
417.159	230
417.382	224
417.605	228
417.828	243
418.051	240
418.274	244
418.497	240
418.72	236
418.943	235
419.166	244
419.389	245
419.611	249
419.834	255
420.057	253
420.28	247
420.503	254
420.726	241
420.948	272
421.171	259
421.394	270
421.617	260
421.839	239
422.062	249
422.285	243
422.507	277
422.73	308
422.953	277
423.175	249
423.398	256
423.621	275
423.843	278
424.066	239
424.288	257
424.511	263
424.733	270
424.956	324
425.178	310
425.401	297
425.623	305
425.846	258
426.068	265
426.291	256
426.513	239
426.735	265
426.958	291
427.18	302
427.402	353
427.625	389
427.847	329
428.069	286
428.292	279
428.514	256
428.736	250
428.958	244
429.181	211
429.403	247
429.625	267
429.847	275
430.069	302
430.292	285
430.514	257
430.736	253
430.958	231
431.18	224
431.402	235
431.624	221
431.846	224
432.068	220
432.29	225
432.512	235
432.734	221
432.956	227
433.178	242
433.4	237
433.622	233
433.844	237
434.066	227
434.287	244
434.509	235
434.731	239
434.953	243
435.175	251
435.397	260
435.618	266
435.84	270
436.062	311
436.284	323
436.505	289
436.727	249
436.949	227
437.17	257
437.392	253
437.614	255
437.835	257
438.057	282
438.278	331
438.5	313
438.721	357
438.943	342
439.165	272
439.386	239
439.608	253
439.829	277
440.05	283
440.272	298
440.493	281
440.715	261
440.936	238
441.158	229
441.379	234
441.6	249
441.822	238
442.043	281
442.264	307
442.486	315
442.707	280
442.928	257
443.149	261
443.371	281
443.592	277
443.813	339
444.034	377
444.255	283
444.476	259
444.698	245
444.919	246
445.14	352
445.361	295
445.582	296
445.803	309
446.024	348
446.245	344
446.466	300
446.687	276
446.908	264
447.129	250
447.35	243
447.571	236
447.792	223
448.013	235
448.234	251
448.455	282
448.675	309
448.896	358
449.117	284
449.338	283
449.559	320
449.779	356
450	291
450.221	243
450.442	236
450.662	236
450.883	245
451.104	257
451.324	235
451.545	233
451.766	228
451.986	213
452.207	229
452.428	230
452.648	224
452.869	217
453.089	215
453.31	230
453.53	224
453.751	215
453.971	222
454.192	221
454.412	246
454.633	225
454.853	210
455.073	204
455.294	231
455.514	267
455.734	237
455.955	228
456.175	215
456.395	208
456.616	208
456.836	207
457.056	190
457.276	205
457.497	239
457.717	221
457.937	228
458.157	214
458.377	209
458.598	221
458.818	253
459.038	285
459.258	297
459.478	240
459.698	236
459.918	239
460.138	223
460.358	225
460.578	229
460.798	233
461.018	239
461.238	240
461.458	229
461.678	240
461.898	225
462.118	213
462.338	230
462.558	235
462.777	236
462.997	265
463.217	257
463.437	265
463.657	256
463.876	252
464.096	253
464.316	252
464.536	257
464.755	263
464.975	251
465.195	294
465.414	313
465.634	248
465.854	251
466.073	229
466.293	229
466.512	220
466.732	217
466.951	222
467.171	230
467.391	224
467.61	237
467.829	235
468.049	241
468.268	229
468.488	224
468.707	212
468.927	236
469.146	211
469.365	233
469.585	227
469.804	230
470.023	213
470.243	245
470.462	228
470.681	260
470.901	230
471.12	244
471.339	233
471.558	222
471.777	242
471.997	231
472.216	227
472.435	253
472.654	230
472.873	235
473.092	222
473.311	222
473.53	227
473.749	228
473.968	246
474.187	285
474.406	298
474.625	252
474.844	226
475.063	223
475.282	231
475.501	224
475.72	240
475.939	237
476.158	219
476.377	217
476.596	236
476.814	211
477.033	251
477.252	235
477.471	237
477.69	257
477.908	246
478.127	259
478.346	248
478.564	250
478.783	261
479.002	259
479.22	259
479.439	274
479.658	275
479.876	257
480.095	273
480.313	280
480.532	283
480.751	268
480.969	279
481.188	333
481.406	333
481.624	283
481.843	268
482.061	259
482.28	261
482.498	268
482.717	266
482.935	252
483.153	265
483.372	261
483.59	260
483.808	246
484.027	254
484.245	246
484.463	251
484.681	261
484.9	261
485.118	261
485.336	272
485.554	256
485.772	283
485.99	279
486.209	249
486.427	263
486.645	285
486.863	275
487.081	269
487.299	276
487.517	295
487.735	276
487.953	281
488.171	288
488.389	281
488.607	267
488.825	261
489.043	292
489.261	290
489.479	281
489.696	274
489.914	299
490.132	281
490.35	289
490.568	307
490.786	316
491.003	305
491.221	304
491.439	305
491.657	295
491.874	325
492.092	313
492.31	313
492.527	320
492.745	319
492.963	317
493.18	325
493.398	319
493.615	331
493.833	330
494.05	325
494.268	315
494.485	341
494.703	339
494.92	342
495.138	322
495.355	317
495.573	318
495.79	317
496.008	316
496.225	317
496.442	324
496.66	336
496.877	295
497.094	320
497.312	320
497.529	321
497.746	336
497.963	333
498.181	336
498.398	344
498.615	349
498.832	355
499.049	353
499.267	374
499.484	361
499.701	391
499.918	390
500.135	415
500.352	443
500.569	426
500.786	403
501.003	409
501.22	423
501.437	396
501.654	410
501.871	374
502.088	380
502.305	372
502.522	353
502.739	347
502.956	319
503.172	324
503.389	326
503.606	309
503.823	330
504.04	319
504.256	314
504.473	320
504.69	323
504.907	316
505.123	315
505.34	292
505.557	305
505.773	302
505.99	287
506.207	304
506.423	309
506.64	312
506.856	304
507.073	293
507.289	302
507.506	315
507.722	297
507.939	324
508.155	312
508.372	292
508.588	282
508.805	282
509.021	285
509.238	294
509.454	307
509.67	298
509.887	278
510.103	281
510.319	292
510.536	339
510.752	634
510.968	452
511.184	291
511.401	298
511.617	277
511.833	272
512.049	270
512.265	243
512.481	251
512.698	265
512.914	253
513.13	270
513.346	263
513.562	253
513.778	269
513.994	274
514.21	283
514.426	305
514.642	311
514.858	311
515.074	327
515.29	395
515.506	654
515.721	535
515.937	326
516.153	312
516.369	288
516.585	289
516.801	291
517.016	273
517.232	276
517.448	284
517.664	271
517.879	274
518.095	274
518.311	280
518.527	283
518.742	282
518.958	269
519.173	270
519.389	279
519.605	261
519.82	264
520.036	265
520.251	282
520.467	296
520.682	279
520.898	296
521.113	309
521.329	323
521.544	367
521.76	502
521.975	847
522.19	843
522.406	440
522.621	304
522.836	304
523.052	275
523.267	276
523.482	243
523.698	247
523.913	243
524.128	258
524.343	246
524.559	240
524.774	252
524.989	251
525.204	232
525.419	258
525.634	219
525.849	229
526.064	247
526.28	231
526.495	224
526.71	235
526.925	235
527.14	237
527.355	230
527.57	222
527.785	205
527.999	234
528.214	232
528.429	224
528.644	246
528.859	256
529.074	245
529.289	270
529.503	287
529.718	279
529.933	248
530.148	236
530.363	226
530.577	225
530.792	217
531.007	215
531.221	230
531.436	225
531.651	222
531.865	224
532.08	224
532.295	224
532.509	224
532.724	214
532.938	224
533.153	228
533.367	229
533.582	216
533.796	222
534.011	220
534.225	220
534.44	215
534.654	228
534.868	236
535.083	214
535.297	228
535.511	227
535.726	235
535.94	219
536.154	225
536.369	222
536.583	216
536.797	228
537.011	191
537.225	207
537.44	221
537.654	228
537.868	206
538.082	216
538.296	223
538.51	203
538.724	216
538.938	233
539.153	209
539.367	228
539.581	223
539.795	208
540.009	223
540.222	215
540.436	218
540.65	223
540.864	207
541.078	227
541.292	215
541.506	230
541.72	232
541.934	233
542.147	235
542.361	221
542.575	203
542.789	213
543.002	214
543.216	204
543.43	228
543.644	207
543.857	228
544.071	224
544.285	234
544.498	222
544.712	207
544.925	220
545.139	230
545.352	229
545.566	215
545.779	205
545.993	215
546.206	223
546.42	222
546.633	222
546.847	215
547.06	210
547.274	208
547.487	195
547.7	222
547.914	213
548.127	200
548.34	214
548.554	215
548.767	205
548.98	222
549.193	207
549.407	223
549.62	209
549.833	206
550.046	213
550.259	204
550.473	222
550.686	200
550.899	200
551.112	193
551.325	186
551.538	213
551.751	201
551.964	211
552.177	186
552.39	200
552.603	210
552.816	203
553.029	206
553.242	209
553.455	195
553.667	214
553.88	220
554.093	214
554.306	219
554.519	205
554.732	211
554.944	200
555.157	216
555.37	206
555.583	213
555.795	206
556.008	209
556.221	205
556.433	199
556.646	205
556.859	192
557.071	182
557.284	211
557.496	205
557.709	196
557.921	200
558.134	189
558.346	186
558.559	187
558.771	193
558.984	188
559.196	183
559.409	197
559.621	209
559.833	175
560.046	179
560.258	181
560.47	205
560.683	184
560.895	191
561.107	190
561.32	180
561.532	183
561.744	188
561.956	186
562.168	185
562.381	184
562.593	191
562.805	219
563.017	200
563.229	197
563.441	197
563.653	196
563.865	182
564.077	176
564.289	194
564.501	187
564.713	197
564.925	209
565.137	191
565.349	196
565.561	216
565.773	220
565.985	199
566.197	205
566.408	203
566.62	223
566.832	243
567.044	223
567.255	207
567.467	230
567.679	220
567.891	216
568.102	224
568.314	213
568.526	223
568.737	211
568.949	227
569.161	186
569.372	205
569.584	203
569.795	195
570.007	194
570.218	219
570.43	222
570.641	165
570.853	193
571.064	182
571.276	179
571.487	187
571.698	204
571.91	190
572.121	170
572.333	171
572.544	179
572.755	160
572.966	177
573.178	175
573.389	164
573.6	180
573.811	163
574.023	157
574.234	175
574.445	182
574.656	192
574.867	172
575.078	183
575.289	173
575.501	154
575.712	167
575.923	165
576.134	165
576.345	171
576.556	172
576.767	153
576.978	161
577.188	163
577.399	159
577.61	158
577.821	156
578.032	158
578.243	173
578.454	323
578.665	225
578.875	172
579.086	169
579.297	163
579.508	166
579.718	155
579.929	179
580.14	171
580.35	149
580.561	148
580.772	164
580.982	155
581.193	168
581.403	156
581.614	165
581.825	154
582.035	170
582.246	158
582.456	153
582.667	156
582.877	160
583.087	152
583.298	156
583.508	146
583.719	155
583.929	175
584.139	155
584.35	156
584.56	137
584.77	174
584.981	168
585.191	161
585.401	152
585.611	160
585.821	159
586.032	165
586.242	158
586.452	161
586.662	163
586.872	142
587.082	144
587.292	147
587.502	151
587.713	150
587.923	156
588.133	159
588.343	152
588.553	151
588.762	165
588.972	160
589.182	207
589.392	186
589.602	168
589.812	187
590.022	186
590.232	161
590.441	153
590.651	174
590.861	155
591.071	157
591.281	164
591.49	155
591.7	139
591.91	170
592.119	154
592.329	155
592.539	172
592.748	161
592.958	142
593.167	155
593.377	155
593.587	168
593.796	171
594.006	167
594.215	153
594.424	166
594.634	156
594.843	157
595.053	163
595.262	154
595.472	150
595.681	153
595.89	150
596.1	149
596.309	173
596.518	136
596.727	140
596.937	153
597.146	153
597.355	148
597.564	143
597.774	131
597.983	150
598.192	145
598.401	144
598.61	152
598.819	133
599.028	135
599.237	153
599.446	155
599.655	142
599.864	147
600.073	137
600.282	135
600.491	144
600.7	137
600.909	148
601.118	143
601.327	140
601.536	152
601.745	135
601.953	153
602.162	151
602.371	139
602.58	140
602.789	148
602.997	141
603.206	142
603.415	134
603.623	135
603.832	135
604.041	146
604.249	137
604.458	153
604.666	146
604.875	140
605.084	133
605.292	142
605.501	140
605.709	140
605.918	136
606.126	133
606.334	133
606.543	125
606.751	128
606.96	138
607.168	141
607.376	134
607.585	151
607.793	123
608.001	128
608.21	137
608.418	123
608.626	148
608.834	145
609.043	141
609.251	145
609.459	131
609.667	144
609.875	144
610.083	129
610.291	138
610.499	138
610.707	136
610.916	138
611.124	141
611.332	150
611.54	135
611.748	146
611.955	153
612.163	140
612.371	156
612.579	127
612.787	133
612.995	137
613.203	138
613.411	135
613.618	140
613.826	136
614.034	127
614.242	141
614.449	128
614.657	133
614.865	137
615.072	127
615.28	139
615.488	126
615.695	126
615.903	141
616.111	129
616.318	148
616.526	140
616.733	140
616.941	141
617.148	143
617.356	146
617.563	144
617.771	150
617.978	135
618.185	116
618.393	134
618.6	137
618.807	135
619.015	125
619.222	137
619.429	129
619.637	129
619.844	133
620.051	126
620.258	109
620.466	126
620.673	127
620.88	139
621.087	139
621.294	131
621.501	121
621.708	146
621.915	142
622.122	140
622.329	127
622.536	141
622.743	142
622.95	134
623.157	124
623.364	139
623.571	133
623.778	132
623.985	123
624.192	126
624.399	127
624.606	128
624.812	133
625.019	127
625.226	133
625.433	121
625.639	126
625.846	123
626.053	123
626.259	131
626.466	132
626.673	133
626.879	122
627.086	127
627.293	131
627.499	127
627.706	124
627.912	127
628.119	117
628.325	142
628.532	123
628.738	127
628.945	119
629.151	117
629.357	129
629.564	141
629.77	132
629.976	127
630.183	125
630.389	116
630.595	121
630.802	122
631.008	123
631.214	111
631.42	122
631.627	128
631.833	124
632.039	133
632.245	116
632.451	110
632.657	99
632.863	115
633.069	103
633.275	117
633.481	109
633.688	115
633.893	124
634.099	131
634.305	125
634.511	119
634.717	119
634.923	111
635.129	117
635.335	109
635.541	136
635.747	115
635.952	110
636.158	124
636.364	133
636.57	116
636.775	134
636.981	128
637.187	98
637.392	119
637.598	125
637.804	122
638.009	133
638.215	117
638.421	124
638.626	128
638.832	110
639.037	123
639.243	118
639.448	109
639.654	129
639.859	110
640.065	113
640.27	126
640.475	112
640.681	121
640.886	111
641.091	112
641.297	135
641.502	119
641.707	120
641.913	112
642.118	121
642.323	105
642.528	125
642.733	117
642.939	113
643.144	115
643.349	110
643.554	123
643.759	116
643.964	117
644.169	117
644.374	102
644.579	115
644.784	119
644.989	109
645.194	115
645.399	104
645.604	117
645.809	112
646.014	116
646.219	124
646.423	113
646.628	117
646.833	115
647.038	106
647.243	104
647.447	117
647.652	131
647.857	102
648.062	123
648.266	122
648.471	127
648.676	120
648.88	108
649.085	96
649.289	111
649.494	122
649.698	139
649.903	109
650.107	118
650.312	132
650.516	118
650.721	125
650.925	99
651.13	101
651.334	107
651.539	105
651.743	101
651.947	110
652.152	118
652.356	104
652.56	102
652.764	111
652.969	107
653.173	105
653.377	111
653.581	106
653.785	131
653.99	112
654.194	117
654.398	100
654.602	93
654.806	105
655.01	112
655.214	103
655.418	113
655.622	110
655.826	100
656.03	109
656.234	117
656.438	126
656.642	107
656.846	112
657.049	106
657.253	104
657.457	107
657.661	98
657.865	101
658.068	84
658.272	99
658.476	89
658.68	94
658.883	81
659.087	94
659.291	98
659.494	87
659.698	83
659.901	85
660.105	79
660.309	98
660.512	75
660.716	97
660.919	80
661.123	74
661.326	86
661.53	84
661.733	92
661.936	98
662.14	83
662.343	88
662.546	94
662.75	91
662.953	81
663.156	83
663.36	96
663.563	83
663.766	83
663.969	87
664.173	76
664.376	87
664.579	100
664.782	95
664.985	99
665.188	91
665.391	85
665.594	65
665.797	91
666	89
666.203	78
666.406	76
666.609	90
666.812	79
667.015	91
667.218	80
667.421	85
667.624	79
667.827	100
668.03	101
668.232	86
668.435	85
668.638	87
668.841	92
669.043	102
669.246	76
669.449	88
669.651	87
669.854	77
670.057	85
670.259	85
670.462	77
670.665	77
670.867	84
671.07	71
671.272	92
671.475	87
671.677	91
671.88	81
672.082	92
672.284	71
672.487	78
672.689	73
672.892	74
