Data from 1966.PennyLincolnUp.Lamp.En5.5.200Scan.071719.P1._HRD10591_14-13-49-914.txt Node
Date: Thu Jul 18 14:13:49 EDT 2019
User: cochatt
Spectrometer: HR+D1059
Trigger mode: 1
Integration Time (sec): 1.000000E-1
Scans to average: 1
Electric dark correction enabled: true
Nonlinearity correction enabled: false
Boxcar width: 0
XAxis mode: Wavelengths
Number of Pixels in Spectrum: 2048
>>>>>Begin Spectral Data<<<<<
223.165	-13
223.4	-13
223.635	-13
223.869	-7
224.104	-24
224.338	-16
224.573	-19
224.808	-16
225.042	-6
225.277	-6
225.511	-1
225.746	5
225.98	-1
226.215	7
226.449	16
226.683	24
226.918	18
227.152	39
227.387	41
227.621	25
227.856	44
228.09	43
228.324	39
228.559	44
228.793	63
229.027	66
229.262	72
229.496	71
229.73	98
229.964	101
230.199	94
230.433	81
230.667	87
230.901	80
231.136	91
231.37	80
231.604	98
231.838	98
232.072	82
232.306	90
232.541	100
232.775	82
233.009	96
233.243	88
233.477	97
233.711	87
233.945	90
234.179	90
234.413	107
234.647	107
234.881	95
235.115	100
235.349	93
235.583	95
235.817	90
236.051	109
236.285	99
236.519	92
236.753	112
236.987	108
237.221	117
237.455	126
237.689	124
237.922	97
238.156	99
238.39	101
238.624	93
238.858	96
239.091	101
239.325	94
239.559	85
239.793	98
240.027	104
240.26	92
240.494	121
240.728	126
240.961	92
241.195	96
241.429	94
241.662	91
241.896	99
242.13	98
242.363	115
242.597	94
242.83	103
243.064	104
243.298	88
243.531	91
243.765	114
243.998	94
244.232	100
244.465	99
244.699	102
244.932	108
245.166	102
245.399	104
245.633	101
245.866	106
246.099	120
246.333	114
246.566	104
246.8	108
247.033	108
247.266	121
247.5	121
247.733	122
247.966	112
248.2	116
248.433	123
248.666	106
248.899	134
249.133	120
249.366	133
249.599	132
249.832	118
250.066	123
250.299	115
250.532	128
250.765	138
250.998	147
251.231	147
251.465	143
251.698	123
251.931	127
252.164	129
252.397	123
252.63	121
252.863	132
253.096	143
253.329	147
253.562	149
253.795	121
254.028	122
254.261	131
254.494	141
254.727	166
254.96	167
255.193	168
255.426	130
255.659	145
255.892	136
256.124	151
256.357	150
256.59	145
256.823	134
257.056	141
257.289	126
257.521	139
257.754	128
257.987	130
258.22	141
258.452	109
258.685	130
258.918	124
259.151	126
259.383	127
259.616	138
259.849	153
260.081	132
260.314	154
260.547	157
260.779	157
261.012	145
261.244	141
261.477	132
261.71	143
261.942	142
262.175	149
262.407	143
262.64	147
262.872	130
263.105	142
263.337	135
263.57	127
263.802	139
264.035	135
264.267	130
264.499	121
264.732	112
264.964	120
265.197	140
265.429	128
265.661	122
265.894	147
266.126	146
266.358	120
266.591	147
266.823	147
267.055	145
267.287	139
267.52	139
267.752	133
267.984	140
268.216	138
268.448	154
268.681	157
268.913	163
269.145	154
269.377	179
269.609	159
269.841	165
270.073	164
270.306	183
270.538	192
270.77	168
271.002	166
271.234	162
271.466	175
271.698	174
271.93	174
272.162	181
272.394	180
272.626	165
272.858	166
273.09	176
273.322	165
273.553	170
273.785	151
274.017	159
274.249	157
274.481	150
274.713	154
274.945	164
275.176	157
275.408	151
275.64	151
275.872	157
276.104	158
276.335	163
276.567	152
276.799	161
277.031	185
277.262	204
277.494	192
277.726	177
277.957	162
278.189	156
278.421	158
278.652	154
278.884	155
279.115	163
279.347	152
279.579	165
279.81	136
280.042	178
280.273	146
280.505	153
280.736	167
280.968	162
281.199	160
281.431	167
281.662	170
281.894	164
282.125	158
282.356	169
282.588	174
282.819	187
283.051	168
283.282	164
283.513	179
283.745	159
283.976	179
284.207	162
284.439	158
284.67	148
284.901	157
285.132	144
285.364	159
285.595	165
285.826	148
286.057	157
286.288	159
286.52	175
286.751	156
286.982	183
287.213	159
287.444	165
287.675	180
287.906	160
288.138	179
288.369	172
288.6	172
288.831	166
289.062	176
289.293	166
289.524	178
289.755	151
289.986	176
290.217	180
290.448	178
290.679	168
290.91	182
291.141	157
291.371	178
291.602	172
291.833	164
292.064	172
292.295	175
292.526	173
292.757	172
292.987	173
293.218	170
293.449	186
293.68	160
293.91	175
294.141	172
294.372	149
294.603	168
294.833	165
295.064	164
295.295	178
295.525	159
295.756	162
295.987	171
296.217	203
296.448	187
296.679	167
296.909	156
297.14	174
297.37	176
297.601	184
297.831	163
298.062	181
298.292	164
298.523	174
298.753	173
298.984	167
299.214	186
299.445	188
299.675	182
299.905	186
300.136	169
300.366	196
300.597	165
300.827	176
301.057	190
301.288	166
301.518	176
301.748	186
301.979	185
302.209	187
302.439	186
302.669	171
302.9	165
303.13	185
303.36	176
303.59	190
303.82	192
304.051	194
304.281	206
304.511	168
304.741	170
304.971	183
305.201	178
305.431	187
305.661	186
305.891	186
306.121	187
306.352	196
306.582	194
306.812	174
307.042	183
307.272	196
307.502	185
307.731	187
307.961	189
308.191	182
308.421	170
308.651	186
308.881	194
309.111	195
309.341	187
309.571	191
309.8	179
310.03	211
310.26	205
310.49	205
310.72	228
310.949	226
311.179	230
311.409	198
311.639	194
311.868	223
312.098	216
312.328	219
312.557	213
312.787	216
313.017	220
313.246	202
313.476	207
313.706	202
313.935	210
314.165	211
314.394	242
314.624	219
314.853	211
315.083	203
315.312	214
315.542	199
315.771	188
316.001	202
316.23	204
316.46	203
316.689	213
316.919	208
317.148	200
317.377	206
317.607	199
317.836	198
318.065	192
318.295	203
318.524	194
318.753	202
318.983	199
319.212	202
319.441	215
319.67	216
319.9	205
320.129	213
320.358	211
320.587	208
320.816	206
321.046	230
321.275	214
321.504	207
321.733	209
321.962	225
322.191	230
322.42	237
322.649	262
322.878	243
323.108	233
323.337	242
323.566	262
323.795	276
324.024	296
324.253	337
324.482	497
324.71	741
324.939	971
325.168	784
325.397	416
325.626	286
325.855	256
326.084	266
326.313	246
326.542	242
326.77	262
326.999	336
327.228	467
327.457	670
327.686	735
327.914	473
328.143	356
328.372	303
328.6	298
328.829	289
329.058	313
329.287	314
329.515	285
329.744	269
329.972	284
330.201	280
330.43	321
330.658	333
330.887	324
331.115	333
331.344	267
331.572	267
331.801	254
332.03	278
332.258	252
332.486	238
332.715	234
332.943	228
333.172	248
333.4	245
333.629	223
333.857	248
334.085	259
334.314	277
334.542	295
334.771	292
334.999	269
335.227	237
335.455	246
335.684	246
335.912	228
336.14	224
336.369	246
336.597	245
336.825	231
337.053	234
337.281	227
337.51	229
337.738	220
337.966	231
338.194	246
338.422	244
338.65	223
338.878	230
339.106	228
339.334	207
339.562	215
339.79	227
340.018	203
340.246	219
340.474	246
340.702	223
340.93	208
341.158	226
341.386	232
341.614	220
341.842	232
342.07	219
342.298	229
342.526	199
342.754	214
342.981	220
343.209	209
343.437	217
343.665	223
343.893	227
344.12	227
344.348	220
344.576	233
344.804	228
345.031	231
345.259	235
345.487	227
345.714	231
345.942	232
346.17	229
346.397	215
346.625	221
346.853	206
347.08	203
347.308	212
347.535	230
347.763	234
347.99	222
348.218	232
348.445	224
348.673	225
348.9	212
349.128	208
349.355	210
349.583	196
349.81	207
350.037	212
350.265	235
350.492	188
350.72	192
350.947	203
351.174	223
351.402	233
351.629	205
351.856	220
352.083	219
352.311	227
352.538	250
352.765	234
352.992	202
353.22	218
353.447	236
353.674	238
353.901	214
354.128	214
354.355	200
354.583	204
354.81	219
355.037	214
355.264	195
355.491	202
355.718	197
355.945	201
356.172	198
356.399	199
356.626	203
356.853	187
357.08	191
357.307	192
357.534	197
357.761	200
357.988	213
358.215	198
358.441	201
358.668	199
358.895	213
359.122	209
359.349	197
359.576	210
359.802	235
360.029	244
360.256	246
360.483	248
360.709	223
360.936	216
361.163	230
361.39	236
361.616	217
361.843	215
362.07	200
362.296	208
362.523	220
362.749	210
362.976	221
363.203	215
363.429	195
363.656	211
363.882	214
364.109	217
364.335	219
364.562	202
364.788	200
365.015	202
365.241	211
365.468	202
365.694	227
365.92	215
366.147	202
366.373	198
366.599	208
366.826	196
367.052	211
367.278	190
367.505	202
367.731	209
367.957	210
368.184	207
368.41	221
368.636	205
368.862	219
369.089	221
369.315	204
369.541	204
369.767	228
369.993	215
370.219	204
370.445	220
370.672	202
370.898	196
371.124	208
371.35	191
371.576	203
371.802	211
372.028	208
372.254	201
372.48	200
372.706	197
372.932	216
373.158	208
373.384	231
373.61	207
373.835	208
374.061	208
374.287	207
374.513	205
374.739	218
374.965	200
375.191	209
375.416	216
375.642	204
375.868	196
376.094	213
376.319	204
376.545	194
376.771	190
376.997	226
377.222	219
377.448	206
377.674	191
377.899	204
378.125	190
378.35	206
378.576	204
378.802	207
379.027	208
379.253	213
379.478	217
379.704	209
379.929	203
380.155	201
380.38	200
380.606	181
380.831	208
381.057	213
381.282	203
381.507	194
381.733	210
381.958	214
382.184	205
382.409	205
382.634	218
382.86	192
383.085	206
383.31	208
383.535	222
383.761	198
383.986	212
384.211	194
384.436	217
384.662	208
384.887	216
385.112	214
385.337	198
385.562	212
385.787	217
386.013	232
386.238	228
386.463	226
386.688	232
386.913	219
387.138	218
387.363	215
387.588	213
387.813	208
388.038	220
388.263	222
388.488	214
388.713	235
388.938	220
389.163	207
389.387	225
389.612	228
389.837	212
390.062	214
390.287	226
390.512	228
390.736	197
390.961	212
391.186	216
391.411	223
391.636	219
391.86	216
392.085	215
392.31	229
392.534	206
392.759	222
392.984	235
393.208	211
393.433	228
393.658	214
393.882	225
394.107	208
394.331	219
394.556	214
394.78	200
395.005	196
395.229	205
395.454	253
395.678	235
395.903	247
396.127	239
396.352	234
396.576	221
396.801	237
397.025	224
397.249	223
397.474	242
397.698	215
397.922	220
398.147	228
398.371	218
398.595	242
398.82	253
399.044	245
399.268	261
399.492	256
399.717	283
399.941	287
400.165	306
400.389	287
400.613	278
400.837	259
401.062	247
401.286	255
401.51	263
401.734	258
401.958	260
402.182	249
402.406	274
402.63	263
402.854	266
403.078	240
403.302	260
403.526	259
403.75	256
403.974	260
404.198	248
404.422	266
404.645	265
404.869	243
405.093	284
405.317	285
405.541	284
405.765	265
405.988	280
406.212	302
406.436	295
406.66	299
406.883	296
407.107	278
407.331	275
407.555	331
407.778	327
408.002	288
408.226	272
408.449	277
408.673	268
408.896	280
409.12	302
409.344	283
409.567	268
409.791	260
410.014	257
410.238	246
410.461	263
410.685	262
410.908	246
411.132	279
411.355	293
411.578	279
411.802	239
412.025	258
412.249	271
412.472	270
412.695	272
412.919	300
413.142	284
413.365	261
413.589	249
413.812	229
414.035	253
414.258	242
414.482	238
414.705	264
414.928	240
415.151	245
415.374	239
415.597	250
415.821	244
416.044	247
416.267	235
416.49	231
416.713	246
416.936	253
417.159	244
417.382	228
417.605	237
417.828	256
418.051	268
418.274	250
418.497	250
418.72	243
418.943	234
419.166	250
419.389	255
419.611	264
419.834	254
420.057	254
420.28	268
420.503	254
420.726	266
420.948	277
421.171	318
421.394	276
421.617	254
421.839	254
422.062	250
422.285	259
422.507	301
422.73	302
422.953	301
423.175	250
423.398	266
423.621	279
423.843	269
424.066	287
424.288	271
424.511	276
424.733	301
424.956	325
425.178	347
425.401	326
425.623	326
425.846	274
426.068	276
426.291	276
426.513	269
426.735	282
426.958	299
427.18	318
427.402	381
427.625	410
427.847	357
428.069	308
428.292	283
428.514	265
428.736	263
428.958	248
429.181	244
429.403	262
429.625	265
429.847	275
430.069	310
430.292	279
430.514	263
430.736	248
430.958	230
431.18	231
431.402	252
431.624	230
431.846	245
432.068	249
432.29	249
432.512	231
432.734	252
432.956	246
433.178	247
433.4	239
433.622	240
433.844	250
434.066	233
434.287	240
434.509	230
434.731	273
434.953	283
435.175	279
435.397	261
435.618	267
435.84	280
436.062	320
436.284	355
436.505	302
436.727	278
436.949	243
437.17	237
437.392	265
437.614	266
437.835	263
438.057	319
438.278	374
438.5	349
438.721	358
438.943	352
439.165	278
439.386	266
439.608	265
439.829	286
440.05	300
440.272	318
440.493	285
440.715	280
440.936	281
441.158	278
441.379	252
441.6	260
441.822	268
442.043	282
442.264	326
442.486	363
442.707	289
442.928	298
443.149	295
443.371	296
443.592	300
443.813	343
444.034	349
444.255	312
444.476	278
444.698	280
444.919	271
445.14	348
445.361	308
445.582	304
445.803	329
446.024	375
446.245	378
446.466	302
446.687	302
446.908	257
447.129	256
447.35	246
447.571	250
447.792	252
448.013	255
448.234	236
448.455	280
448.675	324
448.896	363
449.117	308
449.338	309
449.559	351
449.779	365
450	318
450.221	278
450.442	249
450.662	244
450.883	268
451.104	275
451.324	258
451.545	244
451.766	244
451.986	228
452.207	237
452.428	238
452.648	236
452.869	241
453.089	250
453.31	251
453.53	254
453.751	236
453.971	237
454.192	246
454.412	229
454.633	231
454.853	219
455.073	238
455.294	246
455.514	285
455.734	274
455.955	243
456.175	207
456.395	221
456.616	217
456.836	236
457.056	214
457.276	212
457.497	205
457.717	226
457.937	202
458.157	222
458.377	227
458.598	232
458.818	285
459.038	326
459.258	301
459.478	245
459.698	244
459.918	248
460.138	240
460.358	240
460.578	244
460.798	244
461.018	237
461.238	251
461.458	238
461.678	243
461.898	237
462.118	238
462.338	244
462.558	235
462.777	262
462.997	269
463.217	270
463.437	280
463.657	248
463.876	262
464.096	258
464.316	259
464.536	270
464.755	252
464.975	248
465.195	287
465.414	356
465.634	312
465.854	273
466.073	231
466.293	236
466.512	238
466.732	235
466.951	246
467.171	222
467.391	247
467.61	256
467.829	241
468.049	240
468.268	234
468.488	228
468.707	235
468.927	222
469.146	219
469.365	227
469.585	210
469.804	235
470.023	239
470.243	244
470.462	245
470.681	253
470.901	223
471.12	262
471.339	238
471.558	255
471.777	245
471.997	269
472.216	246
472.435	270
472.654	259
472.873	252
473.092	226
473.311	237
473.53	231
473.749	246
473.968	262
474.187	312
474.406	329
474.625	268
474.844	259
475.063	229
475.282	232
475.501	247
475.72	237
475.939	227
476.158	242
476.377	249
476.596	245
476.814	244
477.033	243
477.252	261
477.471	225
477.69	236
477.908	251
478.127	255
478.346	250
478.564	250
478.783	270
479.002	258
479.22	251
479.439	278
479.658	288
479.876	283
480.095	297
480.313	301
480.532	273
480.751	278
480.969	302
481.188	341
481.406	384
481.624	303
481.843	285
482.061	285
482.28	292
482.498	295
482.717	267
482.935	252
483.153	272
483.372	270
483.59	294
483.808	276
484.027	272
484.245	272
484.463	266
484.681	264
484.9	279
485.118	286
485.336	269
485.554	272
485.772	275
485.99	257
486.209	272
486.427	288
486.645	294
486.863	301
487.081	310
487.299	296
487.517	287
487.735	304
487.953	292
488.171	299
488.389	294
488.607	308
488.825	295
489.043	297
489.261	292
489.479	289
489.696	285
489.914	293
490.132	294
490.35	315
490.568	322
490.786	312
491.003	315
491.221	314
491.439	324
491.657	332
491.874	341
492.092	349
492.31	346
492.527	352
492.745	354
492.963	340
493.18	336
493.398	344
493.615	330
493.833	354
494.05	334
494.268	354
494.485	359
494.703	323
494.92	336
495.138	332
495.355	335
495.573	351
495.79	348
496.008	336
496.225	345
496.442	333
496.66	335
496.877	332
497.094	356
497.312	341
497.529	355
497.746	336
497.963	352
498.181	370
498.398	372
498.615	364
498.832	372
499.049	381
499.267	370
499.484	380
499.701	388
499.918	419
500.135	432
500.352	426
500.569	431
500.786	452
501.003	434
501.22	435
501.437	410
501.654	421
501.871	429
502.088	399
502.305	377
502.522	375
502.739	335
502.956	346
503.172	347
503.389	340
503.606	344
503.823	341
504.04	338
504.256	335
504.473	333
504.69	337
504.907	338
505.123	346
505.34	327
505.557	315
505.773	315
505.99	315
506.207	319
506.423	328
506.64	322
506.856	327
507.073	326
507.289	308
507.506	341
507.722	326
507.939	334
508.155	317
508.372	333
508.588	310
508.805	323
509.021	292
509.238	298
509.454	317
509.67	325
509.887	300
510.103	310
510.319	320
510.536	384
510.752	722
510.968	530
511.184	304
511.401	301
511.617	303
511.833	277
512.049	302
512.265	287
512.481	286
512.698	285
512.914	299
513.13	286
513.346	294
513.562	277
513.778	282
513.994	298
514.21	303
514.426	314
514.642	353
514.858	346
515.074	380
515.29	486
515.506	785
515.721	614
515.937	365
516.153	339
516.369	326
516.585	306
516.801	321
517.016	298
517.232	288
517.448	296
517.664	310
517.879	284
518.095	288
518.311	290
518.527	300
518.742	283
518.958	285
519.173	293
519.389	296
519.605	286
519.82	282
520.036	309
520.251	311
520.467	350
520.682	324
520.898	331
521.113	336
521.329	386
521.544	436
521.76	584
521.975	1078
522.19	1079
522.406	499
522.621	350
522.836	299
523.052	299
523.267	282
523.482	263
523.698	263
523.913	263
524.128	288
524.343	266
524.559	243
524.774	253
524.989	262
525.204	271
525.419	268
525.634	251
525.849	260
526.064	258
526.28	227
526.495	245
526.71	254
526.925	234
527.14	222
527.355	227
527.57	243
527.785	233
527.999	243
528.214	247
528.429	245
528.644	245
528.859	253
529.074	256
529.289	260
529.503	323
529.718	299
529.933	256
530.148	247
530.363	248
530.577	250
530.792	226
531.007	256
531.221	252
531.436	234
531.651	245
531.865	234
532.08	229
532.295	232
532.509	228
532.724	236
532.938	234
533.153	223
533.367	245
533.582	216
533.796	220
534.011	234
534.225	231
534.44	213
534.654	237
534.868	230
535.083	232
535.297	228
535.511	235
535.726	246
535.94	225
536.154	225
536.369	231
536.583	225
536.797	224
537.011	224
537.225	221
537.44	222
537.654	229
537.868	233
538.082	238
538.296	235
538.51	216
538.724	226
538.938	231
539.153	221
539.367	238
539.581	234
539.795	230
540.009	217
540.222	225
540.436	220
540.65	222
540.864	224
541.078	227
541.292	216
541.506	235
541.72	215
541.934	247
542.147	240
542.361	242
542.575	212
542.789	228
543.002	220
543.216	218
543.43	247
543.644	236
543.857	235
544.071	245
544.285	230
544.498	238
544.712	229
544.925	221
545.139	233
545.352	248
545.566	215
545.779	234
545.993	233
546.206	223
546.42	226
546.633	234
546.847	230
547.06	234
547.274	212
547.487	220
547.7	230
547.914	214
548.127	228
548.34	217
548.554	224
548.767	218
548.98	215
549.193	215
549.407	215
549.62	223
549.833	215
550.046	217
550.259	219
550.473	230
550.686	228
550.899	223
551.112	231
551.325	199
551.538	227
551.751	213
551.964	207
552.177	203
552.39	208
552.603	217
552.816	219
553.029	216
553.242	214
553.455	220
553.667	219
553.88	230
554.093	218
554.306	231
554.519	228
554.732	202
554.944	203
555.157	207
555.37	206
555.583	212
555.795	190
556.008	207
556.221	188
556.433	198
556.646	191
556.859	216
557.071	197
557.284	221
557.496	200
557.709	198
557.921	202
558.134	198
558.346	188
558.559	191
558.771	199
558.984	216
559.196	189
559.409	200
559.621	200
559.833	199
560.046	195
560.258	214
560.47	198
560.683	195
560.895	173
561.107	184
561.32	194
561.532	196
561.744	206
561.956	180
562.168	197
562.381	186
562.593	192
562.805	195
563.017	180
563.229	198
563.441	195
563.653	204
563.865	188
564.077	190
564.289	191
564.501	199
564.713	208
564.925	214
565.137	202
565.349	212
565.561	217
565.773	207
565.985	227
566.197	223
566.408	228
566.62	213
566.832	223
567.044	236
567.255	244
567.467	234
567.679	231
567.891	229
568.102	241
568.314	246
568.526	240
568.737	203
568.949	221
569.161	209
569.372	209
569.584	195
569.795	192
570.007	207
570.218	215
570.43	226
570.641	182
570.853	183
571.064	189
571.276	198
571.487	172
571.698	186
571.91	172
572.121	166
572.333	175
572.544	183
572.755	171
572.966	172
573.178	180
573.389	182
573.6	183
573.811	170
574.023	164
574.234	182
574.445	176
574.656	165
574.867	174
575.078	193
575.289	178
575.501	171
575.712	160
575.923	178
576.134	167
576.345	170
576.556	162
576.767	183
576.978	190
577.188	162
577.399	166
577.61	165
577.821	170
578.032	160
578.243	214
578.454	362
578.665	235
578.875	181
579.086	172
579.297	167
579.508	164
579.718	179
579.929	169
580.14	155
580.35	153
580.561	166
580.772	168
580.982	154
581.193	165
581.403	151
581.614	150
581.825	165
582.035	165
582.246	160
582.456	158
582.667	164
582.877	160
583.087	165
583.298	168
583.508	172
583.719	170
583.929	155
584.139	170
584.35	163
584.56	156
584.77	162
584.981	158
585.191	162
585.401	159
585.611	146
585.821	161
586.032	167
586.242	153
586.452	157
586.662	167
586.872	174
587.082	164
587.292	159
587.502	157
587.713	160
587.923	163
588.133	142
588.343	154
588.553	146
588.762	158
588.972	176
589.182	159
589.392	160
589.602	158
589.812	163
590.022	147
590.232	169
590.441	165
590.651	155
590.861	163
591.071	164
591.281	163
591.49	148
591.7	160
591.91	161
592.119	168
592.329	164
592.539	176
592.748	171
592.958	168
593.167	165
593.377	171
593.587	173
593.796	170
594.006	157
594.215	169
594.424	171
594.634	156
594.843	163
595.053	170
595.262	177
595.472	159
595.681	150
595.89	156
596.1	145
596.309	167
596.518	160
596.727	165
596.937	150
597.146	157
597.355	144
597.564	155
597.774	151
597.983	135
598.192	143
598.401	158
598.61	142
598.819	144
599.028	134
599.237	146
599.446	134
599.655	151
599.864	148
600.073	126
600.282	149
600.491	141
600.7	152
600.909	143
601.118	156
601.327	152
601.536	144
601.745	129
601.953	148
602.162	154
602.371	150
602.58	130
602.789	156
602.997	141
603.206	144
603.415	142
603.623	137
603.832	151
604.041	138
604.249	136
604.458	147
604.666	135
604.875	156
605.084	139
605.292	139
605.501	141
605.709	148
605.918	138
606.126	142
606.334	130
606.543	138
606.751	148
606.96	147
607.168	137
607.376	141
607.585	150
607.793	144
608.001	138
608.21	144
608.418	131
608.626	142
608.834	149
609.043	147
609.251	143
609.459	126
609.667	141
609.875	142
610.083	148
610.291	144
610.499	153
610.707	142
610.916	143
611.124	140
611.332	151
611.54	146
611.748	130
611.955	127
612.163	171
612.371	134
612.579	137
612.787	153
612.995	142
613.203	142
613.411	144
613.618	144
613.826	128
614.034	135
614.242	137
614.449	128
614.657	154
614.865	140
615.072	127
615.28	134
615.488	148
615.695	144
615.903	160
616.111	149
616.318	158
616.526	137
616.733	148
616.941	140
617.148	138
617.356	140
617.563	151
617.771	118
617.978	131
618.185	134
618.393	139
618.6	122
618.807	132
619.015	128
619.222	138
619.429	139
619.637	152
619.844	132
620.051	137
620.258	134
620.466	134
620.673	142
620.88	142
621.087	137
621.294	154
621.501	143
621.708	145
621.915	158
622.122	146
622.329	144
622.536	145
622.743	110
622.95	128
623.157	150
623.364	140
623.571	136
623.778	119
623.985	128
624.192	141
624.399	136
624.606	124
624.812	128
625.019	125
625.226	128
625.433	152
625.639	125
625.846	138
626.053	134
626.259	126
626.466	134
626.673	134
626.879	127
627.086	119
627.293	136
627.499	124
627.706	141
627.912	129
628.119	131
628.325	127
628.532	127
628.738	140
628.945	136
629.151	115
629.357	122
629.564	121
629.77	130
629.976	110
630.183	114
630.389	122
630.595	122
630.802	139
631.008	122
631.214	142
631.42	124
631.627	131
631.833	122
632.039	121
632.245	109
632.451	132
632.657	118
632.863	130
633.069	117
633.275	130
633.481	110
633.688	117
633.893	124
634.099	126
634.305	121
634.511	134
634.717	109
634.923	122
635.129	124
635.335	128
635.541	132
635.747	120
635.952	125
636.158	121
636.364	115
636.57	134
636.775	138
636.981	127
637.187	126
637.392	122
637.598	111
637.804	127
638.009	130
638.215	125
638.421	126
638.626	110
638.832	127
639.037	122
639.243	110
639.448	111
639.654	143
639.859	116
640.065	117
640.27	119
640.475	96
640.681	96
640.886	119
641.091	116
641.297	124
641.502	122
641.707	127
641.913	111
642.118	122
642.323	125
642.528	112
642.733	118
642.939	122
643.144	124
643.349	117
643.554	105
643.759	122
643.964	119
644.169	127
644.374	120
644.579	114
644.784	123
644.989	111
645.194	88
645.399	119
645.604	117
645.809	114
646.014	118
646.219	117
646.423	96
646.628	101
646.833	131
647.038	118
647.243	108
647.447	127
647.652	110
647.857	123
648.062	111
648.266	125
648.471	111
648.676	121
648.88	109
649.085	124
649.289	107
649.494	113
649.698	112
649.903	127
650.107	130
650.312	111
650.516	114
650.721	114
650.925	127
651.13	100
651.334	117
651.539	123
651.743	106
651.947	118
652.152	118
652.356	107
652.56	110
652.764	107
652.969	103
653.173	100
653.377	109
653.581	118
653.785	111
653.99	124
654.194	104
654.398	104
654.602	110
654.806	115
655.01	120
655.214	126
655.418	105
655.622	107
655.826	111
656.03	118
656.234	95
656.438	106
656.642	118
656.846	95
657.049	106
657.253	107
657.457	96
657.661	104
657.865	106
658.068	105
658.272	92
658.476	94
658.68	100
658.883	91
659.087	103
659.291	79
659.494	88
659.698	83
659.901	89
660.105	99
660.309	86
660.512	77
660.716	99
660.919	80
661.123	91
661.326	88
661.53	87
661.733	93
661.936	74
662.14	71
662.343	79
662.546	96
662.75	90
662.953	82
663.156	85
663.36	80
663.563	93
663.766	77
663.969	83
664.173	88
664.376	76
664.579	94
664.782	89
664.985	85
665.188	83
665.391	83
665.594	70
665.797	89
666	96
666.203	88
666.406	70
666.609	84
666.812	75
667.015	91
667.218	75
667.421	69
667.624	98
667.827	81
668.03	87
668.232	88
668.435	83
668.638	78
668.841	66
669.043	82
669.246	89
669.449	97
669.651	76
669.854	79
670.057	92
670.259	86
670.462	84
670.665	86
670.867	88
671.07	85
671.272	92
671.475	90
671.677	93
671.88	86
672.082	77
672.284	81
672.487	79
672.689	82
672.892	68
