Data from 1966.PennyLincolnUp.Lamp.En5.5.200Scan.071719.P1._HRD10591_14-15-26-950.txt Node
Date: Thu Jul 18 14:15:26 EDT 2019
User: cochatt
Spectrometer: HR+D1059
Trigger mode: 1
Integration Time (sec): 1.000000E-1
Scans to average: 1
Electric dark correction enabled: true
Nonlinearity correction enabled: false
Boxcar width: 0
XAxis mode: Wavelengths
Number of Pixels in Spectrum: 2048
>>>>>Begin Spectral Data<<<<<
223.165	-14
223.4	-14
223.635	-14
223.869	-13
224.104	-18
224.338	-7
224.573	-13
224.808	-27
225.042	-8
225.277	-9
225.511	3
225.746	14
225.98	10
226.215	12
226.449	8
226.683	25
226.918	17
227.152	20
227.387	27
227.621	29
227.856	33
228.09	41
228.324	49
228.559	64
228.793	60
229.027	61
229.262	80
229.496	78
229.73	120
229.964	108
230.199	97
230.433	91
230.667	78
230.901	82
231.136	87
231.37	93
231.604	99
231.838	86
232.072	89
232.306	90
232.541	91
232.775	82
233.009	86
233.243	92
233.477	109
233.711	109
233.945	91
234.179	98
234.413	108
234.647	105
234.881	100
235.115	82
235.349	97
235.583	93
235.817	101
236.051	100
236.285	89
236.519	104
236.753	95
236.987	101
237.221	112
237.455	142
237.689	121
237.922	98
238.156	106
238.39	98
238.624	110
238.858	101
239.091	101
239.325	88
239.559	95
239.793	91
240.027	91
240.26	93
240.494	114
240.728	110
240.961	88
241.195	89
241.429	110
241.662	108
241.896	94
242.13	91
242.363	85
242.597	100
242.83	99
243.064	92
243.298	105
243.531	101
243.765	93
243.998	106
244.232	114
244.465	106
244.699	106
244.932	103
245.166	101
245.399	108
245.633	116
245.866	107
246.099	109
246.333	102
246.566	112
246.8	99
247.033	115
247.266	108
247.5	110
247.733	117
247.966	117
248.2	103
248.433	134
248.666	118
248.899	135
249.133	128
249.366	147
249.599	127
249.832	140
250.066	137
250.299	113
250.532	119
250.765	146
250.998	142
251.231	164
251.465	133
251.698	132
251.931	136
252.164	135
252.397	130
252.63	122
252.863	132
253.096	138
253.329	144
253.562	139
253.795	132
254.028	131
254.261	133
254.494	132
254.727	150
254.96	160
255.193	168
255.426	155
255.659	133
255.892	143
256.124	134
256.357	144
256.59	135
256.823	130
257.056	141
257.289	133
257.521	145
257.754	158
257.987	140
258.22	134
258.452	123
258.685	134
258.918	125
259.151	137
259.383	126
259.616	150
259.849	142
260.081	149
260.314	155
260.547	168
260.779	154
261.012	147
261.244	133
261.477	142
261.71	142
261.942	140
262.175	152
262.407	136
262.64	141
262.872	136
263.105	136
263.337	150
263.57	147
263.802	129
264.035	142
264.267	132
264.499	130
264.732	125
264.964	126
265.197	128
265.429	134
265.661	130
265.894	138
266.126	128
266.358	136
266.591	134
266.823	152
267.055	122
267.287	130
267.52	138
267.752	135
267.984	138
268.216	143
268.448	157
268.681	147
268.913	156
269.145	149
269.377	170
269.609	163
269.841	173
270.073	172
270.306	185
270.538	179
270.77	184
271.002	177
271.234	167
271.466	186
271.698	179
271.93	168
272.162	202
272.394	204
272.626	174
272.858	180
273.09	166
273.322	142
273.553	162
273.785	158
274.017	170
274.249	169
274.481	164
274.713	164
274.945	146
275.176	150
275.408	164
275.64	151
275.872	162
276.104	156
276.335	175
276.567	161
276.799	170
277.031	176
277.262	214
277.494	203
277.726	184
277.957	189
278.189	181
278.421	162
278.652	173
278.884	161
279.115	157
279.347	172
279.579	154
279.81	155
280.042	170
280.273	155
280.505	163
280.736	163
280.968	159
281.199	169
281.431	160
281.662	159
281.894	153
282.125	167
282.356	177
282.588	188
282.819	189
283.051	176
283.282	167
283.513	154
283.745	156
283.976	168
284.207	168
284.439	181
284.67	178
284.901	152
285.132	173
285.364	168
285.595	173
285.826	163
286.057	161
286.288	167
286.52	171
286.751	165
286.982	155
287.213	180
287.444	170
287.675	176
287.906	177
288.138	179
288.369	174
288.6	181
288.831	186
289.062	196
289.293	171
289.524	173
289.755	171
289.986	164
290.217	165
290.448	162
290.679	168
290.91	150
291.141	182
291.371	171
291.602	170
291.833	172
292.064	168
292.295	173
292.526	164
292.757	169
292.987	185
293.218	163
293.449	160
293.68	180
293.91	163
294.141	168
294.372	170
294.603	184
294.833	196
295.064	165
295.295	161
295.525	169
295.756	177
295.987	186
296.217	211
296.448	209
296.679	165
296.909	198
297.14	175
297.37	179
297.601	177
297.831	181
298.062	192
298.292	179
298.523	187
298.753	180
298.984	177
299.214	176
299.445	176
299.675	169
299.905	163
300.136	167
300.366	176
300.597	189
300.827	180
301.057	181
301.288	178
301.518	201
301.748	171
301.979	196
302.209	184
302.439	186
302.669	201
302.9	179
303.13	205
303.36	189
303.59	196
303.82	210
304.051	186
304.281	188
304.511	186
304.741	188
304.971	173
305.201	182
305.431	177
305.661	183
305.891	188
306.121	180
306.352	167
306.582	200
306.812	192
307.042	198
307.272	183
307.502	204
307.731	188
307.961	197
308.191	190
308.421	180
308.651	195
308.881	200
309.111	190
309.341	188
309.571	185
309.8	222
310.03	220
310.26	201
310.49	217
310.72	205
310.949	226
311.179	214
311.409	215
311.639	215
311.868	209
312.098	229
312.328	219
312.557	213
312.787	243
313.017	235
313.246	219
313.476	217
313.706	220
313.935	222
314.165	236
314.394	215
314.624	227
314.853	223
315.083	202
315.312	225
315.542	203
315.771	214
316.001	202
316.23	209
316.46	216
316.689	217
316.919	219
317.148	230
317.377	220
317.607	220
317.836	218
318.065	199
318.295	202
318.524	206
318.753	209
318.983	224
319.212	207
319.441	201
319.67	214
319.9	199
320.129	203
320.358	211
320.587	204
320.816	210
321.046	230
321.275	228
321.504	220
321.733	226
321.962	222
322.191	217
322.42	238
322.649	240
322.878	256
323.108	270
323.337	268
323.566	256
323.795	302
324.024	321
324.253	389
324.482	572
324.71	828
324.939	1113
325.168	907
325.397	481
325.626	326
325.855	278
326.084	267
326.313	279
326.542	272
326.77	304
326.999	338
327.228	486
327.457	741
327.686	816
327.914	535
328.143	365
328.372	350
328.6	315
328.829	316
329.058	326
329.287	307
329.515	288
329.744	289
329.972	292
330.201	314
330.43	332
330.658	344
330.887	362
331.115	349
331.344	269
331.572	271
331.801	273
332.03	276
332.258	259
332.486	249
332.715	242
332.943	264
333.172	255
333.4	248
333.629	236
333.857	268
334.085	280
334.314	287
334.542	311
334.771	324
334.999	302
335.227	264
335.455	230
335.684	236
335.912	241
336.14	258
336.369	235
336.597	251
336.825	264
337.053	245
337.281	237
337.51	258
337.738	234
337.966	242
338.194	250
338.422	250
338.65	261
338.878	238
339.106	246
339.334	232
339.562	224
339.79	237
340.018	212
340.246	213
340.474	233
340.702	243
340.93	235
341.158	244
341.386	236
341.614	232
341.842	237
342.07	228
342.298	227
342.526	247
342.754	221
342.981	228
343.209	231
343.437	221
343.665	240
343.893	253
344.12	248
344.348	230
344.576	228
344.804	253
345.031	222
345.259	242
345.487	244
345.714	221
345.942	218
346.17	229
346.397	226
346.625	225
346.853	222
347.08	218
347.308	246
347.535	246
347.763	245
347.99	223
348.218	231
348.445	247
348.673	220
348.9	232
349.128	226
349.355	214
349.583	215
349.81	216
350.037	208
350.265	203
350.492	205
350.72	207
350.947	231
351.174	230
351.402	236
351.629	234
351.856	230
352.083	240
352.311	242
352.538	235
352.765	224
352.992	220
353.22	232
353.447	229
353.674	217
353.901	203
354.128	209
354.355	206
354.583	209
354.81	214
355.037	219
355.264	217
355.491	202
355.718	209
355.945	218
356.172	196
356.399	196
356.626	222
356.853	224
357.08	208
357.307	212
357.534	193
357.761	202
357.988	215
358.215	206
358.441	213
358.668	207
358.895	218
359.122	213
359.349	217
359.576	218
359.802	234
360.029	268
360.256	270
360.483	237
360.709	227
360.936	228
361.163	237
361.39	228
361.616	237
361.843	237
362.07	208
362.296	247
362.523	233
362.749	231
362.976	201
363.203	222
363.429	212
363.656	214
363.882	228
364.109	200
364.335	225
364.562	207
364.788	201
365.015	201
365.241	199
365.468	209
365.694	216
365.92	233
366.147	213
366.373	216
366.599	212
366.826	209
367.052	209
367.278	243
367.505	218
367.731	200
367.957	205
368.184	209
368.41	215
368.636	230
368.862	221
369.089	212
369.315	205
369.541	210
369.767	200
369.993	217
370.219	212
370.445	214
370.672	213
370.898	204
371.124	230
371.35	219
371.576	206
371.802	222
372.028	221
372.254	201
372.48	223
372.706	204
372.932	219
373.158	218
373.384	230
373.61	203
373.835	204
374.061	213
374.287	212
374.513	227
374.739	213
374.965	211
375.191	208
375.416	215
375.642	206
375.868	210
376.094	229
376.319	196
376.545	217
376.771	201
376.997	220
377.222	223
377.448	201
377.674	198
377.899	214
378.125	228
378.35	204
378.576	219
378.802	212
379.027	222
379.253	212
379.478	201
379.704	201
379.929	203
380.155	219
380.38	225
380.606	210
380.831	188
381.057	221
381.282	217
381.507	205
381.733	229
381.958	221
382.184	218
382.409	193
382.634	218
382.86	215
383.085	213
383.31	232
383.535	211
383.761	204
383.986	226
384.211	211
384.436	210
384.662	221
384.887	214
385.112	225
385.337	216
385.562	228
385.787	235
386.013	238
386.238	241
386.463	238
386.688	225
386.913	229
387.138	225
387.363	212
387.588	224
387.813	205
388.038	217
388.263	219
388.488	214
388.713	213
388.938	226
389.163	223
389.387	231
389.612	224
389.837	235
390.062	216
390.287	216
390.512	220
390.736	220
390.961	213
391.186	227
391.411	222
391.636	250
391.86	231
392.085	231
392.31	244
392.534	225
392.759	240
392.984	228
393.208	233
393.433	246
393.658	226
393.882	217
394.107	205
394.331	224
394.556	231
394.78	233
395.005	235
395.229	221
395.454	241
395.678	219
395.903	242
396.127	234
396.352	254
396.576	233
396.801	220
397.025	247
397.249	227
397.474	250
397.698	236
397.922	245
398.147	246
398.371	254
398.595	259
398.82	243
399.044	243
399.268	261
399.492	291
399.717	291
399.941	286
400.165	309
400.389	298
400.613	289
400.837	262
401.062	269
401.286	269
401.51	251
401.734	265
401.958	281
402.182	244
402.406	288
402.63	286
402.854	290
403.078	260
403.302	254
403.526	270
403.75	277
403.974	277
404.198	261
404.422	271
404.645	269
404.869	265
405.093	296
405.317	297
405.541	299
405.765	299
405.988	296
406.212	297
406.436	322
406.66	304
406.883	308
407.107	300
407.331	312
407.555	356
407.778	322
408.002	297
408.226	314
408.449	284
408.673	280
408.896	304
409.12	313
409.344	280
409.567	258
409.791	264
410.014	272
410.238	270
410.461	254
410.685	282
410.908	275
411.132	295
411.355	288
411.578	295
411.802	279
412.025	268
412.249	276
412.472	291
412.695	302
412.919	291
413.142	285
413.365	251
413.589	262
413.812	269
414.035	260
414.258	241
414.482	240
414.705	246
414.928	250
415.151	267
415.374	258
415.597	236
415.821	260
416.044	259
416.267	264
416.49	250
416.713	256
416.936	250
417.159	258
417.382	248
417.605	259
417.828	280
418.051	265
418.274	272
418.497	258
418.72	260
418.943	249
419.166	269
419.389	276
419.611	272
419.834	266
420.057	261
420.28	261
420.503	274
420.726	232
420.948	263
421.171	297
421.394	306
421.617	272
421.839	267
422.062	266
422.285	271
422.507	304
422.73	341
422.953	318
423.175	284
423.398	263
423.621	278
423.843	284
424.066	286
424.288	288
424.511	315
424.733	321
424.956	354
425.178	350
425.401	344
425.623	322
425.846	302
426.068	290
426.291	296
426.513	260
426.735	289
426.958	296
427.18	349
427.402	405
427.625	436
427.847	375
428.069	334
428.292	286
428.514	257
428.736	268
428.958	260
429.181	267
429.403	286
429.625	278
429.847	284
430.069	292
430.292	309
430.514	266
430.736	251
430.958	236
431.18	249
431.402	252
431.624	245
431.846	248
432.068	240
432.29	261
432.512	260
432.734	249
432.956	264
433.178	267
433.4	247
433.622	268
433.844	261
434.066	232
434.287	252
434.509	245
434.731	260
434.953	283
435.175	271
435.397	286
435.618	276
435.84	309
436.062	326
436.284	360
436.505	306
436.727	267
436.949	280
437.17	266
437.392	266
437.614	269
437.835	272
438.057	332
438.278	386
438.5	355
438.721	386
438.943	380
439.165	304
439.386	283
439.608	286
439.829	285
440.05	302
440.272	310
440.493	302
440.715	277
440.936	260
441.158	249
441.379	274
441.6	280
441.822	282
442.043	317
442.264	335
442.486	336
442.707	312
442.928	289
443.149	293
443.371	301
443.592	340
443.813	376
444.034	368
444.255	325
444.476	289
444.698	285
444.919	286
445.14	382
445.361	354
445.582	324
445.803	364
446.024	384
446.245	365
446.466	336
446.687	298
446.908	276
447.129	277
447.35	263
447.571	249
447.792	276
448.013	252
448.234	283
448.455	306
448.675	322
448.896	375
449.117	322
449.338	313
449.559	374
449.779	390
450	311
450.221	276
450.442	262
450.662	260
450.883	270
451.104	276
451.324	270
451.545	250
451.766	236
451.986	241
452.207	253
452.428	237
452.648	237
452.869	260
453.089	248
453.31	247
453.53	232
453.751	240
453.971	253
454.192	265
454.412	247
454.633	251
454.853	230
455.073	229
455.294	269
455.514	292
455.734	267
455.955	214
456.175	227
456.395	227
456.616	212
456.836	246
457.056	231
457.276	212
457.497	205
457.717	220
457.937	242
458.157	227
458.377	233
458.598	258
458.818	284
459.038	334
459.258	324
459.478	286
459.698	260
459.918	250
460.138	254
460.358	248
460.578	268
460.798	253
461.018	243
461.238	256
461.458	248
461.678	250
461.898	251
462.118	258
462.338	262
462.558	257
462.777	245
462.997	278
463.217	280
463.437	279
463.657	266
463.876	250
464.096	259
464.316	272
464.536	280
464.755	277
464.975	268
465.195	320
465.414	349
465.634	301
465.854	275
466.073	256
466.293	236
466.512	240
466.732	264
466.951	244
467.171	233
467.391	243
467.61	244
467.829	267
468.049	249
468.268	269
468.488	228
468.707	251
468.927	242
469.146	220
469.365	238
469.585	245
469.804	240
470.023	268
470.243	254
470.462	251
470.681	274
470.901	248
471.12	254
471.339	257
471.558	247
471.777	244
471.997	254
472.216	254
472.435	313
472.654	277
472.873	235
473.092	232
473.311	253
473.53	236
473.749	239
473.968	274
474.187	339
474.406	338
474.625	290
474.844	270
475.063	235
475.282	234
475.501	244
475.72	256
475.939	245
476.158	260
476.377	245
476.596	251
476.814	245
477.033	255
477.252	265
477.471	277
477.69	258
477.908	257
478.127	271
478.346	275
478.564	280
478.783	264
479.002	284
479.22	283
479.439	281
479.658	295
479.876	297
480.095	299
480.313	320
480.532	316
480.751	314
480.969	317
481.188	374
481.406	418
481.624	330
481.843	308
482.061	291
482.28	283
482.498	288
482.717	285
482.935	287
483.153	283
483.372	284
483.59	269
483.808	290
484.027	281
484.245	285
484.463	312
484.681	276
484.9	288
485.118	296
485.336	295
485.554	301
485.772	275
485.99	279
486.209	293
486.427	316
486.645	296
486.863	312
487.081	328
487.299	311
487.517	303
487.735	301
487.953	320
488.171	296
488.389	309
488.607	302
488.825	290
489.043	332
489.261	300
489.479	304
489.696	312
489.914	325
490.132	310
490.35	325
490.568	320
490.786	315
491.003	348
491.221	337
491.439	361
491.657	343
491.874	340
492.092	359
492.31	364
492.527	371
492.745	373
492.963	343
493.18	378
493.398	373
493.615	378
493.833	368
494.05	378
494.268	360
494.485	354
494.703	360
494.92	362
495.138	359
495.355	371
495.573	371
495.79	363
496.008	359
496.225	378
496.442	357
496.66	363
496.877	380
497.094	366
497.312	361
497.529	357
497.746	387
497.963	368
498.181	381
498.398	373
498.615	381
498.832	389
499.049	385
499.267	388
499.484	402
499.701	408
499.918	444
500.135	439
500.352	461
500.569	491
500.786	473
501.003	456
501.22	454
501.437	453
501.654	439
501.871	429
502.088	416
502.305	407
502.522	392
502.739	380
502.956	364
503.172	368
503.389	372
503.606	372
503.823	388
504.04	354
504.256	358
504.473	375
504.69	340
504.907	336
505.123	364
505.34	343
505.557	364
505.773	340
505.99	325
506.207	333
506.423	340
506.64	328
506.856	334
507.073	333
507.289	322
507.506	332
507.722	331
507.939	371
508.155	342
508.372	318
508.588	315
508.805	321
509.021	322
509.238	348
509.454	365
509.67	340
509.887	340
510.103	335
510.319	338
510.536	405
510.752	824
510.968	582
511.184	350
511.401	328
511.617	308
511.833	309
512.049	315
512.265	299
512.481	295
512.698	319
512.914	305
513.13	311
513.346	301
513.562	308
513.778	312
513.994	317
514.21	341
514.426	333
514.642	374
514.858	363
515.074	404
515.29	534
515.506	908
515.721	683
515.937	400
516.153	326
516.369	339
516.585	309
516.801	342
517.016	312
517.232	325
517.448	330
517.664	306
517.879	314
518.095	310
518.311	312
518.527	307
518.742	312
518.958	322
519.173	289
519.389	285
519.605	311
519.82	320
520.036	326
520.251	328
520.467	360
520.682	344
520.898	356
521.113	354
521.329	385
521.544	454
521.76	635
521.975	1235
522.19	1189
522.406	565
522.621	369
522.836	335
523.052	320
523.267	294
523.482	280
523.698	282
523.913	279
524.128	285
524.343	266
524.559	265
524.774	260
524.989	266
525.204	280
525.419	300
525.634	285
525.849	271
526.064	264
526.28	246
526.495	269
526.71	260
526.925	255
527.14	252
527.355	255
527.57	251
527.785	237
527.999	252
528.214	232
528.429	261
528.644	257
528.859	258
529.074	278
529.289	276
529.503	342
529.718	315
529.933	277
530.148	252
530.363	271
530.577	246
530.792	243
531.007	242
531.221	260
531.436	245
531.651	224
531.865	249
532.08	241
532.295	235
532.509	231
532.724	228
532.938	228
533.153	238
533.367	229
533.582	236
533.796	229
534.011	236
534.225	227
534.44	230
534.654	232
534.868	235
535.083	226
535.297	256
535.511	258
535.726	248
535.94	229
536.154	247
536.369	258
536.583	242
536.797	232
537.011	227
537.225	240
537.44	226
537.654	244
537.868	229
538.082	235
538.296	234
538.51	238
538.724	230
538.938	235
539.153	238
539.367	245
539.581	248
539.795	247
540.009	224
540.222	241
540.436	223
540.65	244
540.864	243
541.078	235
541.292	260
541.506	240
541.72	226
541.934	235
542.147	259
542.361	247
542.575	219
542.789	246
543.002	235
543.216	247
543.43	248
543.644	238
543.857	232
544.071	236
544.285	229
544.498	242
544.712	241
544.925	224
545.139	247
545.352	237
545.566	240
545.779	242
545.993	236
546.206	240
546.42	238
546.633	221
546.847	217
547.06	244
547.274	245
547.487	236
547.7	222
547.914	230
548.127	235
548.34	227
548.554	244
548.767	242
548.98	225
549.193	225
549.407	215
549.62	221
549.833	216
550.046	219
550.259	207
550.473	219
550.686	229
550.899	214
551.112	227
551.325	222
551.538	213
551.751	221
551.964	211
552.177	235
552.39	229
552.603	231
552.816	205
553.029	221
553.242	219
553.455	226
553.667	236
553.88	229
554.093	238
554.306	229
554.519	226
554.732	226
554.944	216
555.157	240
555.37	211
555.583	224
555.795	202
556.008	211
556.221	205
556.433	219
556.646	220
556.859	206
557.071	189
557.284	199
557.496	216
557.709	206
557.921	210
558.134	212
558.346	203
558.559	208
558.771	201
558.984	202
559.196	185
559.409	204
559.621	197
559.833	202
560.046	190
560.258	206
560.47	196
560.683	188
560.895	186
561.107	203
561.32	206
561.532	191
561.744	213
561.956	201
562.168	217
562.381	198
562.593	199
562.805	226
563.017	186
563.229	203
563.441	196
563.653	190
563.865	209
564.077	208
564.289	226
564.501	207
564.713	189
564.925	214
565.137	224
565.349	211
565.561	220
565.773	205
565.985	224
566.197	220
566.408	234
566.62	235
566.832	218
567.044	240
567.255	240
567.467	235
567.679	225
567.891	243
568.102	225
568.314	238
568.526	229
568.737	216
568.949	227
569.161	216
569.372	198
569.584	218
569.795	207
570.007	211
570.218	234
570.43	231
570.641	194
570.853	204
571.064	196
571.276	210
571.487	192
571.698	186
571.91	196
572.121	190
572.333	183
572.544	189
572.755	199
572.966	186
573.178	170
573.389	181
573.6	173
573.811	176
574.023	171
574.234	177
574.445	180
574.656	168
574.867	195
575.078	171
575.289	173
575.501	170
575.712	185
575.923	180
576.134	169
576.345	170
576.556	182
576.767	188
576.978	179
577.188	195
577.399	170
577.61	164
577.821	168
578.032	170
578.243	203
578.454	380
578.665	266
578.875	184
579.086	162
579.297	176
579.508	170
579.718	166
579.929	173
580.14	177
580.35	151
580.561	170
580.772	170
580.982	174
581.193	159
581.403	153
581.614	155
581.825	155
582.035	151
582.246	164
582.456	173
582.667	166
582.877	166
583.087	163
583.298	160
583.508	160
583.719	167
583.929	164
584.139	159
584.35	160
584.56	163
584.77	162
584.981	161
585.191	172
585.401	160
585.611	160
585.821	168
586.032	170
586.242	166
586.452	157
586.662	165
586.872	175
587.082	162
587.292	158
587.502	158
587.713	170
587.923	148
588.133	156
588.343	148
588.553	172
588.762	165
588.972	159
589.182	166
589.392	163
589.602	177
589.812	169
590.022	172
590.232	152
590.441	170
590.651	169
590.861	149
591.071	154
591.281	164
591.49	162
591.7	157
591.91	163
592.119	162
592.329	161
592.539	158
592.748	173
592.958	158
593.167	169
593.377	168
593.587	169
593.796	179
594.006	157
594.215	153
594.424	159
594.634	158
594.843	160
595.053	168
595.262	170
595.472	161
595.681	173
595.89	153
596.1	159
596.309	170
596.518	143
596.727	149
596.937	158
597.146	157
597.355	155
597.564	158
597.774	162
597.983	158
598.192	154
598.401	143
598.61	149
598.819	148
599.028	151
599.237	148
599.446	137
599.655	154
599.864	150
600.073	147
600.282	147
600.491	157
600.7	150
600.909	146
601.118	153
601.327	152
601.536	151
601.745	142
601.953	144
602.162	138
602.371	146
602.58	151
602.789	144
602.997	161
603.206	164
603.415	168
603.623	140
603.832	158
604.041	153
604.249	137
604.458	129
604.666	140
604.875	138
605.084	148
605.292	143
605.501	149
605.709	152
605.918	157
606.126	146
606.334	145
606.543	144
606.751	127
606.96	142
607.168	159
607.376	156
607.585	153
607.793	139
608.001	145
608.21	150
608.418	136
608.626	137
608.834	149
609.043	146
609.251	141
609.459	149
609.667	153
609.875	143
610.083	128
610.291	145
610.499	125
610.707	136
610.916	142
611.124	135
611.332	143
611.54	152
611.748	126
611.955	150
612.163	131
612.371	141
612.579	137
612.787	138
612.995	156
613.203	148
613.411	124
613.618	141
613.826	141
614.034	129
614.242	154
614.449	143
614.657	141
614.865	147
615.072	147
615.28	136
615.488	146
615.695	124
615.903	141
616.111	147
616.318	152
616.526	151
616.733	152
616.941	134
617.148	138
617.356	137
617.563	142
617.771	133
617.978	148
618.185	146
618.393	157
618.6	135
618.807	139
619.015	165
619.222	134
619.429	146
619.637	135
619.844	137
620.051	143
620.258	144
620.466	134
620.673	129
620.88	130
621.087	133
621.294	125
621.501	138
621.708	123
621.915	138
622.122	143
622.329	128
622.536	134
622.743	128
622.95	134
623.157	126
623.364	137
623.571	141
623.778	142
623.985	126
624.192	129
624.399	126
624.606	125
624.812	127
625.019	133
625.226	128
625.433	133
625.639	119
625.846	120
626.053	130
626.259	130
626.466	125
626.673	134
626.879	131
627.086	130
627.293	127
627.499	126
627.706	129
627.912	137
628.119	118
628.325	128
628.532	117
628.738	124
628.945	127
629.151	127
629.357	126
629.564	150
629.77	139
629.976	136
630.183	117
630.389	134
630.595	123
630.802	135
631.008	123
631.214	127
631.42	125
631.627	126
631.833	121
632.039	122
632.245	122
632.451	128
632.657	128
632.863	127
633.069	104
633.275	129
633.481	123
633.688	110
633.893	122
634.099	135
634.305	130
634.511	131
634.717	122
634.923	105
635.129	118
635.335	108
635.541	101
635.747	132
635.952	115
636.158	126
636.364	116
636.57	106
636.775	125
636.981	114
637.187	117
637.392	122
637.598	115
637.804	118
638.009	137
638.215	116
638.421	110
638.626	111
638.832	118
639.037	116
639.243	118
639.448	124
639.654	117
639.859	123
640.065	123
640.27	117
640.475	110
640.681	108
640.886	109
641.091	109
641.297	101
641.502	126
641.707	130
641.913	138
642.118	129
642.323	106
642.528	115
642.733	108
642.939	124
643.144	116
643.349	110
643.554	109
643.759	129
643.964	118
644.169	124
644.374	131
644.579	123
644.784	107
644.989	124
645.194	103
645.399	116
645.604	112
645.809	115
646.014	106
646.219	98
646.423	113
646.628	110
646.833	116
647.038	124
647.243	107
647.447	128
647.652	113
647.857	124
648.062	120
648.266	115
648.471	119
648.676	123
648.88	119
649.085	115
649.289	131
649.494	117
649.698	131
649.903	126
650.107	116
650.312	117
650.516	115
650.721	118
650.925	103
651.13	98
651.334	119
651.539	116
651.743	103
651.947	123
652.152	108
652.356	98
652.56	112
652.764	92
652.969	106
653.173	119
653.377	124
653.581	114
653.785	116
653.99	109
654.194	102
654.398	88
654.602	102
654.806	118
655.01	111
655.214	100
655.418	91
655.622	109
655.826	115
656.03	114
656.234	115
656.438	127
656.642	111
656.846	127
657.049	96
657.253	101
657.457	100
657.661	104
657.865	102
658.068	98
658.272	90
658.476	92
658.68	76
658.883	98
659.087	102
659.291	98
659.494	89
659.698	85
659.901	81
660.105	88
660.309	78
660.512	92
660.716	83
660.919	73
661.123	85
661.326	78
661.53	95
661.733	84
661.936	94
662.14	85
662.343	80
662.546	85
662.75	73
662.953	87
663.156	86
663.36	90
663.563	86
663.766	65
663.969	79
664.173	80
664.376	81
664.579	76
664.782	78
664.985	86
665.188	70
665.391	84
665.594	77
665.797	76
666	81
666.203	85
666.406	76
666.609	82
666.812	92
667.015	65
667.218	89
667.421	88
667.624	86
667.827	82
668.03	78
668.232	90
668.435	88
668.638	83
668.841	93
669.043	75
669.246	88
669.449	80
669.651	81
669.854	74
670.057	91
670.259	70
670.462	71
670.665	68
670.867	87
671.07	69
671.272	90
671.475	77
671.677	84
671.88	91
672.082	88
672.284	86
672.487	82
672.689	78
672.892	81
