Data from 1966.PennyLincolnUp.Lamp.En5.5.200Scan.071719.P1._HRD10591_14-13-09-914.txt Node
Date: Thu Jul 18 14:13:09 EDT 2019
User: cochatt
Spectrometer: HR+D1059
Trigger mode: 1
Integration Time (sec): 1.000000E-1
Scans to average: 1
Electric dark correction enabled: true
Nonlinearity correction enabled: false
Boxcar width: 0
XAxis mode: Wavelengths
Number of Pixels in Spectrum: 2048
>>>>>Begin Spectral Data<<<<<
223.165	-5
223.4	-5
223.635	-5
223.869	-19
224.104	-24
224.338	-19
224.573	-19
224.808	-4
225.042	-17
225.277	5
225.511	1
225.746	9
225.98	6
226.215	9
226.449	14
226.683	18
226.918	19
227.152	26
227.387	44
227.621	39
227.856	53
228.09	43
228.324	41
228.559	48
228.793	44
229.027	74
229.262	80
229.496	91
229.73	81
229.964	99
230.199	93
230.433	84
230.667	91
230.901	91
231.136	73
231.37	94
231.604	93
231.838	89
232.072	90
232.306	90
232.541	92
232.775	84
233.009	92
233.243	100
233.477	84
233.711	92
233.945	82
234.179	88
234.413	77
234.647	86
234.881	92
235.115	86
235.349	107
235.583	91
235.817	81
236.051	96
236.285	99
236.519	88
236.753	98
236.987	128
237.221	115
237.455	144
237.689	118
237.922	94
238.156	103
238.39	106
238.624	67
238.858	88
239.091	102
239.325	94
239.559	92
239.793	103
240.027	88
240.26	107
240.494	101
240.728	107
240.961	104
241.195	94
241.429	98
241.662	99
241.896	88
242.13	82
242.363	82
242.597	91
242.83	108
243.064	93
243.298	90
243.531	101
243.765	91
243.998	104
244.232	105
244.465	92
244.699	87
244.932	91
245.166	100
245.399	121
245.633	117
245.866	108
246.099	102
246.333	92
246.566	97
246.8	101
247.033	105
247.266	105
247.5	101
247.733	105
247.966	107
248.2	133
248.433	119
248.666	112
248.899	115
249.133	129
249.366	116
249.599	129
249.832	111
250.066	126
250.299	132
250.532	104
250.765	126
250.998	128
251.231	136
251.465	136
251.698	133
251.931	127
252.164	121
252.397	134
252.63	109
252.863	125
253.096	130
253.329	128
253.562	131
253.795	137
254.028	133
254.261	128
254.494	127
254.727	153
254.96	152
255.193	149
255.426	131
255.659	122
255.892	142
256.124	134
256.357	140
256.59	137
256.823	122
257.056	136
257.289	117
257.521	130
257.754	136
257.987	110
258.22	126
258.452	150
258.685	122
258.918	127
259.151	132
259.383	144
259.616	127
259.849	141
260.081	142
260.314	154
260.547	158
260.779	143
261.012	147
261.244	138
261.477	152
261.71	130
261.942	116
262.175	132
262.407	126
262.64	129
262.872	125
263.105	136
263.337	123
263.57	131
263.802	132
264.035	125
264.267	116
264.499	132
264.732	132
264.964	131
265.197	134
265.429	116
265.661	121
265.894	123
266.126	140
266.358	129
266.591	125
266.823	144
267.055	116
267.287	143
267.52	141
267.752	144
267.984	143
268.216	145
268.448	150
268.681	130
268.913	157
269.145	165
269.377	153
269.609	164
269.841	168
270.073	158
270.306	155
270.538	165
270.77	175
271.002	171
271.234	156
271.466	185
271.698	161
271.93	173
272.162	177
272.394	156
272.626	163
272.858	164
273.09	163
273.322	149
273.553	145
273.785	143
274.017	155
274.249	162
274.481	135
274.713	152
274.945	158
275.176	160
275.408	163
275.64	145
275.872	148
276.104	138
276.335	142
276.567	161
276.799	172
277.031	190
277.262	172
277.494	169
277.726	176
277.957	161
278.189	148
278.421	149
278.652	174
278.884	165
279.115	148
279.347	162
279.579	159
279.81	157
280.042	139
280.273	162
280.505	154
280.736	151
280.968	148
281.199	142
281.431	152
281.662	160
281.894	136
282.125	157
282.356	174
282.588	189
282.819	184
283.051	166
283.282	160
283.513	153
283.745	157
283.976	166
284.207	156
284.439	173
284.67	171
284.901	153
285.132	154
285.364	141
285.595	163
285.826	168
286.057	161
286.288	156
286.52	156
286.751	171
286.982	163
287.213	159
287.444	145
287.675	152
287.906	156
288.138	171
288.369	172
288.6	178
288.831	170
289.062	187
289.293	171
289.524	156
289.755	168
289.986	167
290.217	158
290.448	173
290.679	148
290.91	182
291.141	178
291.371	165
291.602	171
291.833	165
292.064	162
292.295	165
292.526	164
292.757	165
292.987	159
293.218	155
293.449	157
293.68	160
293.91	158
294.141	158
294.372	167
294.603	166
294.833	184
295.064	187
295.295	163
295.525	157
295.756	161
295.987	177
296.217	196
296.448	189
296.679	166
296.909	168
297.14	174
297.37	171
297.601	179
297.831	164
298.062	168
298.292	158
298.523	181
298.753	169
298.984	155
299.214	161
299.445	185
299.675	166
299.905	175
300.136	173
300.366	187
300.597	176
300.827	184
301.057	173
301.288	166
301.518	189
301.748	178
301.979	176
302.209	171
302.439	186
302.669	180
302.9	180
303.13	168
303.36	192
303.59	188
303.82	188
304.051	176
304.281	178
304.511	189
304.741	187
304.971	160
305.201	198
305.431	187
305.661	183
305.891	173
306.121	173
306.352	184
306.582	185
306.812	169
307.042	171
307.272	179
307.502	188
307.731	163
307.961	184
308.191	180
308.421	186
308.651	180
308.881	173
309.111	187
309.341	183
309.571	181
309.8	192
310.03	172
310.26	204
310.49	196
310.72	213
310.949	193
311.179	206
311.409	201
311.639	194
311.868	192
312.098	199
312.328	199
312.557	212
312.787	232
313.017	213
313.246	221
313.476	207
313.706	201
313.935	186
314.165	216
314.394	209
314.624	210
314.853	205
315.083	205
315.312	209
315.542	193
315.771	192
316.001	196
316.23	189
316.46	196
316.689	182
316.919	208
317.148	203
317.377	221
317.607	204
317.836	206
318.065	199
318.295	208
318.524	203
318.753	209
318.983	199
319.212	216
319.441	213
319.67	230
319.9	201
320.129	190
320.358	210
320.587	186
320.816	202
321.046	212
321.275	220
321.504	188
321.733	200
321.962	208
322.191	208
322.42	219
322.649	209
322.878	220
323.108	217
323.337	235
323.566	236
323.795	250
324.024	291
324.253	338
324.482	490
324.71	718
324.939	966
325.168	776
325.397	421
325.626	298
325.855	252
326.084	229
326.313	229
326.542	273
326.77	280
326.999	315
327.228	435
327.457	642
327.686	711
327.914	460
328.143	354
328.372	306
328.6	311
328.829	294
329.058	310
329.287	306
329.515	276
329.744	262
329.972	247
330.201	262
330.43	308
330.658	316
330.887	342
331.115	323
331.344	252
331.572	272
331.801	262
332.03	264
332.258	235
332.486	252
332.715	240
332.943	243
333.172	249
333.4	237
333.629	241
333.857	252
334.085	260
334.314	268
334.542	268
334.771	284
334.999	260
335.227	248
335.455	229
335.684	229
335.912	225
336.14	222
336.369	219
336.597	226
336.825	234
337.053	222
337.281	230
337.51	226
337.738	229
337.966	257
338.194	238
338.422	235
338.65	243
338.878	237
339.106	234
339.334	229
339.562	228
339.79	221
340.018	198
340.246	219
340.474	244
340.702	239
340.93	220
341.158	217
341.386	229
341.614	206
341.842	227
342.07	213
342.298	223
342.526	218
342.754	215
342.981	210
343.209	204
343.437	208
343.665	210
343.893	217
344.12	224
344.348	222
344.576	217
344.804	221
345.031	228
345.259	223
345.487	217
345.714	211
345.942	212
346.17	214
346.397	222
346.625	219
346.853	212
347.08	211
347.308	201
347.535	223
347.763	226
347.99	227
348.218	219
348.445	210
348.673	220
348.9	232
349.128	201
349.355	224
349.583	205
349.81	210
350.037	216
350.265	208
350.492	220
350.72	229
350.947	212
351.174	210
351.402	221
351.629	206
351.856	204
352.083	215
352.311	231
352.538	202
352.765	235
352.992	212
353.22	210
353.447	198
353.674	232
353.901	200
354.128	199
354.355	205
354.583	202
354.81	197
355.037	219
355.264	209
355.491	192
355.718	181
355.945	202
356.172	190
356.399	197
356.626	206
356.853	188
357.08	194
357.307	202
357.534	198
357.761	197
357.988	198
358.215	197
358.441	203
358.668	216
358.895	195
359.122	192
359.349	222
359.576	212
359.802	212
360.029	236
360.256	254
360.483	242
360.709	213
360.936	221
361.163	220
361.39	210
361.616	208
361.843	208
362.07	237
362.296	209
362.523	220
362.749	211
362.976	202
363.203	204
363.429	196
363.656	213
363.882	217
364.109	198
364.335	204
364.562	201
364.788	209
365.015	221
365.241	187
365.468	211
365.694	214
365.92	205
366.147	204
366.373	206
366.599	212
366.826	201
367.052	216
367.278	197
367.505	199
367.731	212
367.957	198
368.184	205
368.41	198
368.636	218
368.862	218
369.089	207
369.315	201
369.541	213
369.767	198
369.993	211
370.219	199
370.445	204
370.672	219
370.898	209
371.124	188
371.35	212
371.576	196
371.802	190
372.028	192
372.254	185
372.48	201
372.706	205
372.932	216
373.158	201
373.384	201
373.61	202
373.835	188
374.061	189
374.287	209
374.513	210
374.739	206
374.965	188
375.191	207
375.416	203
375.642	209
375.868	211
376.094	195
376.319	197
376.545	195
376.771	212
376.997	209
377.222	210
377.448	204
377.674	205
377.899	184
378.125	189
378.35	198
378.576	176
378.802	213
379.027	193
379.253	202
379.478	211
379.704	202
379.929	198
380.155	206
380.38	201
380.606	196
380.831	197
381.057	200
381.282	204
381.507	195
381.733	209
381.958	200
382.184	204
382.409	199
382.634	215
382.86	211
383.085	200
383.31	212
383.535	208
383.761	202
383.986	216
384.211	201
384.436	197
384.662	211
384.887	214
385.112	213
385.337	213
385.562	213
385.787	217
386.013	219
386.238	215
386.463	208
386.688	208
386.913	213
387.138	203
387.363	226
387.588	203
387.813	212
388.038	221
388.263	226
388.488	210
388.713	215
388.938	227
389.163	205
389.387	217
389.612	226
389.837	208
390.062	229
390.287	219
390.512	209
390.736	212
390.961	223
391.186	209
391.411	206
391.636	218
391.86	222
392.085	231
392.31	235
392.534	219
392.759	224
392.984	233
393.208	197
393.433	221
393.658	226
393.882	207
394.107	213
394.331	210
394.556	221
394.78	215
395.005	215
395.229	233
395.454	219
395.678	220
395.903	222
396.127	229
396.352	228
396.576	223
396.801	223
397.025	228
397.249	226
397.474	229
397.698	230
397.922	235
398.147	231
398.371	244
398.595	232
398.82	241
399.044	240
399.268	263
399.492	264
399.717	292
399.941	279
400.165	299
400.389	299
400.613	281
400.837	264
401.062	268
401.286	256
401.51	258
401.734	256
401.958	249
402.182	231
402.406	260
402.63	250
402.854	252
403.078	258
403.302	249
403.526	256
403.75	280
403.974	243
404.198	256
404.422	261
404.645	265
404.869	286
405.093	276
405.317	306
405.541	291
405.765	260
405.988	270
406.212	261
406.436	298
406.66	296
406.883	291
407.107	289
407.331	296
407.555	308
407.778	325
408.002	299
408.226	282
408.449	283
408.673	266
408.896	274
409.12	292
409.344	302
409.567	272
409.791	259
410.014	248
410.238	244
410.461	267
410.685	260
410.908	285
411.132	287
411.355	290
411.578	267
411.802	268
412.025	253
412.249	258
412.472	275
412.695	294
412.919	272
413.142	266
413.365	253
413.589	247
413.812	233
414.035	249
414.258	240
414.482	252
414.705	248
414.928	247
415.151	238
415.374	237
415.597	249
415.821	230
416.044	252
416.267	242
416.49	234
416.713	264
416.936	246
417.159	252
417.382	246
417.605	252
417.828	247
418.051	255
418.274	249
418.497	254
418.72	245
418.943	242
419.166	261
419.389	254
419.611	265
419.834	244
420.057	264
420.28	267
420.503	262
420.726	251
420.948	252
421.171	285
421.394	285
421.617	263
421.839	240
422.062	239
422.285	249
422.507	286
422.73	312
422.953	312
423.175	260
423.398	254
423.621	254
423.843	273
424.066	255
424.288	263
424.511	260
424.733	300
424.956	330
425.178	311
425.401	323
425.623	324
425.846	285
426.068	262
426.291	276
426.513	259
426.735	268
426.958	272
427.18	330
427.402	359
427.625	413
427.847	359
428.069	316
428.292	282
428.514	242
428.736	249
428.958	252
429.181	267
429.403	245
429.625	254
429.847	289
430.069	302
430.292	291
430.514	242
430.736	250
430.958	249
431.18	232
431.402	235
431.624	240
431.846	243
432.068	232
432.29	245
432.512	225
432.734	254
432.956	232
433.178	260
433.4	260
433.622	251
433.844	250
434.066	246
434.287	245
434.509	251
434.731	237
434.953	240
435.175	246
435.397	273
435.618	268
435.84	296
436.062	316
436.284	336
436.505	292
436.727	275
436.949	242
437.17	232
437.392	223
437.614	244
437.835	264
438.057	318
438.278	350
438.5	344
438.721	366
438.943	344
439.165	286
439.386	253
439.608	257
439.829	290
440.05	276
440.272	326
440.493	280
440.715	262
440.936	262
441.158	259
441.379	245
441.6	255
441.822	268
442.043	282
442.264	334
442.486	332
442.707	289
442.928	273
443.149	271
443.371	291
443.592	329
443.813	361
444.034	358
444.255	296
444.476	281
444.698	269
444.919	260
445.14	373
445.361	314
445.582	292
445.803	309
446.024	359
446.245	348
446.466	342
446.687	285
446.908	267
447.129	248
447.35	236
447.571	258
447.792	252
448.013	262
448.234	266
448.455	268
448.675	313
448.896	364
449.117	299
449.338	307
449.559	364
449.779	382
450	306
450.221	270
450.442	250
450.662	234
450.883	254
451.104	249
451.324	265
451.545	254
451.766	244
451.986	225
452.207	233
452.428	232
452.648	227
452.869	230
453.089	238
453.31	245
453.53	241
453.751	217
453.971	244
454.192	251
454.412	245
454.633	230
454.853	224
455.073	237
455.294	245
455.514	280
455.734	258
455.955	240
456.175	209
456.395	214
456.616	206
456.836	218
457.056	223
457.276	221
457.497	208
457.717	221
457.937	221
458.157	216
458.377	232
458.598	239
458.818	282
459.038	330
459.258	308
459.478	272
459.698	244
459.918	247
460.138	225
460.358	241
460.578	258
460.798	245
461.018	247
461.238	240
461.458	248
461.678	237
461.898	240
462.118	240
462.338	254
462.558	248
462.777	251
462.997	259
463.217	253
463.437	249
463.657	268
463.876	252
464.096	274
464.316	262
464.536	248
464.755	274
464.975	262
465.195	304
465.414	344
465.634	268
465.854	230
466.073	237
466.293	249
466.512	253
466.732	229
466.951	231
467.171	231
467.391	238
467.61	252
467.829	235
468.049	236
468.268	243
468.488	211
468.707	241
468.927	229
469.146	234
469.365	241
469.585	222
469.804	247
470.023	246
470.243	229
470.462	255
470.681	261
470.901	236
471.12	229
471.339	229
471.558	253
471.777	229
471.997	240
472.216	252
472.435	289
472.654	263
472.873	236
473.092	233
473.311	242
473.53	230
473.749	227
473.968	248
474.187	312
474.406	324
474.625	246
474.844	237
475.063	227
475.282	229
475.501	261
475.72	243
475.939	236
476.158	234
476.377	236
476.596	240
476.814	246
477.033	261
477.252	240
477.471	245
477.69	256
477.908	269
478.127	267
478.346	247
478.564	256
478.783	240
479.002	262
479.22	269
479.439	280
479.658	292
479.876	278
480.095	283
480.313	296
480.532	296
480.751	280
480.969	298
481.188	336
481.406	326
481.624	302
481.843	264
482.061	285
482.28	275
482.498	276
482.717	278
482.935	275
483.153	289
483.372	251
483.59	274
483.808	262
484.027	267
484.245	257
484.463	276
484.681	295
484.9	294
485.118	268
485.336	296
485.554	273
485.772	281
485.99	265
486.209	286
486.427	280
486.645	293
486.863	307
487.081	289
487.299	294
487.517	294
487.735	302
487.953	291
488.171	283
488.389	294
488.607	285
488.825	299
489.043	291
489.261	283
489.479	285
489.696	275
489.914	284
490.132	282
490.35	309
490.568	319
490.786	327
491.003	330
491.221	333
491.439	348
491.657	346
491.874	347
492.092	318
492.31	355
492.527	350
492.745	346
492.963	350
493.18	333
493.398	345
493.615	336
493.833	357
494.05	340
494.268	348
494.485	333
494.703	332
494.92	348
495.138	334
495.355	335
495.573	354
495.79	346
496.008	341
496.225	305
496.442	328
496.66	345
496.877	346
497.094	353
497.312	351
497.529	364
497.746	347
497.963	340
498.181	366
498.398	350
498.615	363
498.832	374
499.049	385
499.267	375
499.484	395
499.701	399
499.918	406
500.135	436
500.352	468
500.569	456
500.786	458
501.003	442
501.22	457
501.437	422
501.654	424
501.871	409
502.088	400
502.305	386
502.522	372
502.739	346
502.956	374
503.172	349
503.389	349
503.606	333
503.823	349
504.04	342
504.256	339
504.473	325
504.69	312
504.907	339
505.123	324
505.34	336
505.557	328
505.773	331
505.99	330
506.207	314
506.423	315
506.64	318
506.856	321
507.073	317
507.289	319
507.506	316
507.722	332
507.939	333
508.155	328
508.372	300
508.588	282
508.805	309
509.021	314
509.238	324
509.454	321
509.67	316
509.887	310
510.103	289
510.319	336
510.536	392
510.752	706
510.968	540
511.184	318
511.401	290
511.617	285
511.833	297
512.049	285
512.265	269
512.481	298
512.698	288
512.914	291
513.13	305
513.346	276
513.562	285
513.778	286
513.994	290
514.21	292
514.426	304
514.642	328
514.858	327
515.074	374
515.29	468
515.506	781
515.721	598
515.937	388
516.153	324
516.369	314
516.585	308
516.801	286
517.016	286
517.232	301
517.448	292
517.664	307
517.879	292
518.095	309
518.311	288
518.527	298
518.742	291
518.958	294
519.173	275
519.389	304
519.605	290
519.82	289
520.036	281
520.251	305
520.467	306
520.682	318
520.898	321
521.113	324
521.329	368
521.544	418
521.76	564
521.975	1030
522.19	989
522.406	508
522.621	350
522.836	318
523.052	268
523.267	266
523.482	270
523.698	256
523.913	264
524.128	276
524.343	256
524.559	258
524.774	266
524.989	250
525.204	259
525.419	259
525.634	240
525.849	251
526.064	240
526.28	232
526.495	240
526.71	232
526.925	247
527.14	230
527.355	249
527.57	243
527.785	245
527.999	224
528.214	219
528.429	225
528.644	235
528.859	246
529.074	251
529.289	265
529.503	321
529.718	301
529.933	276
530.148	237
530.363	227
530.577	208
530.792	233
531.007	240
531.221	240
531.436	225
531.651	248
531.865	229
532.08	226
532.295	225
532.509	245
532.724	246
532.938	219
533.153	223
533.367	231
533.582	223
533.796	221
534.011	232
534.225	219
534.44	212
534.654	233
534.868	240
535.083	240
535.297	211
535.511	227
535.726	239
535.94	230
536.154	235
536.369	230
536.583	228
536.797	221
537.011	229
537.225	219
537.44	226
537.654	211
537.868	232
538.082	229
538.296	211
538.51	218
538.724	230
538.938	225
539.153	219
539.367	238
539.581	220
539.795	225
540.009	216
540.222	220
540.436	209
540.65	230
540.864	236
541.078	228
541.292	227
541.506	226
541.72	210
541.934	232
542.147	225
542.361	223
542.575	241
542.789	228
543.002	220
543.216	239
543.43	228
543.644	207
543.857	220
544.071	220
544.285	219
544.498	221
544.712	223
544.925	232
545.139	216
545.352	217
545.566	206
545.779	223
545.993	214
546.206	226
546.42	229
546.633	231
546.847	222
547.06	217
547.274	220
547.487	206
547.7	218
547.914	225
548.127	213
548.34	221
548.554	207
548.767	230
548.98	208
549.193	223
549.407	209
549.62	204
549.833	226
550.046	220
550.259	211
550.473	214
550.686	224
550.899	232
551.112	214
551.325	210
551.538	204
551.751	227
551.964	237
552.177	206
552.39	216
552.603	213
552.816	204
553.029	217
553.242	218
553.455	221
553.667	244
553.88	237
554.093	218
554.306	233
554.519	229
554.732	205
554.944	206
555.157	206
555.37	225
555.583	205
555.795	194
556.008	221
556.221	197
556.433	212
556.646	223
556.859	202
557.071	202
557.284	206
557.496	196
557.709	197
557.921	192
558.134	203
558.346	182
558.559	184
558.771	198
558.984	192
559.196	206
559.409	193
559.621	197
559.833	204
560.046	178
560.258	199
560.47	207
560.683	183
560.895	186
561.107	186
561.32	188
561.532	207
561.744	208
561.956	201
562.168	204
562.381	182
562.593	197
562.805	202
563.017	201
563.229	209
563.441	188
563.653	201
563.865	213
564.077	196
564.289	198
564.501	203
564.713	196
564.925	198
565.137	205
565.349	200
565.561	214
565.773	212
565.985	207
566.197	221
566.408	225
566.62	241
566.832	211
567.044	227
567.255	224
567.467	225
567.679	235
567.891	229
568.102	235
568.314	227
568.526	228
568.737	228
568.949	206
569.161	224
569.372	213
569.584	188
569.795	195
570.007	202
570.218	232
570.43	213
570.641	186
570.853	193
571.064	186
571.276	207
571.487	181
571.698	188
571.91	185
572.121	187
572.333	202
572.544	196
572.755	182
572.966	168
573.178	178
573.389	190
573.6	189
573.811	178
574.023	164
574.234	172
574.445	181
574.656	168
574.867	169
575.078	168
575.289	173
575.501	172
575.712	182
575.923	180
576.134	171
576.345	174
576.556	172
576.767	169
576.978	168
577.188	178
577.399	182
577.61	178
577.821	173
578.032	176
578.243	210
578.454	364
578.665	247
578.875	172
579.086	168
579.297	184
579.508	149
579.718	167
579.929	167
580.14	160
580.35	155
580.561	166
580.772	164
580.982	141
581.193	160
581.403	169
581.614	185
581.825	157
582.035	157
582.246	184
582.456	156
582.667	172
582.877	155
583.087	148
583.298	151
583.508	156
583.719	173
583.929	163
584.139	162
584.35	172
584.56	159
584.77	154
584.981	165
585.191	158
585.401	163
585.611	156
585.821	155
586.032	165
586.242	166
586.452	157
586.662	160
586.872	134
587.082	159
587.292	155
587.502	158
587.713	157
587.923	152
588.133	165
588.343	154
588.553	153
588.762	168
588.972	158
589.182	188
589.392	189
589.602	149
589.812	179
590.022	161
590.232	149
590.441	149
590.651	157
590.861	148
591.071	143
591.281	166
591.49	153
591.7	157
591.91	181
592.119	153
592.329	144
592.539	179
592.748	169
592.958	164
593.167	152
593.377	170
593.587	164
593.796	179
594.006	173
594.215	154
594.424	169
594.634	145
594.843	164
595.053	158
595.262	149
595.472	174
595.681	157
595.89	158
596.1	138
596.309	152
596.518	145
596.727	142
596.937	149
597.146	141
597.355	150
597.564	128
597.774	160
597.983	160
598.192	139
598.401	139
598.61	137
598.819	140
599.028	155
599.237	146
599.446	148
599.655	138
599.864	150
600.073	140
600.282	133
600.491	142
600.7	148
600.909	135
601.118	149
601.327	134
601.536	144
601.745	139
601.953	157
602.162	140
602.371	156
602.58	150
602.789	146
602.997	148
603.206	149
603.415	137
603.623	146
603.832	148
604.041	149
604.249	152
604.458	134
604.666	134
604.875	135
605.084	126
605.292	137
605.501	138
605.709	132
605.918	136
606.126	136
606.334	133
606.543	141
606.751	150
606.96	151
607.168	143
607.376	149
607.585	142
607.793	138
608.001	141
608.21	136
608.418	146
608.626	135
608.834	149
609.043	130
609.251	147
609.459	131
609.667	143
609.875	135
610.083	125
610.291	132
610.499	132
610.707	145
610.916	140
611.124	135
611.332	155
611.54	145
611.748	140
611.955	136
612.163	149
612.371	149
612.579	148
612.787	137
612.995	141
613.203	145
613.411	126
613.618	134
613.826	140
614.034	146
614.242	155
614.449	126
614.657	138
614.865	128
615.072	136
615.28	140
615.488	142
615.695	154
615.903	148
616.111	149
616.318	148
616.526	134
616.733	134
616.941	136
617.148	134
617.356	133
617.563	130
617.771	136
617.978	121
618.185	128
618.393	126
618.6	121
618.807	144
619.015	146
619.222	132
619.429	125
619.637	124
619.844	154
620.051	143
620.258	124
620.466	134
620.673	134
620.88	139
621.087	136
621.294	129
621.501	121
621.708	141
621.915	137
622.122	128
622.329	124
622.536	146
622.743	137
622.95	131
623.157	135
623.364	124
623.571	127
623.778	133
623.985	120
624.192	146
624.399	133
624.606	140
624.812	127
625.019	124
625.226	126
625.433	138
625.639	123
625.846	115
626.053	126
626.259	124
626.466	130
626.673	128
626.879	136
627.086	128
627.293	117
627.499	130
627.706	128
627.912	128
628.119	133
628.325	137
628.532	127
628.738	117
628.945	128
629.151	116
629.357	120
629.564	122
629.77	124
629.976	137
630.183	132
630.389	123
630.595	135
630.802	130
631.008	113
631.214	114
631.42	126
631.627	139
631.833	130
632.039	116
632.245	117
632.451	130
632.657	115
632.863	120
633.069	123
633.275	121
633.481	105
633.688	114
633.893	124
634.099	128
634.305	120
634.511	123
634.717	119
634.923	116
635.129	116
635.335	123
635.541	129
635.747	102
635.952	123
636.158	124
636.364	129
636.57	128
636.775	120
636.981	112
637.187	124
637.392	120
637.598	107
637.804	116
638.009	124
638.215	127
638.421	112
638.626	128
638.832	129
639.037	131
639.243	114
639.448	123
639.654	112
639.859	101
640.065	132
640.27	113
640.475	118
640.681	118
640.886	125
641.091	110
641.297	131
641.502	100
641.707	121
641.913	118
642.118	106
642.323	109
642.528	126
642.733	106
642.939	123
643.144	114
643.349	121
643.554	125
643.759	105
643.964	103
644.169	112
644.374	114
644.579	119
644.784	110
644.989	115
645.194	115
645.399	118
645.604	98
645.809	98
646.014	114
646.219	124
646.423	109
646.628	106
646.833	122
647.038	118
647.243	119
647.447	117
647.652	124
647.857	113
648.062	125
648.266	130
648.471	110
648.676	116
648.88	125
649.085	114
649.289	123
649.494	112
649.698	114
649.903	117
650.107	108
650.312	114
650.516	109
650.721	110
650.925	112
651.13	123
651.334	108
651.539	124
651.743	96
651.947	114
652.152	109
652.356	105
652.56	117
652.764	90
652.969	100
653.173	99
653.377	97
653.581	113
653.785	112
653.99	114
654.194	100
654.398	110
654.602	120
654.806	90
655.01	97
655.214	124
655.418	98
655.622	106
655.826	115
656.03	116
656.234	104
656.438	123
656.642	108
656.846	104
657.049	117
657.253	113
657.457	98
657.661	99
657.865	81
658.068	97
658.272	81
658.476	83
658.68	89
658.883	86
659.087	79
659.291	97
659.494	88
659.698	96
659.901	93
660.105	83
660.309	83
660.512	91
660.716	80
660.919	76
661.123	79
661.326	80
661.53	76
661.733	81
661.936	92
662.14	84
662.343	101
662.546	79
662.75	76
662.953	87
663.156	84
663.36	90
663.563	77
663.766	84
663.969	79
664.173	84
664.376	82
664.579	75
664.782	88
664.985	71
665.188	85
665.391	85
665.594	102
665.797	90
666	77
666.203	84
666.406	86
666.609	75
666.812	82
667.015	80
667.218	91
667.421	73
667.624	72
667.827	95
668.03	78
668.232	82
668.435	76
668.638	85
668.841	73
669.043	89
669.246	91
669.449	70
669.651	79
669.854	83
670.057	81
670.259	76
670.462	82
670.665	82
670.867	90
671.07	79
671.272	87
671.475	93
671.677	90
671.88	71
672.082	77
672.284	86
672.487	88
672.689	64
672.892	91
