Data from 1968.PennyLincolnUp.Lamp.En5.5.200Scan.071719.P1._HRD10591_14-49-43-969.txt Node
Date: Thu Jul 18 14:49:43 EDT 2019
User: cochatt
Spectrometer: HR+D1059
Trigger mode: 1
Integration Time (sec): 1.000000E-1
Scans to average: 1
Electric dark correction enabled: true
Nonlinearity correction enabled: false
Boxcar width: 0
XAxis mode: Wavelengths
Number of Pixels in Spectrum: 2048
>>>>>Begin Spectral Data<<<<<
223.165	-23.69
223.4	-23.69
223.635	-23.69
223.869	-31.69
224.104	-16.69
224.338	-4.69
224.573	-18.69
224.808	-6.69
225.042	-12.69
225.277	-21.69
225.511	1.31
225.746	11.31
225.98	19.31
226.215	8.31
226.449	29.31
226.683	11.31
226.918	24.31
227.152	31.31
227.387	37.31
227.621	29.31
227.856	38.31
228.09	38.31
228.324	40.31
228.559	61.31
228.793	67.31
229.027	66.31
229.262	67.31
229.496	52.31
229.73	81.31
229.964	67.31
230.199	88.31
230.433	74.31
230.667	70.31
230.901	74.31
231.136	60.31
231.37	73.31
231.604	73.31
231.838	89.31
232.072	84.31
232.306	85.31
232.541	80.31
232.775	79.31
233.009	97.31
233.243	82.31
233.477	77.31
233.711	81.31
233.945	90.31
234.179	71.31
234.413	85.31
234.647	76.31
234.881	86.31
235.115	83.31
235.349	65.31
235.583	88.31
235.817	77.31
236.051	74.31
236.285	73.31
236.519	76.31
236.753	75.31
236.987	79.31
237.221	87.31
237.455	72.31
237.689	104.31
237.922	92.31
238.156	75.31
238.39	82.31
238.624	67.31
238.858	80.31
239.091	78.31
239.325	69.31
239.559	90.31
239.793	91.31
240.027	77.31
240.26	88.31
240.494	76.31
240.728	81.31
240.961	75.31
241.195	81.31
241.429	89.31
241.662	87.31
241.896	76.31
242.13	67.31
242.363	83.31
242.597	58.31
242.83	83.31
243.064	70.31
243.298	80.31
243.531	72.31
243.765	83.31
243.998	74.31
244.232	82.31
244.465	71.31
244.699	85.31
244.932	77.31
245.166	87.31
245.399	66.31
245.633	78.31
245.866	71.31
246.099	83.31
246.333	99.31
246.566	80.31
246.8	88.31
247.033	80.31
247.266	84.31
247.5	90.31
247.733	84.31
247.966	77.31
248.2	86.31
248.433	82.31
248.666	79.31
248.899	77.31
249.133	85.31
249.366	89.31
249.599	91.31
249.832	83.31
250.066	83.31
250.299	83.31
250.532	96.31
250.765	98.31
250.998	96.31
251.231	81.31
251.465	97.31
251.698	86.31
251.931	92.31
252.164	77.31
252.397	83.31
252.63	83.31
252.863	89.31
253.096	84.31
253.329	89.31
253.562	79.31
253.795	98.31
254.028	88.31
254.261	78.31
254.494	91.31
254.727	91.31
254.96	97.31
255.193	87.31
255.426	95.31
255.659	90.31
255.892	90.31
256.124	89.31
256.357	98.31
256.59	77.31
256.823	86.31
257.056	82.31
257.289	81.31
257.521	85.31
257.754	86.31
257.987	91.31
258.22	83.31
258.452	90.31
258.685	95.31
258.918	91.31
259.151	77.31
259.383	83.31
259.616	76.31
259.849	73.31
260.081	86.31
260.314	99.31
260.547	88.31
260.779	84.31
261.012	87.31
261.244	84.31
261.477	70.31
261.71	83.31
261.942	101.31
262.175	90.31
262.407	97.31
262.64	83.31
262.872	96.31
263.105	89.31
263.337	95.31
263.57	99.31
263.802	87.31
264.035	91.31
264.267	87.31
264.499	77.31
264.732	91.31
264.964	88.31
265.197	85.31
265.429	99.31
265.661	91.31
265.894	83.31
266.126	86.31
266.358	85.31
266.591	94.31
266.823	85.31
267.055	102.31
267.287	107.31
267.52	81.31
267.752	85.31
267.984	101.31
268.216	87.31
268.448	108.31
268.681	82.31
268.913	90.31
269.145	96.31
269.377	83.31
269.609	85.31
269.841	97.31
270.073	82.31
270.306	98.31
270.538	89.31
270.77	93.31
271.002	103.31
271.234	85.31
271.466	97.31
271.698	92.31
271.93	98.31
272.162	102.31
272.394	94.31
272.626	104.31
272.858	95.31
273.09	95.31
273.322	91.31
273.553	97.31
273.785	92.31
274.017	87.31
274.249	97.31
274.481	86.31
274.713	104.31
274.945	92.31
275.176	87.31
275.408	96.31
275.64	94.31
275.872	106.31
276.104	90.31
276.335	93.31
276.567	96.31
276.799	87.31
277.031	92.31
277.262	91.31
277.494	105.31
277.726	114.31
277.957	93.31
278.189	92.31
278.421	112.31
278.652	99.31
278.884	95.31
279.115	94.31
279.347	89.31
279.579	97.31
279.81	103.31
280.042	93.31
280.273	113.31
280.505	94.31
280.736	104.31
280.968	100.31
281.199	113.31
281.431	89.31
281.662	98.31
281.894	102.31
282.125	95.31
282.356	99.31
282.588	100.31
282.819	96.31
283.051	91.31
283.282	94.31
283.513	106.31
283.745	108.31
283.976	86.31
284.207	98.31
284.439	97.31
284.67	96.31
284.901	105.31
285.132	90.31
285.364	99.31
285.595	118.31
285.826	117.31
286.057	91.31
286.288	98.31
286.52	106.31
286.751	116.31
286.982	89.31
287.213	87.31
287.444	102.31
287.675	101.31
287.906	95.31
288.138	87.31
288.369	104.31
288.6	112.31
288.831	99.31
289.062	97.31
289.293	103.31
289.524	97.31
289.755	96.31
289.986	84.31
290.217	93.31
290.448	95.31
290.679	84.31
290.91	89.31
291.141	90.31
291.371	99.31
291.602	94.31
291.833	92.31
292.064	94.31
292.295	97.31
292.526	107.31
292.757	97.31
292.987	101.31
293.218	96.31
293.449	94.31
293.68	116.31
293.91	106.31
294.141	100.31
294.372	87.31
294.603	98.31
294.833	87.31
295.064	102.31
295.295	106.31
295.525	95.31
295.756	84.31
295.987	88.31
296.217	100.31
296.448	113.31
296.679	99.31
296.909	106.31
297.14	108.31
297.37	112.31
297.601	107.31
297.831	102.31
298.062	99.31
298.292	88.31
298.523	104.31
298.753	103.31
298.984	101.31
299.214	97.31
299.445	111.31
299.675	117.31
299.905	101.31
300.136	114.31
300.366	96.31
300.597	113.31
300.827	99.31
301.057	101.31
301.288	90.31
301.518	115.31
301.748	108.31
301.979	121.31
302.209	108.31
302.439	97.31
302.669	96.31
302.9	115.31
303.13	102.31
303.36	108.31
303.59	112.31
303.82	106.31
304.051	121.31
304.281	96.31
304.511	95.31
304.741	100.31
304.971	99.31
305.201	102.31
305.431	100.31
305.661	106.31
305.891	109.31
306.121	99.31
306.352	103.31
306.582	101.31
306.812	109.31
307.042	104.31
307.272	101.31
307.502	105.31
307.731	96.31
307.961	107.31
308.191	100.31
308.421	114.31
308.651	99.31
308.881	103.31
309.111	104.31
309.341	109.31
309.571	106.31
309.8	106.31
310.03	99.31
310.26	108.31
310.49	99.31
310.72	108.31
310.949	114.31
311.179	103.31
311.409	103.31
311.639	93.31
311.868	87.31
312.098	114.31
312.328	113.31
312.557	111.31
312.787	98.31
313.017	92.31
313.246	107.31
313.476	117.31
313.706	109.31
313.935	94.31
314.165	103.31
314.394	102.31
314.624	107.31
314.853	96.31
315.083	107.31
315.312	99.31
315.542	97.31
315.771	106.31
316.001	120.31
316.23	95.31
316.46	99.31
316.689	101.31
316.919	104.31
317.148	111.31
317.377	115.31
317.607	122.31
317.836	111.31
318.065	96.31
318.295	114.31
318.524	108.31
318.753	96.31
318.983	120.31
319.212	111.31
319.441	113.31
319.67	109.31
319.9	107.31
320.129	105.31
320.358	91.31
320.587	104.31
320.816	116.31
321.046	112.31
321.275	104.31
321.504	103.31
321.733	104.31
321.962	112.31
322.191	104.31
322.42	118.31
322.649	111.31
322.878	116.31
323.108	106.31
323.337	104.31
323.566	119.31
323.795	106.31
324.024	106.31
324.253	103.31
324.482	121.31
324.71	151.31
324.939	167.31
325.168	158.31
325.397	137.31
325.626	105.31
325.855	118.31
326.084	127.31
326.313	117.31
326.542	107.31
326.77	114.31
326.999	120.31
327.228	130.31
327.457	139.31
327.686	155.31
327.914	123.31
328.143	119.31
328.372	118.31
328.6	100.31
328.829	106.31
329.058	102.31
329.287	117.31
329.515	107.31
329.744	111.31
329.972	105.31
330.201	109.31
330.43	105.31
330.658	111.31
330.887	121.31
331.115	120.31
331.344	100.31
331.572	107.31
331.801	110.31
332.03	104.31
332.258	116.31
332.486	107.31
332.715	115.31
332.943	115.31
333.172	122.31
333.4	116.31
333.629	121.31
333.857	110.31
334.085	122.31
334.314	123.31
334.542	121.31
334.771	123.31
334.999	119.31
335.227	104.31
335.455	103.31
335.684	121.31
335.912	118.31
336.14	114.31
336.369	100.31
336.597	123.31
336.825	111.31
337.053	121.31
337.281	107.31
337.51	109.31
337.738	117.31
337.966	110.31
338.194	112.31
338.422	113.31
338.65	112.31
338.878	123.31
339.106	103.31
339.334	120.31
339.562	102.31
339.79	111.31
340.018	111.31
340.246	98.31
340.474	100.31
340.702	112.31
340.93	98.31
341.158	113.31
341.386	92.31
341.614	116.31
341.842	116.31
342.07	112.31
342.298	120.31
342.526	107.31
342.754	123.31
342.981	114.31
343.209	113.31
343.437	113.31
343.665	106.31
343.893	128.31
344.12	123.31
344.348	113.31
344.576	119.31
344.804	113.31
345.031	109.31
345.259	107.31
345.487	121.31
345.714	112.31
345.942	105.31
346.17	102.31
346.397	91.31
346.625	109.31
346.853	111.31
347.08	106.31
347.308	100.31
347.535	99.31
347.763	111.31
347.99	119.31
348.218	112.31
348.445	93.31
348.673	102.31
348.9	112.31
349.128	105.31
349.355	123.31
349.583	105.31
349.81	115.31
350.037	105.31
350.265	122.31
350.492	112.31
350.72	100.31
350.947	115.31
351.174	123.31
351.402	112.31
351.629	121.31
351.856	100.31
352.083	117.31
352.311	104.31
352.538	104.31
352.765	122.31
352.992	111.31
353.22	113.31
353.447	112.31
353.674	114.31
353.901	120.31
354.128	111.31
354.355	105.31
354.583	93.31
354.81	95.31
355.037	85.31
355.264	101.31
355.491	103.31
355.718	116.31
355.945	105.31
356.172	109.31
356.399	104.31
356.626	102.31
356.853	108.31
357.08	104.31
357.307	112.31
357.534	119.31
357.761	95.31
357.988	112.31
358.215	110.31
358.441	98.31
358.668	118.31
358.895	125.31
359.122	121.31
359.349	117.31
359.576	108.31
359.802	113.31
360.029	114.31
360.256	116.31
360.483	112.31
360.709	101.31
360.936	122.31
361.163	115.31
361.39	106.31
361.616	111.31
361.843	115.31
362.07	121.31
362.296	126.31
362.523	103.31
362.749	97.31
362.976	105.31
363.203	129.31
363.429	111.31
363.656	103.31
363.882	113.31
364.109	111.31
364.335	107.31
364.562	103.31
364.788	124.31
365.015	113.31
365.241	102.31
365.468	115.31
365.694	106.31
365.92	99.31
366.147	117.31
366.373	121.31
366.599	97.31
366.826	121.31
367.052	120.31
367.278	103.31
367.505	111.31
367.731	104.31
367.957	104.31
368.184	116.31
368.41	123.31
368.636	114.31
368.862	104.31
369.089	108.31
369.315	94.31
369.541	103.31
369.767	101.31
369.993	109.31
370.219	116.31
370.445	103.31
370.672	85.31
370.898	119.31
371.124	115.31
371.35	110.31
371.576	111.31
371.802	99.31
372.028	116.31
372.254	114.31
372.48	106.31
372.706	99.31
372.932	108.31
373.158	115.31
373.384	113.31
373.61	112.31
373.835	109.31
374.061	116.31
374.287	125.31
374.513	114.31
374.739	119.31
374.965	115.31
375.191	115.31
375.416	116.31
375.642	113.31
375.868	113.31
376.094	113.31
376.319	106.31
376.545	127.31
376.771	115.31
376.997	101.31
377.222	113.31
377.448	99.31
377.674	110.31
377.899	113.31
378.125	125.31
378.35	127.31
378.576	117.31
378.802	116.31
379.027	114.31
379.253	116.31
379.478	102.31
379.704	115.31
379.929	115.31
380.155	103.31
380.38	105.31
380.606	106.31
380.831	102.31
381.057	103.31
381.282	117.31
381.507	113.31
381.733	91.31
381.958	115.31
382.184	119.31
382.409	115.31
382.634	120.31
382.86	113.31
383.085	100.31
383.31	115.31
383.535	117.31
383.761	123.31
383.986	108.31
384.211	123.31
384.436	105.31
384.662	107.31
384.887	119.31
385.112	109.31
385.337	116.31
385.562	115.31
385.787	124.31
386.013	122.31
386.238	112.31
386.463	131.31
386.688	113.31
386.913	114.31
387.138	124.31
387.363	121.31
387.588	100.31
387.813	107.31
388.038	122.31
388.263	116.31
388.488	118.31
388.713	114.31
388.938	108.31
389.163	113.31
389.387	115.31
389.612	111.31
389.837	129.31
390.062	103.31
390.287	111.31
390.512	120.31
390.736	124.31
390.961	115.31
391.186	112.31
391.411	111.31
391.636	114.31
391.86	122.31
392.085	122.31
392.31	104.31
392.534	108.31
392.759	127.31
392.984	116.31
393.208	106.31
393.433	119.31
393.658	117.31
393.882	121.31
394.107	116.31
394.331	120.31
394.556	121.31
394.78	117.31
395.005	131.31
395.229	97.31
395.454	123.31
395.678	121.31
395.903	134.31
396.127	127.31
396.352	127.31
396.576	115.31
396.801	131.31
397.025	121.31
397.249	132.31
397.474	131.31
397.698	120.31
397.922	141.31
398.147	127.31
398.371	113.31
398.595	125.31
398.82	137.31
399.044	121.31
399.268	135.31
399.492	134.31
399.717	138.31
399.941	134.31
400.165	139.31
400.389	147.31
400.613	140.31
400.837	143.31
401.062	135.31
401.286	125.31
401.51	135.31
401.734	113.31
401.958	124.31
402.182	114.31
402.406	117.31
402.63	123.31
402.854	119.31
403.078	130.31
403.302	145.31
403.526	139.31
403.75	139.31
403.974	135.31
404.198	126.31
404.422	138.31
404.645	126.31
404.869	127.31
405.093	137.31
405.317	132.31
405.541	127.31
405.765	121.31
405.988	133.31
406.212	134.31
406.436	137.31
406.66	140.31
406.883	124.31
407.107	141.31
407.331	141.31
407.555	145.31
407.778	149.31
408.002	128.31
408.226	124.31
408.449	123.31
408.673	122.31
408.896	141.31
409.12	137.31
409.344	131.31
409.567	122.31
409.791	117.31
410.014	132.31
410.238	140.31
410.461	129.31
410.685	122.31
410.908	121.31
411.132	120.31
411.355	132.31
411.578	141.31
411.802	115.31
412.025	129.31
412.249	120.31
412.472	125.31
412.695	120.31
412.919	114.31
413.142	123.31
413.365	119.31
413.589	132.31
413.812	125.31
414.035	136.31
414.258	137.31
414.482	112.31
414.705	121.31
414.928	131.31
415.151	122.31
415.374	123.31
415.597	130.31
415.821	128.31
416.044	119.31
416.267	126.31
416.49	106.31
416.713	129.31
416.936	125.31
417.159	140.31
417.382	129.31
417.605	122.31
417.828	119.31
418.051	109.31
418.274	113.31
418.497	119.31
418.72	135.31
418.943	118.31
419.166	132.31
419.389	147.31
419.611	131.31
419.834	121.31
420.057	124.31
420.28	132.31
420.503	129.31
420.726	129.31
420.948	129.31
421.171	123.31
421.394	137.31
421.617	132.31
421.839	132.31
422.062	121.31
422.285	125.31
422.507	135.31
422.73	149.31
422.953	127.31
423.175	135.31
423.398	128.31
423.621	123.31
423.843	140.31
424.066	125.31
424.288	135.31
424.511	135.31
424.733	140.31
424.956	143.31
425.178	140.31
425.401	129.31
425.623	121.31
425.846	140.31
426.068	131.31
426.291	108.31
426.513	127.31
426.735	127.31
426.958	137.31
427.18	131.31
427.402	137.31
427.625	143.31
427.847	143.31
428.069	136.31
428.292	131.31
428.514	111.31
428.736	131.31
428.958	121.31
429.181	119.31
429.403	119.31
429.625	112.31
429.847	117.31
430.069	121.31
430.292	125.31
430.514	125.31
430.736	117.31
430.958	147.31
431.18	108.31
431.402	129.31
431.624	123.31
431.846	123.31
432.068	137.31
432.29	143.31
432.512	113.31
432.734	117.31
432.956	141.31
433.178	121.31
433.4	119.31
433.622	120.31
433.844	117.31
434.066	115.31
434.287	127.31
434.509	115.31
434.731	123.31
434.953	100.31
435.175	121.31
435.397	119.31
435.618	133.31
435.84	143.31
436.062	132.31
436.284	134.31
436.505	136.31
436.727	132.31
436.949	126.31
437.17	120.31
437.392	116.31
437.614	134.31
437.835	105.31
438.057	126.31
438.278	129.31
438.5	137.31
438.721	134.31
438.943	135.31
439.165	136.31
439.386	131.31
439.608	122.31
439.829	122.31
440.05	128.31
440.272	129.31
440.493	118.31
440.715	131.31
440.936	126.31
441.158	119.31
441.379	129.31
441.6	111.31
441.822	139.31
442.043	141.31
442.264	141.31
442.486	133.31
442.707	130.31
442.928	144.31
443.149	127.31
443.371	143.31
443.592	129.31
443.813	143.31
444.034	151.31
444.255	137.31
444.476	139.31
444.698	136.31
444.919	135.31
445.14	266.31
445.361	172.31
445.582	135.31
445.803	129.31
446.024	145.31
446.245	141.31
446.466	116.31
446.687	125.31
446.908	112.31
447.129	124.31
447.35	131.31
447.571	137.31
447.792	123.31
448.013	135.31
448.234	116.31
448.455	107.31
448.675	127.31
448.896	131.31
449.117	120.31
449.338	141.31
449.559	147.31
449.779	141.31
450	131.31
450.221	103.31
450.442	107.31
450.662	112.31
450.883	120.31
451.104	127.31
451.324	115.31
451.545	126.31
451.766	123.31
451.986	118.31
452.207	113.31
452.428	119.31
452.648	108.31
452.869	117.31
453.089	123.31
453.31	123.31
453.53	116.31
453.751	117.31
453.971	117.31
454.192	127.31
454.412	123.31
454.633	132.31
454.853	120.31
455.073	115.31
455.294	123.31
455.514	118.31
455.734	126.31
455.955	114.31
456.175	124.31
456.395	123.31
456.616	120.31
456.836	116.31
457.056	101.31
457.276	127.31
457.497	97.31
457.717	99.31
457.937	112.31
458.157	123.31
458.377	119.31
458.598	115.31
458.818	118.31
459.038	119.31
459.258	134.31
459.478	113.31
459.698	126.31
459.918	123.31
460.138	138.31
460.358	128.31
460.578	127.31
460.798	121.31
461.018	143.31
461.238	119.31
461.458	137.31
461.678	121.31
461.898	128.31
462.118	125.31
462.338	124.31
462.558	147.31
462.777	127.31
462.997	131.31
463.217	135.31
463.437	134.31
463.657	125.31
463.876	131.31
464.096	145.31
464.316	122.31
464.536	128.31
464.755	130.31
464.975	141.31
465.195	130.31
465.414	139.31
465.634	131.31
465.854	108.31
466.073	127.31
466.293	124.31
466.512	112.31
466.732	133.31
466.951	123.31
467.171	119.31
467.391	129.31
467.61	120.31
467.829	129.31
468.049	103.31
468.268	121.31
468.488	131.31
468.707	113.31
468.927	126.31
469.146	114.31
469.365	117.31
469.585	122.31
469.804	130.31
470.023	132.31
470.243	104.31
470.462	125.31
470.681	133.31
470.901	124.31
471.12	124.31
471.339	125.31
471.558	120.31
471.777	128.31
471.997	122.31
472.216	125.31
472.435	112.31
472.654	120.31
472.873	110.31
473.092	115.31
473.311	121.31
473.53	127.31
473.749	118.31
473.968	127.31
474.187	123.31
474.406	114.31
474.625	119.31
474.844	122.31
475.063	103.31
475.282	123.31
475.501	119.31
475.72	125.31
475.939	109.31
476.158	132.31
476.377	124.31
476.596	103.31
476.814	123.31
477.033	128.31
477.252	120.31
477.471	120.31
477.69	125.31
477.908	115.31
478.127	128.31
478.346	129.31
478.564	127.31
478.783	136.31
479.002	130.31
479.22	125.31
479.439	146.31
479.658	126.31
479.876	127.31
480.095	124.31
480.313	135.31
480.532	142.31
480.751	140.31
480.969	123.31
481.188	136.31
481.406	116.31
481.624	127.31
481.843	115.31
482.061	132.31
482.28	133.31
482.498	137.31
482.717	121.31
482.935	127.31
483.153	130.31
483.372	127.31
483.59	127.31
483.808	127.31
484.027	137.31
484.245	139.31
484.463	137.31
484.681	138.31
484.9	135.31
485.118	143.31
485.336	138.31
485.554	140.31
485.772	124.31
485.99	144.31
486.209	124.31
486.427	131.31
486.645	115.31
486.863	120.31
487.081	125.31
487.299	126.31
487.517	130.31
487.735	131.31
487.953	136.31
488.171	138.31
488.389	155.31
488.607	142.31
488.825	127.31
489.043	128.31
489.261	124.31
489.479	131.31
489.696	123.31
489.914	128.31
490.132	129.31
490.35	140.31
490.568	127.31
490.786	134.31
491.003	134.31
491.221	145.31
491.439	129.31
491.657	139.31
491.874	149.31
492.092	134.31
492.31	151.31
492.527	145.31
492.745	139.31
492.963	145.31
493.18	160.31
493.398	143.31
493.615	141.31
493.833	152.31
494.05	139.31
494.268	140.31
494.485	136.31
494.703	141.31
494.92	134.31
495.138	147.31
495.355	125.31
495.573	147.31
495.79	141.31
496.008	152.31
496.225	155.31
496.442	147.31
496.66	154.31
496.877	148.31
497.094	137.31
497.312	138.31
497.529	135.31
497.746	156.31
497.963	152.31
498.181	137.31
498.398	143.31
498.615	139.31
498.832	150.31
499.049	163.31
499.267	170.31
499.484	192.31
499.701	191.31
499.918	187.31
500.135	202.31
500.352	197.31
500.569	202.31
500.786	206.31
501.003	207.31
501.22	202.31
501.437	175.31
501.654	169.31
501.871	163.31
502.088	165.31
502.305	163.31
502.522	153.31
502.739	157.31
502.956	161.31
503.172	158.31
503.389	150.31
503.606	141.31
503.823	137.31
504.04	130.31
504.256	153.31
504.473	151.31
504.69	132.31
504.907	135.31
505.123	137.31
505.34	145.31
505.557	122.31
505.773	147.31
505.99	137.31
506.207	147.31
506.423	128.31
506.64	136.31
506.856	139.31
507.073	125.31
507.289	145.31
507.506	150.31
507.722	122.31
507.939	117.31
508.155	134.31
508.372	127.31
508.588	139.31
508.805	144.31
509.021	145.31
509.238	129.31
509.454	129.31
509.67	138.31
509.887	128.31
510.103	130.31
510.319	136.31
510.536	135.31
510.752	135.31
510.968	128.31
511.184	115.31
511.401	127.31
511.617	129.31
511.833	112.31
512.049	125.31
512.265	115.31
512.481	144.31
512.698	134.31
512.914	119.31
513.13	119.31
513.346	125.31
513.562	116.31
513.778	130.31
513.994	140.31
514.21	117.31
514.426	130.31
514.642	108.31
514.858	129.31
515.074	132.31
515.29	136.31
515.506	163.31
515.721	144.31
515.937	140.31
516.153	135.31
516.369	117.31
516.585	125.31
516.801	122.31
517.016	128.31
517.232	141.31
517.448	148.31
517.664	131.31
517.879	137.31
518.095	132.31
518.311	136.31
518.527	138.31
518.742	138.31
518.958	135.31
519.173	122.31
519.389	139.31
519.605	118.31
519.82	126.31
520.036	137.31
520.251	118.31
520.467	127.31
520.682	127.31
520.898	126.31
521.113	127.31
521.329	120.31
521.544	131.31
521.76	133.31
521.975	168.31
522.19	166.31
522.406	137.31
522.621	122.31
522.836	120.31
523.052	123.31
523.267	129.31
523.482	121.31
523.698	124.31
523.913	119.31
524.128	121.31
524.343	128.31
524.559	131.31
524.774	121.31
524.989	123.31
525.204	116.31
525.419	133.31
525.634	123.31
525.849	121.31
526.064	123.31
526.28	116.31
526.495	106.31
526.71	101.31
526.925	110.31
527.14	121.31
527.355	122.31
527.57	113.31
527.785	107.31
527.999	121.31
528.214	122.31
528.429	118.31
528.644	139.31
528.859	120.31
529.074	139.31
529.289	127.31
529.503	113.31
529.718	131.31
529.933	117.31
530.148	126.31
530.363	124.31
530.577	111.31
530.792	123.31
531.007	124.31
531.221	122.31
531.436	98.31
531.651	130.31
531.865	122.31
532.08	123.31
532.295	127.31
532.509	117.31
532.724	123.31
532.938	117.31
533.153	139.31
533.367	130.31
533.582	128.31
533.796	129.31
534.011	106.31
534.225	129.31
534.44	112.31
534.654	124.31
534.868	106.31
535.083	123.31
535.297	105.31
535.511	115.31
535.726	118.31
535.94	98.31
536.154	125.31
536.369	120.31
536.583	106.31
536.797	113.31
537.011	111.31
537.225	118.31
537.44	104.31
537.654	102.31
537.868	107.31
538.082	124.31
538.296	117.31
538.51	118.31
538.724	111.31
538.938	119.31
539.153	115.31
539.367	133.31
539.581	136.31
539.795	119.31
540.009	117.31
540.222	121.31
540.436	116.31
540.65	118.31
540.864	129.31
541.078	124.31
541.292	119.31
541.506	120.31
541.72	127.31
541.934	135.31
542.147	131.31
542.361	133.31
542.575	127.31
542.789	128.31
543.002	125.31
543.216	129.31
543.43	151.31
543.644	146.31
543.857	134.31
544.071	136.31
544.285	134.31
544.498	129.31
544.712	128.31
544.925	135.31
545.139	126.31
545.352	124.31
545.566	131.31
545.779	125.31
545.993	118.31
546.206	141.31
546.42	139.31
546.633	133.31
546.847	130.31
547.06	136.31
547.274	121.31
547.487	120.31
547.7	122.31
547.914	128.31
548.127	130.31
548.34	121.31
548.554	119.31
548.767	127.31
548.98	133.31
549.193	117.31
549.407	114.31
549.62	121.31
549.833	122.31
550.046	128.31
550.259	127.31
550.473	126.31
550.686	124.31
550.899	117.31
551.112	106.31
551.325	111.31
551.538	117.31
551.751	123.31
551.964	133.31
552.177	111.31
552.39	120.31
552.603	135.31
552.816	119.31
553.029	123.31
553.242	135.31
553.455	121.31
553.667	113.31
553.88	116.31
554.093	128.31
554.306	115.31
554.519	121.31
554.732	119.31
554.944	136.31
555.157	127.31
555.37	121.31
555.583	132.31
555.795	121.31
556.008	107.31
556.221	133.31
556.433	119.31
556.646	109.31
556.859	117.31
557.071	107.31
557.284	123.31
557.496	124.31
557.709	107.31
557.921	118.31
558.134	124.31
558.346	123.31
558.559	132.31
558.771	120.31
558.984	113.31
559.196	102.31
559.409	107.31
559.621	108.31
559.833	118.31
560.046	107.31
560.258	113.31
560.47	116.31
560.683	108.31
560.895	122.31
561.107	115.31
561.32	117.31
561.532	109.31
561.744	122.31
561.956	107.31
562.168	99.31
562.381	127.31
562.593	113.31
562.805	115.31
563.017	115.31
563.229	113.31
563.441	116.31
563.653	122.31
563.865	105.31
564.077	111.31
564.289	116.31
564.501	96.31
564.713	119.31
564.925	119.31
565.137	114.31
565.349	126.31
565.561	124.31
565.773	130.31
565.985	125.31
566.197	124.31
566.408	116.31
566.62	107.31
566.832	134.31
567.044	125.31
567.255	126.31
567.467	130.31
567.679	135.31
567.891	139.31
568.102	135.31
568.314	127.31
568.526	133.31
568.737	118.31
568.949	132.31
569.161	96.31
569.372	115.31
569.584	120.31
569.795	145.31
570.007	129.31
570.218	114.31
570.43	107.31
570.641	121.31
570.853	127.31
571.064	118.31
571.276	120.31
571.487	123.31
571.698	111.31
571.91	129.31
572.121	120.31
572.333	105.31
572.544	116.31
572.755	108.31
572.966	104.31
573.178	104.31
573.389	122.31
573.6	111.31
573.811	109.31
574.023	113.31
574.234	102.31
574.445	117.31
574.656	107.31
574.867	97.31
575.078	100.31
575.289	105.31
575.501	89.31
575.712	102.31
575.923	103.31
576.134	113.31
576.345	92.31
576.556	95.31
576.767	111.31
576.978	119.31
577.188	116.31
577.399	105.31
577.61	103.31
577.821	90.31
578.032	99.31
578.243	97.31
578.454	119.31
578.665	103.31
578.875	89.31
579.086	103.31
579.297	105.31
579.508	116.31
579.718	112.31
579.929	113.31
580.14	103.31
580.35	90.31
580.561	104.31
580.772	99.31
580.982	106.31
581.193	108.31
581.403	99.31
581.614	97.31
581.825	101.31
582.035	102.31
582.246	125.31
582.456	113.31
582.667	93.31
582.877	89.31
583.087	117.31
583.298	105.31
583.508	115.31
583.719	91.31
583.929	97.31
584.139	102.31
584.35	101.31
584.56	97.31
584.77	106.31
584.981	99.31
585.191	122.31
585.401	121.31
585.611	117.31
585.821	99.31
586.032	110.31
586.242	104.31
586.452	103.31
586.662	105.31
586.872	111.31
587.082	99.31
587.292	114.31
587.502	97.31
587.713	102.31
587.923	99.31
588.133	102.31
588.343	97.31
588.553	107.31
588.762	113.31
588.972	109.31
589.182	93.31
589.392	104.31
589.602	112.31
589.812	97.31
590.022	107.31
590.232	119.31
590.441	101.31
590.651	104.31
590.861	106.31
591.071	100.31
591.281	104.31
591.49	96.31
591.7	96.31
591.91	109.31
592.119	100.31
592.329	103.31
592.539	108.31
592.748	109.31
592.958	117.31
593.167	108.31
593.377	113.31
593.587	107.31
593.796	108.31
594.006	109.31
594.215	122.31
594.424	113.31
594.634	113.31
594.843	107.31
595.053	99.31
595.262	102.31
595.472	91.31
595.681	105.31
595.89	102.31
596.1	95.31
596.309	86.31
596.518	111.31
596.727	110.31
596.937	96.31
597.146	88.31
597.355	99.31
597.564	109.31
597.774	113.31
597.983	114.31
598.192	101.31
598.401	90.31
598.61	90.31
598.819	117.31
599.028	101.31
599.237	99.31
599.446	95.31
599.655	111.31
599.864	120.31
600.073	98.31
600.282	103.31
600.491	99.31
600.7	91.31
600.909	97.31
601.118	95.31
601.327	98.31
601.536	111.31
601.745	101.31
601.953	100.31
602.162	111.31
602.371	113.31
602.58	96.31
602.789	94.31
602.997	111.31
603.206	119.31
603.415	104.31
603.623	95.31
603.832	110.31
604.041	102.31
604.249	99.31
604.458	90.31
604.666	97.31
604.875	94.31
605.084	103.31
605.292	104.31
605.501	97.31
605.709	99.31
605.918	88.31
606.126	92.31
606.334	115.31
606.543	104.31
606.751	93.31
606.96	107.31
607.168	93.31
607.376	98.31
607.585	116.31
607.793	95.31
608.001	93.31
608.21	92.31
608.418	108.31
608.626	109.31
608.834	92.31
609.043	102.31
609.251	87.31
609.459	101.31
609.667	100.31
609.875	91.31
610.083	101.31
610.291	98.31
610.499	99.31
610.707	110.31
610.916	114.31
611.124	115.31
611.332	102.31
611.54	105.31
611.748	118.31
611.955	116.31
612.163	96.31
612.371	91.31
612.579	109.31
612.787	98.31
612.995	119.31
613.203	102.31
613.411	104.31
613.618	100.31
613.826	91.31
614.034	101.31
614.242	108.31
614.449	90.31
614.657	115.31
614.865	101.31
615.072	95.31
615.28	95.31
615.488	114.31
615.695	93.31
615.903	106.31
616.111	85.31
616.318	98.31
616.526	96.31
616.733	95.31
616.941	103.31
617.148	101.31
617.356	103.31
617.563	110.31
617.771	109.31
617.978	114.31
618.185	108.31
618.393	104.31
618.6	99.31
618.807	97.31
619.015	92.31
619.222	98.31
619.429	97.31
619.637	107.31
619.844	97.31
620.051	100.31
620.258	99.31
620.466	100.31
620.673	107.31
620.88	90.31
621.087	91.31
621.294	98.31
621.501	99.31
621.708	98.31
621.915	100.31
622.122	87.31
622.329	100.31
622.536	91.31
622.743	108.31
622.95	101.31
623.157	97.31
623.364	92.31
623.571	120.31
623.778	101.31
623.985	104.31
624.192	105.31
624.399	96.31
624.606	100.31
624.812	106.31
625.019	95.31
625.226	109.31
625.433	92.31
625.639	93.31
625.846	109.31
626.053	88.31
626.259	101.31
626.466	99.31
626.673	97.31
626.879	90.31
627.086	97.31
627.293	96.31
627.499	81.31
627.706	96.31
627.912	106.31
628.119	79.31
628.325	100.31
628.532	105.31
628.738	93.31
628.945	89.31
629.151	104.31
629.357	95.31
629.564	97.31
629.77	96.31
629.976	93.31
630.183	91.31
630.389	95.31
630.595	101.31
630.802	98.31
631.008	96.31
631.214	108.31
631.42	101.31
631.627	93.31
631.833	99.31
632.039	89.31
632.245	89.31
632.451	96.31
632.657	89.31
632.863	88.31
633.069	88.31
633.275	90.31
633.481	107.31
633.688	99.31
633.893	97.31
634.099	95.31
634.305	94.31
634.511	108.31
634.717	99.31
634.923	97.31
635.129	81.31
635.335	92.31
635.541	92.31
635.747	105.31
635.952	103.31
636.158	79.31
636.364	100.31
636.57	95.31
636.775	77.31
636.981	109.31
637.187	101.31
637.392	97.31
637.598	100.31
637.804	88.31
638.009	96.31
638.215	91.31
638.421	96.31
638.626	81.31
638.832	90.31
639.037	99.31
639.243	106.31
639.448	97.31
639.654	102.31
639.859	95.31
640.065	90.31
640.27	97.31
640.475	93.31
640.681	83.31
640.886	90.31
641.091	93.31
641.297	78.31
641.502	99.31
641.707	93.31
641.913	100.31
642.118	77.31
642.323	75.31
642.528	87.31
642.733	93.31
642.939	95.31
643.144	101.31
643.349	98.31
643.554	103.31
643.759	88.31
643.964	87.31
644.169	80.31
644.374	103.31
644.579	97.31
644.784	96.31
644.989	77.31
645.194	97.31
645.399	96.31
645.604	95.31
645.809	86.31
646.014	83.31
646.219	92.31
646.423	88.31
646.628	90.31
646.833	103.31
647.038	106.31
647.243	108.31
647.447	84.31
647.652	97.31
647.857	92.31
648.062	94.31
648.266	89.31
648.471	92.31
648.676	88.31
648.88	83.31
649.085	91.31
649.289	95.31
649.494	76.31
649.698	77.31
649.903	91.31
650.107	91.31
650.312	88.31
650.516	98.31
650.721	99.31
650.925	96.31
651.13	80.31
651.334	83.31
651.539	74.31
651.743	81.31
651.947	91.31
652.152	91.31
652.356	84.31
652.56	91.31
652.764	92.31
652.969	90.31
653.173	90.31
653.377	94.31
653.581	89.31
653.785	95.31
653.99	91.31
654.194	87.31
654.398	96.31
654.602	86.31
654.806	81.31
655.01	88.31
655.214	87.31
655.418	91.31
655.622	71.31
655.826	99.31
656.03	89.31
656.234	102.31
656.438	76.31
656.642	92.31
656.846	84.31
657.049	88.31
657.253	88.31
657.457	87.31
657.661	99.31
657.865	106.31
658.068	71.31
658.272	79.31
658.476	88.31
658.68	87.31
658.883	82.31
659.087	81.31
659.291	87.31
659.494	85.31
659.698	83.31
659.901	88.31
660.105	77.31
660.309	74.31
660.512	87.31
660.716	77.31
660.919	78.31
661.123	89.31
661.326	77.31
661.53	94.31
661.733	81.31
661.936	86.31
662.14	76.31
662.343	79.31
662.546	81.31
662.75	79.31
662.953	83.31
663.156	88.31
663.36	77.31
663.563	91.31
663.766	85.31
663.969	89.31
664.173	81.31
664.376	82.31
664.579	77.31
664.782	71.31
664.985	85.31
665.188	86.31
665.391	80.31
665.594	77.31
665.797	74.31
666	82.31
666.203	87.31
666.406	73.31
666.609	76.31
666.812	82.31
667.015	75.31
667.218	82.31
667.421	76.31
667.624	76.31
667.827	86.31
668.03	77.31
668.232	72.31
668.435	85.31
668.638	82.31
668.841	88.31
669.043	77.31
669.246	76.31
669.449	98.31
669.651	87.31
669.854	88.31
670.057	88.31
670.259	88.31
670.462	84.31
670.665	72.31
670.867	69.31
671.07	71.31
671.272	83.31
671.475	75.31
671.677	78.31
671.88	88.31
672.082	87.31
672.284	93.31
672.487	94.31
672.689	75.31
672.892	89.31
