Data from Location1.07152019.Energy5.Lamp.07192019.3%Agarose_HRD10591_14-32-23-015.txt Node
Date: Fri Jul 19 14:32:23 EDT 2019
User: cochatt
Spectrometer: HR+D1059
Trigger mode: 1
Integration Time (sec): 1.000000E-1
Scans to average: 1
Electric dark correction enabled: true
Nonlinearity correction enabled: false
Boxcar width: 0
XAxis mode: Wavelengths
Number of Pixels in Spectrum: 2048
>>>>>Begin Spectral Data<<<<<
223.165	-4
223.4	-4
223.635	-4
223.869	-14
224.104	-7
224.338	-22
224.573	-18
224.808	-13
225.042	-19
225.277	4
225.511	0
225.746	5
225.98	4
226.215	-7
226.449	6
226.683	26
226.918	29
227.152	30
227.387	39
227.621	51
227.856	44
228.09	46
228.324	51
228.559	58
228.793	64
229.027	67
229.262	66
229.496	77
229.73	77
229.964	81
230.199	86
230.433	88
230.667	83
230.901	79
231.136	87
231.37	73
231.604	66
231.838	76
232.072	85
232.306	89
232.541	89
232.775	84
233.009	89
233.243	79
233.477	84
233.711	81
233.945	80
234.179	86
234.413	67
234.647	102
234.881	78
235.115	76
235.349	81
235.583	77
235.817	98
236.051	73
236.285	70
236.519	72
236.753	77
236.987	86
237.221	84
237.455	83
237.689	80
237.922	89
238.156	75
238.39	66
238.624	77
238.858	80
239.091	65
239.325	79
239.559	86
239.793	69
240.027	77
240.26	70
240.494	86
240.728	68
240.961	87
241.195	84
241.429	83
241.662	90
241.896	83
242.13	65
242.363	78
242.597	85
242.83	76
243.064	86
243.298	75
243.531	75
243.765	90
243.998	78
244.232	83
244.465	83
244.699	79
244.932	74
245.166	80
245.399	89
245.633	90
245.866	75
246.099	79
246.333	89
246.566	79
246.8	74
247.033	90
247.266	75
247.5	73
247.733	76
247.966	83
248.2	77
248.433	81
248.666	91
248.899	85
249.133	83
249.366	89
249.599	85
249.832	84
250.066	82
250.299	74
250.532	78
250.765	78
250.998	88
251.231	73
251.465	74
251.698	77
251.931	91
252.164	95
252.397	71
252.63	98
252.863	82
253.096	85
253.329	76
253.562	88
253.795	70
254.028	73
254.261	73
254.494	81
254.727	93
254.96	78
255.193	64
255.426	82
255.659	86
255.892	91
256.124	76
256.357	65
256.59	73
256.823	67
257.056	88
257.289	93
257.521	81
257.754	76
257.987	80
258.22	84
258.452	81
258.685	91
258.918	81
259.151	83
259.383	72
259.616	77
259.849	80
260.081	78
260.314	81
260.547	85
260.779	68
261.012	79
261.244	74
261.477	87
261.71	80
261.942	79
262.175	92
262.407	89
262.64	87
262.872	96
263.105	86
263.337	77
263.57	89
263.802	85
264.035	103
264.267	89
264.499	96
264.732	91
264.964	81
265.197	86
265.429	81
265.661	84
265.894	84
266.126	72
266.358	79
266.591	92
266.823	85
267.055	87
267.287	80
267.52	81
267.752	94
267.984	89
268.216	84
268.448	87
268.681	80
268.913	71
269.145	90
269.377	90
269.609	86
269.841	92
270.073	84
270.306	81
270.538	88
270.77	93
271.002	67
271.234	91
271.466	107
271.698	96
271.93	91
272.162	80
272.394	79
272.626	90
272.858	76
273.09	91
273.322	90
273.553	91
273.785	100
274.017	104
274.249	78
274.481	82
274.713	82
274.945	81
275.176	75
275.408	94
275.64	82
275.872	71
276.104	90
276.335	76
276.567	78
276.799	89
277.031	86
277.262	79
277.494	86
277.726	105
277.957	88
278.189	90
278.421	91
278.652	87
278.884	90
279.115	81
279.347	81
279.579	85
279.81	90
280.042	84
280.273	84
280.505	95
280.736	88
280.968	89
281.199	80
281.431	85
281.662	81
281.894	97
282.125	89
282.356	75
282.588	80
282.819	82
283.051	102
283.282	84
283.513	83
283.745	88
283.976	87
284.207	76
284.439	65
284.67	88
284.901	80
285.132	85
285.364	87
285.595	82
285.826	89
286.057	84
286.288	72
286.52	94
286.751	88
286.982	80
287.213	86
287.444	82
287.675	84
287.906	87
288.138	76
288.369	87
288.6	73
288.831	79
289.062	80
289.293	85
289.524	87
289.755	88
289.986	94
290.217	91
290.448	86
290.679	94
290.91	80
291.141	82
291.371	83
291.602	79
291.833	83
292.064	92
292.295	78
292.526	96
292.757	93
292.987	79
293.218	89
293.449	94
293.68	92
293.91	92
294.141	82
294.372	75
294.603	97
294.833	88
295.064	85
295.295	78
295.525	79
295.756	88
295.987	88
296.217	79
296.448	100
296.679	95
296.909	92
297.14	86
297.37	75
297.601	86
297.831	86
298.062	78
298.292	84
298.523	90
298.753	79
298.984	87
299.214	84
299.445	91
299.675	88
299.905	76
300.136	80
300.366	86
300.597	84
300.827	84
301.057	88
301.288	79
301.518	76
301.748	81
301.979	78
302.209	78
302.439	83
302.669	92
302.9	89
303.13	94
303.36	89
303.59	90
303.82	98
304.051	87
304.281	76
304.511	95
304.741	87
304.971	85
305.201	96
305.431	73
305.661	72
305.891	92
306.121	93
306.352	64
306.582	100
306.812	83
307.042	85
307.272	88
307.502	74
307.731	72
307.961	93
308.191	80
308.421	90
308.651	84
308.881	93
309.111	76
309.341	80
309.571	78
309.8	77
310.03	86
310.26	75
310.49	89
310.72	84
310.949	78
311.179	100
311.409	88
311.639	86
311.868	87
312.098	80
312.328	96
312.557	94
312.787	81
313.017	81
313.246	79
313.476	100
313.706	89
313.935	92
314.165	85
314.394	92
314.624	97
314.853	86
315.083	97
315.312	84
315.542	90
315.771	90
316.001	84
316.23	89
316.46	91
316.689	80
316.919	85
317.148	86
317.377	91
317.607	93
317.836	88
318.065	92
318.295	77
318.524	77
318.753	85
318.983	90
319.212	100
319.441	92
319.67	90
319.9	96
320.129	79
320.358	86
320.587	88
320.816	98
321.046	104
321.275	80
321.504	91
321.733	80
321.962	72
322.191	79
322.42	77
322.649	87
322.878	87
323.108	87
323.337	93
323.566	95
323.795	104
324.024	77
324.253	85
324.482	93
324.71	74
324.939	94
325.168	74
325.397	84
325.626	95
325.855	77
326.084	92
326.313	91
326.542	67
326.77	93
326.999	96
327.228	75
327.457	96
327.686	86
327.914	80
328.143	93
328.372	91
328.6	88
328.829	87
329.058	90
329.287	102
329.515	96
329.744	93
329.972	96
330.201	91
330.43	96
330.658	107
330.887	88
331.115	82
331.344	81
331.572	79
331.801	73
332.03	89
332.258	96
332.486	79
332.715	88
332.943	88
333.172	82
333.4	81
333.629	82
333.857	81
334.085	83
334.314	77
334.542	86
334.771	86
334.999	82
335.227	87
335.455	97
335.684	77
335.912	86
336.14	79
336.369	86
336.597	92
336.825	103
337.053	88
337.281	89
337.51	96
337.738	87
337.966	89
338.194	83
338.422	80
338.65	93
338.878	75
339.106	95
339.334	95
339.562	100
339.79	87
340.018	83
340.246	96
340.474	87
340.702	97
340.93	81
341.158	81
341.386	77
341.614	88
341.842	81
342.07	77
342.298	80
342.526	84
342.754	78
342.981	99
343.209	93
343.437	113
343.665	88
343.893	84
344.12	88
344.348	95
344.576	84
344.804	83
345.031	74
345.259	86
345.487	86
345.714	87
345.942	78
346.17	88
346.397	82
346.625	88
346.853	92
347.08	88
347.308	90
347.535	80
347.763	79
347.99	77
348.218	90
348.445	95
348.673	74
348.9	101
349.128	91
349.355	80
349.583	92
349.81	78
350.037	76
350.265	99
350.492	81
350.72	96
350.947	99
351.174	83
351.402	80
351.629	71
351.856	63
352.083	80
352.311	74
352.538	86
352.765	91
352.992	88
353.22	89
353.447	89
353.674	93
353.901	85
354.128	89
354.355	85
354.583	85
354.81	85
355.037	86
355.264	82
355.491	91
355.718	80
355.945	78
356.172	89
356.399	97
356.626	67
356.853	84
357.08	87
357.307	84
357.534	93
357.761	90
357.988	98
358.215	85
358.441	86
358.668	100
358.895	78
359.122	92
359.349	97
359.576	90
359.802	71
360.029	101
360.256	89
360.483	91
360.709	82
360.936	91
361.163	80
361.39	88
361.616	91
361.843	89
362.07	95
362.296	65
362.523	92
362.749	110
362.976	77
363.203	92
363.429	103
363.656	81
363.882	87
364.109	78
364.335	80
364.562	82
364.788	78
365.015	78
365.241	91
365.468	94
365.694	85
365.92	90
366.147	73
366.373	96
366.599	98
366.826	91
367.052	88
367.278	86
367.505	102
367.731	98
367.957	101
368.184	82
368.41	92
368.636	102
368.862	100
369.089	82
369.315	78
369.541	99
369.767	96
369.993	98
370.219	96
370.445	93
370.672	97
370.898	107
371.124	86
371.35	108
371.576	101
371.802	86
372.028	93
372.254	97
372.48	94
372.706	92
372.932	98
373.158	89
373.384	98
373.61	93
373.835	92
374.061	90
374.287	106
374.513	100
374.739	89
374.965	95
375.191	89
375.416	95
375.642	86
375.868	96
376.094	100
376.319	87
376.545	85
376.771	89
376.997	92
377.222	96
377.448	90
377.674	103
377.899	96
378.125	97
378.35	92
378.576	93
378.802	93
379.027	88
379.253	100
379.478	92
379.704	96
379.929	85
380.155	96
380.38	102
380.606	105
380.831	109
381.057	104
381.282	92
381.507	83
381.733	90
381.958	113
382.184	95
382.409	91
382.634	85
382.86	105
383.085	113
383.31	92
383.535	103
383.761	104
383.986	90
384.211	89
384.436	104
384.662	103
384.887	100
385.112	100
385.337	107
385.562	104
385.787	80
386.013	111
386.238	108
386.463	110
386.688	101
386.913	116
387.138	95
387.363	94
387.588	106
387.813	111
388.038	109
388.263	104
388.488	105
388.713	101
388.938	95
389.163	97
389.387	102
389.612	99
389.837	109
390.062	97
390.287	111
390.512	98
390.736	97
390.961	112
391.186	107
391.411	108
391.636	97
391.86	113
392.085	124
392.31	110
392.534	105
392.759	120
392.984	99
393.208	96
393.433	105
393.658	102
393.882	108
394.107	98
394.331	101
394.556	110
394.78	95
395.005	102
395.229	93
395.454	105
395.678	100
395.903	116
396.127	116
396.352	101
396.576	108
396.801	118
397.025	102
397.249	118
397.474	110
397.698	105
397.922	116
398.147	92
398.371	111
398.595	104
398.82	109
399.044	129
399.268	88
399.492	108
399.717	94
399.941	112
400.165	121
400.389	113
400.613	122
400.837	112
401.062	113
401.286	104
401.51	109
401.734	102
401.958	114
402.182	118
402.406	111
402.63	112
402.854	107
403.078	125
403.302	110
403.526	111
403.75	120
403.974	108
404.198	120
404.422	112
404.645	107
404.869	113
405.093	122
405.317	112
405.541	122
405.765	116
405.988	113
406.212	112
406.436	110
406.66	115
406.883	138
407.107	120
407.331	109
407.555	104
407.778	111
408.002	113
408.226	106
408.449	110
408.673	120
408.896	125
409.12	105
409.344	114
409.567	117
409.791	126
410.014	116
410.238	113
410.461	120
410.685	106
410.908	114
411.132	121
411.355	120
411.578	120
411.802	120
412.025	113
412.249	113
412.472	132
412.695	120
412.919	112
413.142	110
413.365	133
413.589	125
413.812	122
414.035	113
414.258	114
414.482	134
414.705	118
414.928	118
415.151	122
415.374	127
415.597	110
415.821	116
416.044	128
416.267	128
416.49	115
416.713	130
416.936	124
417.159	103
417.382	120
417.605	142
417.828	127
418.051	132
418.274	122
418.497	132
418.72	135
418.943	127
419.166	130
419.389	142
419.611	131
419.834	144
420.057	130
420.28	135
420.503	134
420.726	132
420.948	130
421.171	130
421.394	138
421.617	140
421.839	146
422.062	145
422.285	154
422.507	128
422.73	125
422.953	132
423.175	124
423.398	121
423.621	130
423.843	121
424.066	135
424.288	130
424.511	128
424.733	152
424.956	143
425.178	143
425.401	140
425.623	151
425.846	152
426.068	134
426.291	134
426.513	138
426.735	129
426.958	139
427.18	132
427.402	127
427.625	129
427.847	127
428.069	124
428.292	110
428.514	134
428.736	130
428.958	130
429.181	127
429.403	139
429.625	134
429.847	125
430.069	118
430.292	132
430.514	124
430.736	131
430.958	127
431.18	128
431.402	140
431.624	121
431.846	106
432.068	104
432.29	94
432.512	105
432.734	129
432.956	132
433.178	143
433.4	131
433.622	132
433.844	141
434.066	129
434.287	128
434.509	92
434.731	102
434.953	104
435.175	124
435.397	120
435.618	114
435.84	97
436.062	116
436.284	123
436.505	129
436.727	140
436.949	144
437.17	124
437.392	135
437.614	134
437.835	122
438.057	113
438.278	130
438.5	126
438.721	131
438.943	125
439.165	136
439.386	136
439.608	135
439.829	149
440.05	155
440.272	154
440.493	136
440.715	130
440.936	146
441.158	148
441.379	144
441.6	131
441.822	129
442.043	161
442.264	145
442.486	140
442.707	132
442.928	131
443.149	127
443.371	135
443.592	141
443.813	140
444.034	130
444.255	138
444.476	154
444.698	159
444.919	153
445.14	262
445.361	213
445.582	158
445.803	165
446.024	157
446.245	155
446.466	152
446.687	141
446.908	160
447.129	133
447.35	163
447.571	156
447.792	141
448.013	145
448.234	141
448.455	143
448.675	160
448.896	142
449.117	116
449.338	129
449.559	126
449.779	154
450	123
450.221	134
450.442	156
450.662	156
450.883	136
451.104	126
451.324	133
451.545	137
451.766	139
451.986	132
452.207	119
452.428	128
452.648	139
452.869	120
453.089	124
453.31	114
453.53	122
453.751	113
453.971	107
454.192	109
454.412	114
454.633	119
454.853	128
455.073	126
455.294	132
455.514	123
455.734	129
455.955	122
456.175	110
456.395	126
456.616	119
456.836	104
457.056	118
457.276	110
457.497	111
457.717	110
457.937	114
458.157	113
458.377	110
458.598	125
458.818	97
459.038	94
459.258	103
459.478	89
459.698	108
459.918	112
460.138	123
460.358	113
460.578	112
460.798	115
461.018	108
461.238	120
461.458	120
461.678	112
461.898	114
462.118	118
462.338	120
462.558	122
462.777	111
462.997	126
463.217	115
463.437	101
463.657	120
463.876	114
464.096	125
464.316	110
464.536	110
464.755	110
464.975	105
465.195	98
465.414	114
465.634	105
465.854	107
466.073	119
466.293	122
466.512	128
466.732	129
466.951	127
467.171	140
467.391	130
467.61	147
467.829	123
468.049	130
468.268	129
468.488	143
468.707	141
468.927	141
469.146	146
469.365	132
469.585	143
469.804	137
470.023	146
470.243	142
470.462	136
470.681	145
470.901	147
471.12	140
471.339	148
471.558	144
471.777	134
471.997	152
472.216	134
472.435	126
472.654	100
472.873	113
473.092	124
473.311	126
473.53	120
473.749	115
473.968	140
474.187	128
474.406	120
474.625	124
474.844	132
475.063	141
475.282	138
475.501	123
475.72	122
475.939	123
476.158	129
476.377	129
476.596	132
476.814	115
477.033	124
477.252	112
477.471	136
477.69	132
477.908	123
478.127	128
478.346	138
478.564	141
478.783	130
479.002	126
479.22	136
479.439	127
479.658	127
479.876	119
480.095	119
480.313	121
480.532	122
480.751	108
480.969	106
481.188	98
481.406	103
481.624	97
481.843	92
482.061	114
482.28	102
482.498	122
482.717	99
482.935	119
483.153	138
483.372	159
483.59	130
483.808	147
484.027	146
484.245	129
484.463	135
484.681	164
484.9	150
485.118	150
485.336	143
485.554	101
485.772	90
485.99	92
486.209	112
486.427	106
486.645	122
486.863	125
487.081	133
487.299	138
487.517	152
487.735	160
487.953	175
488.171	181
488.389	174
488.607	148
488.825	144
489.043	131
489.261	128
489.479	139
489.696	139
489.914	132
490.132	137
490.35	177
490.568	164
490.786	171
491.003	163
491.221	186
491.439	177
491.657	182
491.874	189
492.092	211
492.31	234
492.527	244
492.745	226
492.963	183
493.18	198
493.398	174
493.615	173
493.833	182
494.05	187
494.268	181
494.485	172
494.703	175
494.92	175
495.138	171
495.355	161
495.573	180
495.79	174
496.008	166
496.225	185
496.442	167
496.66	156
496.877	143
497.094	161
497.312	157
497.529	175
497.746	159
497.963	129
498.181	127
498.398	144
498.615	116
498.832	129
499.049	129
499.267	125
499.484	138
499.701	147
499.918	142
500.135	137
500.352	146
500.569	145
500.786	146
501.003	149
501.22	128
501.437	142
501.654	127
501.871	122
502.088	129
502.305	142
502.522	128
502.739	136
502.956	145
503.172	106
503.389	116
503.606	118
503.823	121
504.04	128
504.256	124
504.473	110
504.69	124
504.907	128
505.123	127
505.34	117
505.557	127
505.773	125
505.99	122
506.207	136
506.423	118
506.64	132
506.856	124
507.073	130
507.289	120
507.506	114
507.722	103
507.939	123
508.155	128
508.372	120
508.588	116
508.805	119
509.021	120
509.238	122
509.454	99
509.67	95
509.887	105
510.103	101
510.319	94
510.536	93
510.752	81
510.968	102
511.184	98
511.401	89
511.617	92
511.833	95
512.049	102
512.265	106
512.481	88
512.698	100
512.914	99
513.13	90
513.346	92
513.562	86
513.778	82
513.994	87
514.21	88
514.426	91
514.642	92
514.858	90
515.074	81
515.29	96
515.506	92
515.721	93
515.937	93
516.153	91
516.369	85
516.585	80
516.801	61
517.016	73
517.232	100
517.448	100
517.664	78
517.879	93
518.095	86
518.311	89
518.527	89
518.742	93
518.958	98
519.173	101
519.389	111
519.605	105
519.82	110
520.036	101
520.251	104
520.467	103
520.682	94
520.898	95
521.113	90
521.329	93
521.544	93
521.76	83
521.975	90
522.19	100
522.406	106
522.621	90
522.836	111
523.052	113
523.267	126
523.482	116
523.698	125
523.913	108
524.128	109
524.343	124
524.559	120
524.774	121
524.989	119
525.204	128
525.419	121
525.634	112
525.849	100
526.064	115
526.28	127
526.495	100
526.71	92
526.925	82
527.14	100
527.355	72
527.57	92
527.785	81
527.999	104
528.214	104
528.429	106
528.644	120
528.859	128
529.074	150
529.289	159
529.503	158
529.718	142
529.933	114
530.148	118
530.363	92
530.577	79
530.792	72
531.007	79
531.221	86
531.436	78
531.651	79
531.865	92
532.08	84
532.295	87
532.509	92
532.724	82
532.938	105
533.153	98
533.367	117
533.582	138
533.796	120
534.011	111
534.225	101
534.44	87
534.654	97
534.868	92
535.083	105
535.297	116
535.511	105
535.726	124
535.94	103
536.154	110
536.369	96
536.583	87
536.797	89
537.011	82
537.225	90
537.44	97
537.654	98
537.868	99
538.082	80
538.296	88
538.51	106
538.724	128
538.938	123
539.153	114
539.367	126
539.581	110
539.795	125
540.009	108
540.222	80
540.436	111
540.65	122
540.864	132
541.078	152
541.292	150
541.506	161
541.72	166
541.934	184
542.147	200
542.361	167
542.575	166
542.789	154
543.002	142
543.216	120
543.43	122
543.644	136
543.857	143
544.071	153
544.285	147
544.498	144
544.712	159
544.925	169
545.139	156
545.352	153
545.566	145
545.779	157
545.993	150
546.206	148
546.42	152
546.633	163
546.847	170
547.06	160
547.274	163
547.487	163
547.7	170
547.914	177
548.127	159
548.34	146
548.554	149
548.767	145
548.98	144
549.193	150
549.407	160
549.62	148
549.833	148
550.046	140
550.259	157
550.473	159
550.686	145
550.899	156
551.112	139
551.325	139
551.538	135
551.751	128
551.964	122
552.177	123
552.39	148
552.603	141
552.816	148
553.029	151
553.242	156
553.455	164
553.667	156
553.88	162
554.093	146
554.306	153
554.519	147
554.732	140
554.944	129
555.157	151
555.37	135
555.583	150
555.795	139
556.008	132
556.221	136
556.433	145
556.646	139
556.859	129
557.071	132
557.284	125
557.496	142
557.709	140
557.921	146
558.134	134
558.346	146
558.559	152
558.771	147
558.984	139
559.196	134
559.409	146
559.621	126
559.833	126
560.046	130
560.258	127
560.47	127
560.683	136
560.895	129
561.107	130
561.32	130
561.532	134
561.744	132
561.956	133
562.168	143
562.381	117
562.593	116
562.805	155
563.017	133
563.229	119
563.441	128
563.653	139
563.865	119
564.077	131
564.289	134
564.501	123
564.713	130
564.925	107
565.137	120
565.349	127
565.561	126
565.773	129
565.985	115
566.197	121
566.408	120
566.62	120
566.832	121
567.044	110
567.255	109
567.467	117
567.679	98
567.891	113
568.102	101
568.314	98
568.526	98
568.737	103
568.949	86
569.161	100
569.372	80
569.584	88
569.795	101
570.007	76
570.218	85
570.43	80
570.641	91
570.853	98
571.064	121
571.276	98
571.487	108
571.698	107
571.91	93
572.121	105
572.333	101
572.544	86
572.755	92
572.966	88
573.178	91
573.389	88
573.6	80
573.811	88
574.023	100
574.234	94
574.445	73
574.656	97
574.867	92
575.078	74
575.289	97
575.501	94
575.712	101
575.923	88
576.134	97
576.345	95
576.556	97
576.767	102
576.978	99
577.188	95
577.399	105
577.61	100
577.821	101
578.032	113
578.243	92
578.454	89
578.665	83
578.875	90
579.086	86
579.297	82
579.508	93
579.718	92
579.929	88
580.14	85
580.35	80
580.561	88
580.772	89
580.982	98
581.193	87
581.403	104
581.614	116
581.825	106
582.035	74
582.246	100
582.456	105
582.667	91
582.877	91
583.087	90
583.298	80
583.508	93
583.719	100
583.929	84
584.139	89
584.35	90
584.56	74
584.77	93
584.981	82
585.191	91
585.401	91
585.611	105
585.821	92
586.032	84
586.242	94
586.452	79
586.662	90
586.872	94
587.082	76
587.292	95
587.502	96
587.713	85
587.923	103
588.133	72
588.343	82
588.553	75
588.762	92
588.972	88
589.182	92
589.392	89
589.602	91
589.812	82
590.022	95
590.232	95
590.441	97
590.651	77
590.861	78
591.071	89
591.281	78
591.49	97
591.7	100
591.91	88
592.119	82
592.329	77
592.539	84
592.748	106
592.958	84
593.167	80
593.377	64
593.587	87
593.796	93
594.006	88
594.215	97
594.424	99
594.634	92
594.843	98
595.053	102
595.262	88
595.472	94
595.681	84
595.89	86
596.1	94
596.309	100
596.518	90
596.727	105
596.937	101
597.146	103
597.355	97
597.564	79
597.774	105
597.983	89
598.192	105
598.401	90
598.61	91
598.819	87
599.028	87
599.237	93
599.446	91
599.655	100
599.864	101
600.073	96
600.282	84
600.491	88
600.7	94
600.909	96
601.118	102
601.327	97
601.536	98
601.745	117
601.953	108
602.162	104
602.371	106
602.58	115
602.789	107
602.997	112
603.206	99
603.415	119
603.623	100
603.832	118
604.041	125
604.249	113
604.458	105
604.666	109
604.875	86
605.084	92
605.292	97
605.501	109
605.709	110
605.918	94
606.126	136
606.334	102
606.543	115
606.751	110
606.96	124
607.168	113
607.376	113
607.585	123
607.793	122
608.001	117
608.21	109
608.418	113
608.626	118
608.834	104
609.043	106
609.251	124
609.459	116
609.667	120
609.875	114
610.083	117
610.291	121
610.499	108
610.707	118
610.916	109
611.124	105
611.332	101
611.54	97
611.748	110
611.955	109
612.163	108
612.371	117
612.579	121
612.787	106
612.995	121
613.203	120
613.411	121
613.618	125
613.826	111
614.034	105
614.242	110
614.449	117
614.657	104
614.865	119
615.072	95
615.28	116
615.488	104
615.695	115
615.903	109
616.111	103
616.318	126
616.526	118
616.733	119
616.941	124
617.148	105
617.356	111
617.563	128
617.771	101
617.978	110
618.185	106
618.393	105
618.6	113
618.807	123
619.015	122
619.222	104
619.429	125
619.637	112
619.844	96
620.051	107
620.258	94
620.466	117
620.673	104
620.88	105
621.087	113
621.294	121
621.501	96
621.708	102
621.915	102
622.122	97
622.329	105
622.536	121
622.743	104
622.95	126
623.157	112
623.364	120
623.571	104
623.778	101
623.985	112
624.192	97
624.399	97
624.606	98
624.812	110
625.019	124
625.226	108
625.433	114
625.639	116
625.846	86
626.053	94
626.259	104
626.466	114
626.673	98
626.879	98
627.086	90
627.293	112
627.499	105
627.706	117
627.912	100
628.119	94
628.325	107
628.532	119
628.738	95
628.945	106
629.151	101
629.357	107
629.564	107
629.77	97
629.976	98
630.183	106
630.389	104
630.595	103
630.802	126
631.008	113
631.214	109
631.42	108
631.627	109
631.833	91
632.039	104
632.245	97
632.451	122
632.657	116
632.863	120
633.069	112
633.275	105
633.481	101
633.688	113
633.893	86
634.099	110
634.305	83
634.511	105
634.717	102
634.923	100
635.129	103
635.335	101
635.541	82
635.747	98
635.952	95
636.158	103
636.364	108
636.57	101
636.775	101
636.981	96
637.187	101
637.392	113
637.598	91
637.804	104
638.009	102
638.215	103
638.421	104
638.626	92
638.832	94
639.037	107
639.243	100
639.448	112
639.654	87
639.859	98
640.065	92
640.27	120
640.475	94
640.681	90
640.886	93
641.091	96
641.297	109
641.502	102
641.707	106
641.913	100
642.118	97
642.323	112
642.528	107
642.733	110
642.939	117
643.144	104
643.349	104
643.554	101
643.759	91
643.964	98
644.169	97
644.374	98
644.579	97
644.784	97
644.989	109
645.194	93
645.399	103
645.604	100
645.809	118
646.014	90
646.219	92
646.423	98
646.628	106
646.833	113
647.038	107
647.243	95
647.447	96
647.652	103
647.857	89
648.062	98
648.266	89
648.471	91
648.676	96
648.88	103
649.085	106
649.289	101
649.494	90
649.698	107
649.903	94
650.107	95
650.312	111
650.516	87
650.721	96
650.925	94
651.13	100
651.334	112
651.539	97
651.743	93
651.947	89
652.152	113
652.356	99
652.56	104
652.764	94
652.969	97
653.173	98
653.377	80
653.581	104
653.785	93
653.99	93
654.194	89
654.398	100
654.602	78
654.806	98
655.01	98
655.214	98
655.418	105
655.622	102
655.826	82
656.03	93
656.234	103
656.438	91
656.642	96
656.846	98
657.049	87
657.253	88
657.457	103
657.661	97
657.865	86
658.068	95
658.272	86
658.476	87
658.68	77
658.883	81
659.087	77
659.291	93
659.494	90
659.698	90
659.901	105
660.105	84
660.309	83
660.512	72
660.716	80
660.919	82
661.123	82
661.326	70
661.53	74
661.733	90
661.936	93
662.14	88
662.343	78
662.546	77
662.75	77
662.953	94
663.156	82
663.36	75
663.563	74
663.766	97
663.969	79
664.173	92
664.376	90
664.579	86
664.782	85
664.985	80
665.188	89
665.391	82
665.594	88
665.797	70
666	90
666.203	91
666.406	82
666.609	90
666.812	77
667.015	84
667.218	93
667.421	92
667.624	94
667.827	83
668.03	70
668.232	79
668.435	75
668.638	79
668.841	82
669.043	83
669.246	82
669.449	86
669.651	97
669.854	83
670.057	77
670.259	88
670.462	82
670.665	68
670.867	95
671.07	80
671.272	79
671.475	87
671.677	86
671.88	89
672.082	86
672.284	81
672.487	74
672.689	83
672.892	77
