Data from Location1.07152019.Energy5.Lamp.07192019.3%Agarose_HRD10591_14-31-24-016.txt Node
Date: Fri Jul 19 14:31:24 EDT 2019
User: cochatt
Spectrometer: HR+D1059
Trigger mode: 1
Integration Time (sec): 1.000000E-1
Scans to average: 1
Electric dark correction enabled: true
Nonlinearity correction enabled: false
Boxcar width: 0
XAxis mode: Wavelengths
Number of Pixels in Spectrum: 2048
>>>>>Begin Spectral Data<<<<<
223.165	-7
223.4	-7
223.635	-7
223.869	-12
224.104	-12
224.338	-17
224.573	-12
224.808	-7
225.042	-10
225.277	-11
225.511	-4
225.746	-5
225.98	10
226.215	13
226.449	10
226.683	18
226.918	22
227.152	24
227.387	39
227.621	43
227.856	55
228.09	51
228.324	49
228.559	51
228.793	71
229.027	80
229.262	69
229.496	75
229.73	65
229.964	76
230.199	67
230.433	74
230.667	81
230.901	79
231.136	70
231.37	84
231.604	81
231.838	75
232.072	83
232.306	76
232.541	72
232.775	78
233.009	92
233.243	82
233.477	86
233.711	91
233.945	89
234.179	91
234.413	84
234.647	87
234.881	80
235.115	69
235.349	97
235.583	92
235.817	80
236.051	71
236.285	64
236.519	84
236.753	72
236.987	96
237.221	80
237.455	79
237.689	68
237.922	75
238.156	86
238.39	73
238.624	77
238.858	74
239.091	88
239.325	85
239.559	86
239.793	75
240.027	76
240.26	81
240.494	90
240.728	67
240.961	81
241.195	78
241.429	77
241.662	87
241.896	84
242.13	63
242.363	70
242.597	72
242.83	84
243.064	85
243.298	87
243.531	77
243.765	79
243.998	85
244.232	79
244.465	89
244.699	74
244.932	83
245.166	77
245.399	73
245.633	95
245.866	76
246.099	87
246.333	74
246.566	82
246.8	78
247.033	87
247.266	77
247.5	89
247.733	81
247.966	87
248.2	90
248.433	88
248.666	91
248.899	92
249.133	81
249.366	81
249.599	79
249.832	72
250.066	79
250.299	89
250.532	96
250.765	69
250.998	79
251.231	73
251.465	84
251.698	79
251.931	91
252.164	84
252.397	85
252.63	72
252.863	93
253.096	72
253.329	87
253.562	80
253.795	69
254.028	81
254.261	89
254.494	95
254.727	81
254.96	96
255.193	73
255.426	73
255.659	78
255.892	85
256.124	75
256.357	73
256.59	90
256.823	91
257.056	71
257.289	84
257.521	79
257.754	79
257.987	72
258.22	92
258.452	84
258.685	85
258.918	84
259.151	82
259.383	82
259.616	82
259.849	78
260.081	100
260.314	95
260.547	81
260.779	80
261.012	76
261.244	95
261.477	95
261.71	82
261.942	79
262.175	75
262.407	86
262.64	90
262.872	92
263.105	79
263.337	88
263.57	73
263.802	100
264.035	82
264.267	87
264.499	88
264.732	88
264.964	77
265.197	89
265.429	96
265.661	96
265.894	74
266.126	84
266.358	75
266.591	81
266.823	103
267.055	68
267.287	69
267.52	84
267.752	90
267.984	100
268.216	79
268.448	86
268.681	73
268.913	90
269.145	97
269.377	89
269.609	95
269.841	94
270.073	72
270.306	77
270.538	90
270.77	97
271.002	85
271.234	84
271.466	82
271.698	86
271.93	86
272.162	86
272.394	95
272.626	85
272.858	86
273.09	79
273.322	95
273.553	103
273.785	84
274.017	86
274.249	77
274.481	85
274.713	88
274.945	76
275.176	85
275.408	86
275.64	89
275.872	70
276.104	87
276.335	85
276.567	78
276.799	84
277.031	98
277.262	99
277.494	85
277.726	90
277.957	80
278.189	89
278.421	90
278.652	88
278.884	105
279.115	87
279.347	88
279.579	69
279.81	75
280.042	91
280.273	91
280.505	88
280.736	81
280.968	104
281.199	87
281.431	85
281.662	78
281.894	88
282.125	81
282.356	75
282.588	73
282.819	95
283.051	94
283.282	91
283.513	78
283.745	80
283.976	86
284.207	98
284.439	87
284.67	80
284.901	89
285.132	84
285.364	89
285.595	82
285.826	95
286.057	95
286.288	72
286.52	91
286.751	90
286.982	72
287.213	90
287.444	77
287.675	92
287.906	81
288.138	81
288.369	85
288.6	81
288.831	87
289.062	86
289.293	94
289.524	85
289.755	88
289.986	84
290.217	88
290.448	92
290.679	87
290.91	94
291.141	86
291.371	94
291.602	85
291.833	87
292.064	93
292.295	85
292.526	87
292.757	92
292.987	93
293.218	89
293.449	83
293.68	87
293.91	96
294.141	89
294.372	99
294.603	88
294.833	88
295.064	95
295.295	96
295.525	81
295.756	98
295.987	85
296.217	76
296.448	79
296.679	89
296.909	97
297.14	107
297.37	80
297.601	79
297.831	85
298.062	91
298.292	88
298.523	99
298.753	92
298.984	99
299.214	85
299.445	87
299.675	71
299.905	91
300.136	93
300.366	80
300.597	89
300.827	82
301.057	81
301.288	85
301.518	90
301.748	70
301.979	95
302.209	85
302.439	95
302.669	88
302.9	85
303.13	87
303.36	86
303.59	78
303.82	83
304.051	91
304.281	75
304.511	88
304.741	76
304.971	85
305.201	80
305.431	81
305.661	86
305.891	84
306.121	71
306.352	81
306.582	88
306.812	85
307.042	91
307.272	69
307.502	86
307.731	89
307.961	90
308.191	88
308.421	88
308.651	97
308.881	86
309.111	95
309.341	88
309.571	85
309.8	86
310.03	85
310.26	83
310.49	86
310.72	85
310.949	78
311.179	81
311.409	90
311.639	103
311.868	83
312.098	94
312.328	89
312.557	91
312.787	75
313.017	92
313.246	81
313.476	92
313.706	67
313.935	93
314.165	78
314.394	79
314.624	96
314.853	108
315.083	85
315.312	84
315.542	97
315.771	102
316.001	93
316.23	75
316.46	111
316.689	81
316.919	85
317.148	80
317.377	87
317.607	92
317.836	97
318.065	87
318.295	88
318.524	87
318.753	89
318.983	102
319.212	98
319.441	83
319.67	91
319.9	75
320.129	77
320.358	89
320.587	96
320.816	91
321.046	88
321.275	81
321.504	92
321.733	90
321.962	93
322.191	78
322.42	78
322.649	84
322.878	85
323.108	93
323.337	85
323.566	88
323.795	91
324.024	73
324.253	86
324.482	101
324.71	89
324.939	87
325.168	85
325.397	89
325.626	84
325.855	87
326.084	78
326.313	87
326.542	89
326.77	90
326.999	78
327.228	95
327.457	84
327.686	95
327.914	87
328.143	80
328.372	100
328.6	88
328.829	88
329.058	89
329.287	71
329.515	91
329.744	93
329.972	97
330.201	95
330.43	98
330.658	75
330.887	86
331.115	102
331.344	85
331.572	88
331.801	92
332.03	83
332.258	89
332.486	101
332.715	99
332.943	92
333.172	89
333.4	88
333.629	92
333.857	94
334.085	82
334.314	90
334.542	94
334.771	77
334.999	88
335.227	78
335.455	82
335.684	102
335.912	90
336.14	81
336.369	85
336.597	83
336.825	93
337.053	95
337.281	78
337.51	93
337.738	100
337.966	104
338.194	87
338.422	92
338.65	87
338.878	82
339.106	71
339.334	97
339.562	84
339.79	81
340.018	77
340.246	95
340.474	73
340.702	74
340.93	93
341.158	86
341.386	101
341.614	101
341.842	99
342.07	80
342.298	86
342.526	80
342.754	83
342.981	73
343.209	79
343.437	94
343.665	90
343.893	85
344.12	92
344.348	78
344.576	74
344.804	84
345.031	88
345.259	88
345.487	81
345.714	84
345.942	94
346.17	78
346.397	84
346.625	91
346.853	89
347.08	76
347.308	92
347.535	79
347.763	89
347.99	104
348.218	87
348.445	78
348.673	77
348.9	70
349.128	105
349.355	109
349.583	102
349.81	92
350.037	87
350.265	88
350.492	98
350.72	89
350.947	88
351.174	90
351.402	88
351.629	87
351.856	77
352.083	80
352.311	97
352.538	90
352.765	91
352.992	72
353.22	102
353.447	79
353.674	101
353.901	94
354.128	89
354.355	101
354.583	84
354.81	86
355.037	100
355.264	94
355.491	91
355.718	91
355.945	92
356.172	91
356.399	79
356.626	87
356.853	81
357.08	87
357.307	93
357.534	83
357.761	83
357.988	85
358.215	84
358.441	80
358.668	77
358.895	95
359.122	86
359.349	82
359.576	85
359.802	87
360.029	86
360.256	79
360.483	96
360.709	75
360.936	88
361.163	91
361.39	75
361.616	87
361.843	88
362.07	95
362.296	85
362.523	88
362.749	92
362.976	71
363.203	88
363.429	95
363.656	95
363.882	91
364.109	88
364.335	98
364.562	88
364.788	80
365.015	86
365.241	78
365.468	85
365.694	91
365.92	87
366.147	93
366.373	87
366.599	96
366.826	104
367.052	95
367.278	89
367.505	92
367.731	89
367.957	95
368.184	75
368.41	75
368.636	99
368.862	109
369.089	100
369.315	95
369.541	104
369.767	85
369.993	96
370.219	97
370.445	105
370.672	91
370.898	100
371.124	87
371.35	100
371.576	102
371.802	93
372.028	89
372.254	75
372.48	74
372.706	99
372.932	107
373.158	105
373.384	96
373.61	95
373.835	87
374.061	82
374.287	88
374.513	82
374.739	92
374.965	97
375.191	94
375.416	93
375.642	95
375.868	90
376.094	104
376.319	87
376.545	90
376.771	92
376.997	94
377.222	115
377.448	103
377.674	94
377.899	94
378.125	98
378.35	99
378.576	90
378.802	96
379.027	100
379.253	93
379.478	88
379.704	112
379.929	95
380.155	106
380.38	108
380.606	105
380.831	104
381.057	84
381.282	96
381.507	97
381.733	106
381.958	121
382.184	95
382.409	119
382.634	119
382.86	109
383.085	95
383.31	77
383.535	83
383.761	90
383.986	91
384.211	88
384.436	97
384.662	107
384.887	103
385.112	87
385.337	99
385.562	99
385.787	96
386.013	107
386.238	98
386.463	107
386.688	106
386.913	77
387.138	94
387.363	102
387.588	101
387.813	102
388.038	106
388.263	107
388.488	119
388.713	97
388.938	102
389.163	105
389.387	93
389.612	92
389.837	106
390.062	111
390.287	100
390.512	107
390.736	109
390.961	105
391.186	100
391.411	105
391.636	100
391.86	107
392.085	109
392.31	111
392.534	118
392.759	109
392.984	106
393.208	122
393.433	103
393.658	108
393.882	107
394.107	109
394.331	98
394.556	100
394.78	115
395.005	114
395.229	112
395.454	116
395.678	107
395.903	129
396.127	114
396.352	102
396.576	110
396.801	100
397.025	102
397.249	116
397.474	115
397.698	115
397.922	107
398.147	107
398.371	97
398.595	108
398.82	104
399.044	104
399.268	99
399.492	104
399.717	123
399.941	104
400.165	115
400.389	106
400.613	102
400.837	92
401.062	110
401.286	119
401.51	106
401.734	123
401.958	118
402.182	110
402.406	118
402.63	119
402.854	96
403.078	120
403.302	105
403.526	119
403.75	101
403.974	113
404.198	123
404.422	131
404.645	119
404.869	107
405.093	125
405.317	97
405.541	112
405.765	117
405.988	108
406.212	117
406.436	119
406.66	109
406.883	136
407.107	127
407.331	112
407.555	115
407.778	111
408.002	105
408.226	132
408.449	123
408.673	119
408.896	119
409.12	131
409.344	116
409.567	126
409.791	121
410.014	120
410.238	122
410.461	126
410.685	118
410.908	96
411.132	121
411.355	130
411.578	120
411.802	130
412.025	123
412.249	111
412.472	111
412.695	105
412.919	102
413.142	113
413.365	120
413.589	121
413.812	126
414.035	140
414.258	121
414.482	131
414.705	119
414.928	130
415.151	149
415.374	123
415.597	133
415.821	136
416.044	138
416.267	123
416.49	133
416.713	127
416.936	126
417.159	117
417.382	130
417.605	122
417.828	131
418.051	117
418.274	127
418.497	139
418.72	135
418.943	131
419.166	130
419.389	123
419.611	134
419.834	131
420.057	126
420.28	126
420.503	147
420.726	132
420.948	136
421.171	133
421.394	121
421.617	133
421.839	142
422.062	131
422.285	123
422.507	131
422.73	137
422.953	133
423.175	131
423.398	124
423.621	134
423.843	142
424.066	138
424.288	152
424.511	137
424.733	133
424.956	144
425.178	144
425.401	129
425.623	135
425.846	129
426.068	133
426.291	135
426.513	126
426.735	133
426.958	149
427.18	133
427.402	148
427.625	128
427.847	133
428.069	131
428.292	125
428.514	123
428.736	119
428.958	133
429.181	134
429.403	109
429.625	128
429.847	127
430.069	129
430.292	134
430.514	136
430.736	133
430.958	125
431.18	127
431.402	111
431.624	106
431.846	109
432.068	108
432.29	123
432.512	119
432.734	117
432.956	127
433.178	134
433.4	129
433.622	138
433.844	135
434.066	124
434.287	101
434.509	107
434.731	100
434.953	115
435.175	117
435.397	118
435.618	112
435.84	112
436.062	110
436.284	131
436.505	133
436.727	127
436.949	137
437.17	131
437.392	142
437.614	134
437.835	109
438.057	109
438.278	107
438.5	124
438.721	119
438.943	145
439.165	137
439.386	134
439.608	139
439.829	149
440.05	154
440.272	118
440.493	142
440.715	143
440.936	142
441.158	145
441.379	138
441.6	139
441.822	136
442.043	146
442.264	144
442.486	137
442.707	142
442.928	107
443.149	134
443.371	145
443.592	121
443.813	137
444.034	133
444.255	146
444.476	131
444.698	145
444.919	159
445.14	256
445.361	206
445.582	147
445.803	141
446.024	165
446.245	149
446.466	164
446.687	155
446.908	153
447.129	153
447.35	153
447.571	164
447.792	131
448.013	138
448.234	167
448.455	141
448.675	139
448.896	140
449.117	144
449.338	145
449.559	141
449.779	141
450	116
450.221	143
450.442	126
450.662	138
450.883	136
451.104	143
451.324	134
451.545	128
451.766	107
451.986	125
452.207	118
452.428	131
452.648	125
452.869	136
453.089	101
453.31	117
453.53	119
453.751	117
453.971	106
454.192	117
454.412	112
454.633	125
454.853	133
455.073	118
455.294	115
455.514	148
455.734	131
455.955	115
456.175	124
456.395	119
456.616	123
456.836	103
457.056	107
457.276	109
457.497	116
457.717	107
457.937	107
458.157	98
458.377	103
458.598	97
458.818	110
459.038	105
459.258	88
459.478	93
459.698	101
459.918	112
460.138	96
460.358	132
460.578	122
460.798	114
461.018	115
461.238	118
461.458	102
461.678	117
461.898	113
462.118	115
462.338	113
462.558	125
462.777	123
462.997	115
463.217	101
463.437	112
463.657	108
463.876	109
464.096	111
464.316	99
464.536	101
464.755	110
464.975	131
465.195	118
465.414	116
465.634	112
465.854	104
466.073	107
466.293	101
466.512	121
466.732	137
466.951	140
467.171	137
467.391	131
467.61	129
467.829	140
468.049	140
468.268	126
468.488	140
468.707	131
468.927	138
469.146	126
469.365	131
469.585	137
469.804	134
470.023	144
470.243	131
470.462	135
470.681	133
470.901	124
471.12	138
471.339	150
471.558	130
471.777	130
471.997	123
472.216	131
472.435	100
472.654	114
472.873	113
473.092	119
473.311	110
473.53	125
473.749	127
473.968	124
474.187	116
474.406	125
474.625	127
474.844	129
475.063	124
475.282	131
475.501	133
475.72	105
475.939	118
476.158	131
476.377	124
476.596	110
476.814	124
477.033	109
477.252	111
477.471	123
477.69	133
477.908	132
478.127	150
478.346	135
478.564	124
478.783	137
479.002	133
479.22	133
479.439	127
479.658	112
479.876	99
480.095	109
480.313	115
480.532	120
480.751	111
480.969	102
481.188	92
481.406	90
481.624	94
481.843	94
482.061	95
482.28	110
482.498	118
482.717	122
482.935	128
483.153	142
483.372	133
483.59	153
483.808	146
484.027	128
484.245	135
484.463	119
484.681	150
484.9	142
485.118	142
485.336	130
485.554	122
485.772	95
485.99	99
486.209	120
486.427	129
486.645	118
486.863	148
487.081	143
487.299	127
487.517	133
487.735	181
487.953	173
488.171	202
488.389	183
488.607	159
488.825	149
489.043	152
489.261	131
489.479	155
489.696	147
489.914	153
490.132	144
490.35	157
490.568	143
490.786	168
491.003	171
491.221	167
491.439	191
491.657	190
491.874	207
492.092	221
492.31	244
492.527	237
492.745	199
492.963	199
493.18	192
493.398	183
493.615	167
493.833	183
494.05	163
494.268	167
494.485	176
494.703	175
494.92	191
495.138	158
495.355	177
495.573	176
495.79	168
496.008	155
496.225	173
496.442	171
496.66	183
496.877	157
497.094	163
497.312	161
497.529	165
497.746	158
497.963	151
498.181	144
498.398	136
498.615	115
498.832	119
499.049	103
499.267	119
499.484	107
499.701	128
499.918	131
500.135	151
500.352	140
500.569	141
500.786	152
501.003	147
501.22	136
501.437	136
501.654	128
501.871	129
502.088	119
502.305	135
502.522	122
502.739	141
502.956	126
503.172	121
503.389	123
503.606	121
503.823	114
504.04	91
504.256	111
504.473	112
504.69	115
504.907	127
505.123	114
505.34	109
505.557	125
505.773	137
505.99	124
506.207	116
506.423	119
506.64	124
506.856	127
507.073	110
507.289	108
507.506	123
507.722	119
507.939	116
508.155	103
508.372	111
508.588	111
508.805	103
509.021	101
509.238	116
509.454	99
509.67	108
509.887	99
510.103	108
510.319	76
510.536	101
510.752	95
510.968	90
511.184	75
511.401	90
511.617	107
511.833	85
512.049	91
512.265	86
512.481	92
512.698	94
512.914	88
513.13	104
513.346	83
513.562	80
513.778	102
513.994	100
514.21	95
514.426	83
514.642	92
514.858	101
515.074	90
515.29	92
515.506	86
515.721	97
515.937	109
516.153	94
516.369	89
516.585	87
516.801	72
517.016	87
517.232	82
517.448	108
517.664	94
517.879	91
518.095	102
518.311	99
518.527	96
518.742	94
518.958	103
519.173	101
519.389	104
519.605	115
519.82	123
520.036	84
520.251	107
520.467	110
520.682	94
520.898	107
521.113	101
521.329	96
521.544	93
521.76	96
521.975	92
522.19	94
522.406	93
522.621	102
522.836	101
523.052	99
523.267	109
523.482	102
523.698	124
523.913	133
524.128	124
524.343	119
524.559	127
524.774	104
524.989	139
525.204	133
525.419	107
525.634	100
525.849	106
526.064	97
526.28	115
526.495	115
526.71	94
526.925	92
527.14	83
527.355	86
527.57	100
527.785	91
527.999	99
528.214	109
528.429	109
528.644	130
528.859	123
529.074	151
529.289	142
529.503	155
529.718	129
529.933	117
530.148	108
530.363	108
530.577	79
530.792	96
531.007	77
531.221	81
531.436	87
531.651	91
531.865	87
532.08	85
532.295	91
532.509	103
532.724	84
532.938	104
533.153	96
533.367	113
533.582	117
533.796	125
534.011	119
534.225	105
534.44	92
534.654	100
534.868	92
535.083	113
535.297	105
535.511	103
535.726	106
535.94	89
536.154	95
536.369	85
536.583	84
536.797	97
537.011	88
537.225	97
537.44	90
537.654	98
537.868	95
538.082	91
538.296	97
538.51	112
538.724	134
538.938	125
539.153	116
539.367	108
539.581	114
539.795	111
540.009	111
540.222	91
540.436	117
540.65	127
540.864	121
541.078	126
541.292	151
541.506	160
541.72	164
541.934	197
542.147	193
542.361	183
542.575	155
542.789	153
543.002	142
543.216	146
543.43	133
543.644	131
543.857	144
544.071	146
544.285	151
544.498	157
544.712	171
544.925	151
545.139	144
545.352	156
545.566	167
545.779	167
545.993	154
546.206	149
546.42	150
546.633	151
546.847	167
547.06	149
547.274	181
547.487	156
547.7	166
547.914	161
548.127	162
548.34	151
548.554	174
548.767	163
548.98	157
549.193	150
549.407	150
549.62	159
549.833	150
550.046	153
550.259	155
550.473	151
550.686	168
550.899	155
551.112	146
551.325	138
551.538	128
551.751	130
551.964	123
552.177	135
552.39	132
552.603	148
552.816	162
553.029	154
553.242	158
553.455	158
553.667	149
553.88	153
554.093	164
554.306	152
554.519	149
554.732	146
554.944	132
555.157	139
555.37	127
555.583	152
555.795	141
556.008	148
556.221	132
556.433	126
556.646	135
556.859	138
557.071	131
557.284	144
557.496	147
557.709	145
557.921	148
558.134	139
558.346	134
558.559	131
558.771	125
558.984	133
559.196	128
559.409	126
559.621	121
559.833	120
560.046	145
560.258	138
560.47	139
560.683	146
560.895	133
561.107	126
561.32	138
561.532	127
561.744	135
561.956	141
562.168	128
562.381	126
562.593	117
562.805	136
563.017	134
563.229	127
563.441	97
563.653	106
563.865	117
564.077	123
564.289	146
564.501	121
564.713	124
564.925	120
565.137	127
565.349	109
565.561	117
565.773	104
565.985	114
566.197	133
566.408	131
566.62	122
566.832	135
567.044	116
567.255	137
567.467	109
567.679	103
567.891	128
568.102	99
568.314	97
568.526	100
568.737	81
568.949	76
569.161	84
569.372	80
569.584	82
569.795	68
570.007	88
570.218	106
570.43	95
570.641	102
570.853	104
571.064	116
571.276	115
571.487	107
571.698	101
571.91	113
572.121	109
572.333	103
572.544	95
572.755	104
572.966	93
573.178	85
573.389	97
573.6	87
573.811	79
574.023	94
574.234	93
574.445	86
574.656	102
574.867	96
575.078	85
575.289	103
575.501	92
575.712	93
575.923	101
576.134	92
576.345	102
576.556	90
576.767	102
576.978	103
577.188	119
577.399	98
577.61	91
577.821	85
578.032	94
578.243	92
578.454	92
578.665	97
578.875	86
579.086	95
579.297	95
579.508	91
579.718	92
579.929	90
580.14	87
580.35	93
580.561	95
580.772	76
580.982	102
581.193	105
581.403	87
581.614	80
581.825	86
582.035	99
582.246	87
582.456	93
582.667	97
582.877	93
583.087	95
583.298	104
583.508	89
583.719	84
583.929	93
584.139	91
584.35	90
584.56	106
584.77	89
584.981	82
585.191	93
585.401	86
585.611	102
585.821	88
586.032	94
586.242	92
586.452	89
586.662	92
586.872	91
587.082	91
587.292	90
587.502	90
587.713	84
587.923	83
588.133	87
588.343	83
588.553	91
588.762	97
588.972	85
589.182	86
589.392	87
589.602	95
589.812	81
590.022	92
590.232	84
590.441	94
590.651	94
590.861	89
591.071	81
591.281	81
591.49	87
591.7	85
591.91	93
592.119	87
592.329	73
592.539	93
592.748	101
592.958	85
593.167	85
593.377	98
593.587	91
593.796	82
594.006	92
594.215	109
594.424	87
594.634	87
594.843	93
595.053	72
595.262	82
595.472	100
595.681	94
595.89	87
596.1	104
596.309	88
596.518	95
596.727	99
596.937	98
597.146	103
597.355	88
597.564	93
597.774	103
597.983	95
598.192	95
598.401	91
598.61	112
598.819	88
599.028	90
599.237	100
599.446	87
599.655	103
599.864	95
600.073	97
600.282	102
600.491	94
600.7	91
600.909	85
601.118	101
601.327	103
601.536	113
601.745	106
601.953	110
602.162	106
602.371	115
602.58	121
602.789	111
602.997	107
603.206	123
603.415	119
603.623	117
603.832	112
604.041	108
604.249	112
604.458	102
604.666	104
604.875	103
605.084	91
605.292	102
605.501	104
605.709	120
605.918	119
606.126	123
606.334	117
606.543	123
606.751	107
606.96	120
607.168	107
607.376	105
607.585	131
607.793	127
608.001	115
608.21	111
608.418	103
608.626	99
608.834	107
609.043	113
609.251	101
609.459	112
609.667	116
609.875	101
610.083	103
610.291	129
610.499	119
610.707	115
610.916	108
611.124	94
611.332	118
611.54	116
611.748	116
611.955	108
612.163	121
612.371	107
612.579	104
612.787	116
612.995	96
613.203	118
613.411	113
613.618	121
613.826	117
614.034	100
614.242	117
614.449	101
614.657	97
614.865	125
615.072	104
615.28	104
615.488	121
615.695	119
615.903	112
616.111	115
616.318	117
616.526	102
616.733	122
616.941	103
617.148	107
617.356	117
617.563	106
617.771	97
617.978	116
618.185	108
618.393	104
618.6	120
618.807	108
619.015	107
619.222	107
619.429	103
619.637	114
619.844	92
620.051	110
620.258	119
620.466	118
620.673	122
620.88	108
621.087	115
621.294	115
621.501	104
621.708	117
621.915	114
622.122	110
622.329	99
622.536	129
622.743	117
622.95	108
623.157	120
623.364	119
623.571	105
623.778	103
623.985	116
624.192	112
624.399	100
624.606	110
624.812	109
625.019	99
625.226	101
625.433	99
625.639	100
625.846	103
626.053	97
626.259	76
626.466	93
626.673	107
626.879	95
627.086	102
627.293	109
627.499	105
627.706	99
627.912	100
628.119	113
628.325	103
628.532	128
628.738	106
628.945	101
629.151	116
629.357	112
629.564	111
629.77	107
629.976	116
630.183	107
630.389	111
630.595	108
630.802	102
631.008	112
631.214	105
631.42	111
631.627	108
631.833	99
632.039	97
632.245	85
632.451	95
632.657	106
632.863	116
633.069	101
633.275	99
633.481	93
633.688	102
633.893	113
634.099	100
634.305	104
634.511	90
634.717	101
634.923	97
635.129	119
635.335	97
635.541	97
635.747	104
635.952	99
636.158	98
636.364	115
636.57	99
636.775	97
636.981	113
637.187	100
637.392	104
637.598	99
637.804	99
638.009	100
638.215	112
638.421	112
638.626	100
638.832	104
639.037	102
639.243	98
639.448	107
639.654	102
639.859	105
640.065	91
640.27	104
640.475	109
640.681	95
640.886	103
641.091	105
641.297	112
641.502	117
641.707	102
641.913	98
642.118	107
642.323	92
642.528	97
642.733	103
642.939	103
643.144	111
643.349	108
643.554	108
643.759	104
643.964	99
644.169	102
644.374	91
644.579	100
644.784	88
644.989	109
645.194	92
645.399	117
645.604	115
645.809	98
646.014	104
646.219	112
646.423	91
646.628	107
646.833	99
647.038	104
647.243	99
647.447	104
647.652	99
647.857	107
648.062	107
648.266	84
648.471	111
648.676	98
648.88	103
649.085	93
649.289	100
649.494	99
649.698	94
649.903	112
650.107	108
650.312	111
650.516	89
650.721	90
650.925	102
651.13	91
651.334	95
651.539	98
651.743	91
651.947	104
652.152	95
652.356	88
652.56	98
652.764	103
652.969	94
653.173	96
653.377	102
653.581	91
653.785	96
653.99	109
654.194	103
654.398	95
654.602	100
654.806	102
655.01	91
655.214	97
655.418	103
655.622	86
655.826	94
656.03	105
656.234	101
656.438	79
656.642	101
656.846	88
657.049	92
657.253	84
657.457	87
657.661	95
657.865	99
658.068	99
658.272	88
658.476	90
658.68	81
658.883	86
659.087	97
659.291	95
659.494	86
659.698	87
659.901	84
660.105	81
660.309	85
660.512	80
660.716	82
660.919	90
661.123	101
661.326	85
661.53	87
661.733	87
661.936	81
662.14	88
662.343	89
662.546	77
662.75	89
662.953	80
663.156	86
663.36	71
663.563	90
663.766	80
663.969	81
664.173	83
664.376	73
664.579	83
664.782	72
664.985	93
665.188	87
665.391	90
665.594	99
665.797	72
666	77
666.203	76
666.406	88
666.609	93
666.812	89
667.015	84
667.218	63
667.421	88
667.624	94
667.827	87
668.03	86
668.232	80
668.435	91
668.638	79
668.841	76
669.043	92
669.246	88
669.449	75
669.651	85
669.854	69
670.057	88
670.259	79
670.462	95
670.665	87
670.867	88
671.07	91
671.272	83
671.475	99
671.677	85
671.88	88
672.082	67
672.284	79
672.487	74
672.689	85
672.892	93
