Data from Location1.07152019.Energy5.Lamp.07192019.3%Agarose_HRD10591_14-32-30-016.txt Node
Date: Fri Jul 19 14:32:30 EDT 2019
User: cochatt
Spectrometer: HR+D1059
Trigger mode: 1
Integration Time (sec): 1.000000E-1
Scans to average: 1
Electric dark correction enabled: true
Nonlinearity correction enabled: false
Boxcar width: 0
XAxis mode: Wavelengths
Number of Pixels in Spectrum: 2048
>>>>>Begin Spectral Data<<<<<
223.165	1
223.4	1
223.635	1
223.869	-26
224.104	-22
224.338	-14
224.573	-17
224.808	-14
225.042	-13
225.277	-2
225.511	16
225.746	4
225.98	-13
226.215	6
226.449	16
226.683	12
226.918	40
227.152	26
227.387	39
227.621	40
227.856	34
228.09	52
228.324	42
228.559	51
228.793	46
229.027	57
229.262	72
229.496	73
229.73	72
229.964	80
230.199	63
230.433	88
230.667	71
230.901	77
231.136	85
231.37	71
231.604	88
231.838	95
232.072	78
232.306	85
232.541	95
232.775	90
233.009	90
233.243	80
233.477	93
233.711	96
233.945	77
234.179	91
234.413	83
234.647	85
234.881	92
235.115	80
235.349	81
235.583	85
235.817	89
236.051	84
236.285	73
236.519	83
236.753	79
236.987	67
237.221	85
237.455	83
237.689	73
237.922	76
238.156	76
238.39	73
238.624	71
238.858	71
239.091	79
239.325	74
239.559	80
239.793	87
240.027	99
240.26	85
240.494	84
240.728	81
240.961	68
241.195	63
241.429	78
241.662	82
241.896	87
242.13	75
242.363	77
242.597	89
242.83	59
243.064	86
243.298	85
243.531	83
243.765	67
243.998	79
244.232	68
244.465	82
244.699	77
244.932	67
245.166	81
245.399	75
245.633	88
245.866	76
246.099	93
246.333	71
246.566	76
246.8	83
247.033	78
247.266	99
247.5	77
247.733	83
247.966	70
248.2	62
248.433	87
248.666	88
248.899	88
249.133	83
249.366	77
249.599	75
249.832	78
250.066	72
250.299	76
250.532	72
250.765	78
250.998	77
251.231	68
251.465	79
251.698	72
251.931	77
252.164	71
252.397	102
252.63	80
252.863	85
253.096	81
253.329	87
253.562	80
253.795	81
254.028	74
254.261	69
254.494	82
254.727	77
254.96	73
255.193	85
255.426	91
255.659	76
255.892	92
256.124	72
256.357	79
256.59	84
256.823	87
257.056	86
257.289	77
257.521	77
257.754	91
257.987	92
258.22	85
258.452	80
258.685	89
258.918	61
259.151	96
259.383	73
259.616	91
259.849	73
260.081	72
260.314	81
260.547	79
260.779	87
261.012	77
261.244	81
261.477	81
261.71	92
261.942	86
262.175	77
262.407	74
262.64	88
262.872	71
263.105	83
263.337	96
263.57	88
263.802	82
264.035	80
264.267	83
264.499	79
264.732	97
264.964	88
265.197	87
265.429	86
265.661	90
265.894	85
266.126	88
266.358	64
266.591	75
266.823	88
267.055	73
267.287	96
267.52	84
267.752	80
267.984	92
268.216	74
268.448	63
268.681	85
268.913	82
269.145	80
269.377	68
269.609	79
269.841	96
270.073	89
270.306	92
270.538	87
270.77	81
271.002	90
271.234	79
271.466	88
271.698	68
271.93	70
272.162	89
272.394	86
272.626	87
272.858	88
273.09	84
273.322	91
273.553	70
273.785	85
274.017	84
274.249	81
274.481	86
274.713	80
274.945	82
275.176	82
275.408	87
275.64	78
275.872	92
276.104	79
276.335	73
276.567	76
276.799	76
277.031	87
277.262	73
277.494	80
277.726	80
277.957	89
278.189	81
278.421	101
278.652	79
278.884	86
279.115	81
279.347	82
279.579	99
279.81	86
280.042	84
280.273	87
280.505	86
280.736	86
280.968	73
281.199	73
281.431	89
281.662	78
281.894	95
282.125	85
282.356	98
282.588	79
282.819	87
283.051	89
283.282	96
283.513	84
283.745	84
283.976	85
284.207	79
284.439	79
284.67	88
284.901	93
285.132	79
285.364	99
285.595	110
285.826	84
286.057	77
286.288	81
286.52	80
286.751	76
286.982	85
287.213	75
287.444	75
287.675	77
287.906	73
288.138	79
288.369	92
288.6	89
288.831	79
289.062	89
289.293	71
289.524	93
289.755	91
289.986	79
290.217	76
290.448	82
290.679	77
290.91	76
291.141	94
291.371	86
291.602	83
291.833	87
292.064	102
292.295	88
292.526	91
292.757	78
292.987	80
293.218	79
293.449	74
293.68	86
293.91	89
294.141	63
294.372	84
294.603	67
294.833	76
295.064	77
295.295	87
295.525	80
295.756	85
295.987	84
296.217	87
296.448	85
296.679	88
296.909	86
297.14	91
297.37	84
297.601	91
297.831	89
298.062	76
298.292	83
298.523	64
298.753	95
298.984	71
299.214	84
299.445	80
299.675	83
299.905	75
300.136	94
300.366	103
300.597	83
300.827	71
301.057	89
301.288	84
301.518	85
301.748	91
301.979	88
302.209	86
302.439	91
302.669	81
302.9	80
303.13	95
303.36	87
303.59	89
303.82	86
304.051	84
304.281	84
304.511	89
304.741	85
304.971	83
305.201	91
305.431	87
305.661	95
305.891	88
306.121	80
306.352	88
306.582	90
306.812	76
307.042	85
307.272	72
307.502	95
307.731	95
307.961	103
308.191	97
308.421	89
308.651	81
308.881	86
309.111	97
309.341	84
309.571	81
309.8	88
310.03	89
310.26	93
310.49	87
310.72	79
310.949	95
311.179	82
311.409	87
311.639	93
311.868	89
312.098	89
312.328	97
312.557	85
312.787	87
313.017	93
313.246	97
313.476	79
313.706	86
313.935	74
314.165	86
314.394	79
314.624	104
314.853	95
315.083	79
315.312	83
315.542	75
315.771	88
316.001	80
316.23	82
316.46	83
316.689	101
316.919	94
317.148	77
317.377	81
317.607	87
317.836	92
318.065	88
318.295	93
318.524	87
318.753	80
318.983	85
319.212	80
319.441	104
319.67	85
319.9	81
320.129	69
320.358	68
320.587	92
320.816	80
321.046	98
321.275	110
321.504	73
321.733	94
321.962	81
322.191	80
322.42	95
322.649	75
322.878	91
323.108	91
323.337	95
323.566	96
323.795	79
324.024	87
324.253	85
324.482	78
324.71	85
324.939	89
325.168	85
325.397	97
325.626	91
325.855	90
326.084	94
326.313	86
326.542	91
326.77	86
326.999	95
327.228	78
327.457	80
327.686	85
327.914	78
328.143	88
328.372	87
328.6	90
328.829	89
329.058	88
329.287	74
329.515	81
329.744	73
329.972	72
330.201	93
330.43	91
330.658	82
330.887	87
331.115	79
331.344	91
331.572	77
331.801	73
332.03	89
332.258	87
332.486	77
332.715	86
332.943	88
333.172	89
333.4	88
333.629	86
333.857	74
334.085	77
334.314	92
334.542	80
334.771	94
334.999	87
335.227	77
335.455	91
335.684	84
335.912	79
336.14	92
336.369	79
336.597	94
336.825	89
337.053	80
337.281	87
337.51	80
337.738	79
337.966	86
338.194	82
338.422	86
338.65	88
338.878	91
339.106	92
339.334	101
339.562	94
339.79	88
340.018	78
340.246	89
340.474	84
340.702	89
340.93	76
341.158	83
341.386	89
341.614	96
341.842	83
342.07	86
342.298	84
342.526	96
342.754	90
342.981	91
343.209	80
343.437	93
343.665	80
343.893	91
344.12	85
344.348	91
344.576	82
344.804	69
345.031	84
345.259	71
345.487	80
345.714	78
345.942	78
346.17	79
346.397	94
346.625	71
346.853	73
347.08	81
347.308	96
347.535	82
347.763	93
347.99	107
348.218	95
348.445	91
348.673	84
348.9	91
349.128	85
349.355	84
349.583	99
349.81	101
350.037	87
350.265	78
350.492	76
350.72	91
350.947	85
351.174	91
351.402	89
351.629	83
351.856	77
352.083	94
352.311	87
352.538	100
352.765	100
352.992	84
353.22	81
353.447	83
353.674	90
353.901	77
354.128	85
354.355	104
354.583	76
354.81	92
355.037	79
355.264	88
355.491	81
355.718	93
355.945	78
356.172	78
356.399	90
356.626	62
356.853	85
357.08	89
357.307	81
357.534	85
357.761	74
357.988	79
358.215	98
358.441	87
358.668	74
358.895	87
359.122	85
359.349	84
359.576	83
359.802	73
360.029	100
360.256	84
360.483	84
360.709	91
360.936	90
361.163	77
361.39	88
361.616	76
361.843	84
362.07	77
362.296	94
362.523	77
362.749	75
362.976	86
363.203	81
363.429	82
363.656	71
363.882	72
364.109	94
364.335	97
364.562	80
364.788	96
365.015	83
365.241	90
365.468	88
365.694	87
365.92	89
366.147	86
366.373	78
366.599	89
366.826	87
367.052	76
367.278	83
367.505	79
367.731	98
367.957	96
368.184	83
368.41	76
368.636	95
368.862	93
369.089	93
369.315	92
369.541	88
369.767	84
369.993	90
370.219	90
370.445	79
370.672	89
370.898	82
371.124	100
371.35	86
371.576	87
371.802	92
372.028	96
372.254	101
372.48	91
372.706	94
372.932	88
373.158	95
373.384	87
373.61	94
373.835	90
374.061	93
374.287	91
374.513	91
374.739	100
374.965	98
375.191	95
375.416	86
375.642	94
375.868	96
376.094	98
376.319	95
376.545	101
376.771	90
376.997	100
377.222	87
377.448	96
377.674	116
377.899	97
378.125	92
378.35	94
378.576	99
378.802	89
379.027	108
379.253	106
379.478	107
379.704	97
379.929	96
380.155	94
380.38	87
380.606	85
380.831	89
381.057	102
381.282	94
381.507	111
381.733	96
381.958	100
382.184	95
382.409	100
382.634	108
382.86	96
383.085	98
383.31	105
383.535	99
383.761	86
383.986	109
384.211	102
384.436	112
384.662	107
384.887	95
385.112	91
385.337	95
385.562	107
385.787	104
386.013	115
386.238	97
386.463	102
386.688	101
386.913	101
387.138	109
387.363	84
387.588	93
387.813	99
388.038	91
388.263	89
388.488	114
388.713	110
388.938	85
389.163	102
389.387	84
389.612	102
389.837	100
390.062	100
390.287	115
390.512	95
390.736	96
390.961	90
391.186	102
391.411	78
391.636	110
391.86	111
392.085	115
392.31	104
392.534	103
392.759	105
392.984	107
393.208	127
393.433	104
393.658	103
393.882	102
394.107	112
394.331	115
394.556	99
394.78	102
395.005	102
395.229	108
395.454	115
395.678	118
395.903	90
396.127	91
396.352	107
396.576	109
396.801	97
397.025	97
397.249	99
397.474	115
397.698	119
397.922	110
398.147	118
398.371	121
398.595	104
398.82	118
399.044	108
399.268	97
399.492	105
399.717	126
399.941	104
400.165	112
400.389	113
400.613	115
400.837	102
401.062	102
401.286	107
401.51	113
401.734	111
401.958	124
402.182	117
402.406	104
402.63	107
402.854	104
403.078	107
403.302	111
403.526	127
403.75	124
403.974	113
404.198	109
404.422	119
404.645	116
404.869	112
405.093	96
405.317	100
405.541	118
405.765	115
405.988	112
406.212	121
406.436	129
406.66	131
406.883	120
407.107	125
407.331	122
407.555	119
407.778	116
408.002	122
408.226	119
408.449	120
408.673	121
408.896	116
409.12	126
409.344	137
409.567	123
409.791	121
410.014	112
410.238	113
410.461	128
410.685	124
410.908	123
411.132	127
411.355	111
411.578	125
411.802	119
412.025	125
412.249	122
412.472	126
412.695	111
412.919	119
413.142	124
413.365	115
413.589	125
413.812	120
414.035	127
414.258	128
414.482	125
414.705	126
414.928	134
415.151	118
415.374	107
415.597	112
415.821	121
416.044	138
416.267	112
416.49	117
416.713	116
416.936	127
417.159	123
417.382	124
417.605	123
417.828	126
418.051	128
418.274	138
418.497	137
418.72	136
418.943	124
419.166	127
419.389	151
419.611	127
419.834	126
420.057	131
420.28	126
420.503	133
420.726	131
420.948	118
421.171	126
421.394	116
421.617	128
421.839	136
422.062	131
422.285	135
422.507	135
422.73	137
422.953	124
423.175	128
423.398	124
423.621	151
423.843	129
424.066	153
424.288	151
424.511	145
424.733	151
424.956	145
425.178	121
425.401	127
425.623	139
425.846	113
426.068	120
426.291	133
426.513	134
426.735	126
426.958	134
427.18	119
427.402	138
427.625	127
427.847	132
428.069	124
428.292	127
428.514	132
428.736	128
428.958	131
429.181	133
429.403	134
429.625	116
429.847	129
430.069	128
430.292	144
430.514	126
430.736	139
430.958	123
431.18	124
431.402	128
431.624	128
431.846	101
432.068	90
432.29	106
432.512	96
432.734	134
432.956	128
433.178	116
433.4	146
433.622	155
433.844	127
434.066	115
434.287	97
434.509	102
434.731	82
434.953	123
435.175	117
435.397	120
435.618	122
435.84	114
436.062	108
436.284	131
436.505	132
436.727	123
436.949	126
437.17	125
437.392	131
437.614	121
437.835	122
438.057	115
438.278	101
438.5	112
438.721	124
438.943	133
439.165	134
439.386	144
439.608	143
439.829	147
440.05	141
440.272	138
440.493	143
440.715	142
440.936	137
441.158	146
441.379	139
441.6	151
441.822	130
442.043	143
442.264	137
442.486	134
442.707	137
442.928	140
443.149	143
443.371	141
443.592	140
443.813	138
444.034	121
444.255	128
444.476	145
444.698	144
444.919	160
445.14	253
445.361	192
445.582	160
445.803	140
446.024	165
446.245	149
446.466	159
446.687	153
446.908	163
447.129	145
447.35	149
447.571	154
447.792	162
448.013	148
448.234	150
448.455	145
448.675	135
448.896	152
449.117	141
449.338	152
449.559	140
449.779	133
450	133
450.221	145
450.442	143
450.662	142
450.883	133
451.104	133
451.324	139
451.545	113
451.766	135
451.986	137
452.207	121
452.428	116
452.648	132
452.869	127
453.089	123
453.31	119
453.53	112
453.751	115
453.971	100
454.192	117
454.412	118
454.633	119
454.853	115
455.073	122
455.294	117
455.514	127
455.734	107
455.955	128
456.175	108
456.395	119
456.616	114
456.836	111
457.056	116
457.276	110
457.497	87
457.717	100
457.937	103
458.157	111
458.377	109
458.598	91
458.818	101
459.038	87
459.258	86
459.478	92
459.698	86
459.918	96
460.138	110
460.358	120
460.578	107
460.798	119
461.018	108
461.238	117
461.458	129
461.678	139
461.898	115
462.118	117
462.338	117
462.558	137
462.777	120
462.997	127
463.217	107
463.437	115
463.657	115
463.876	104
464.096	107
464.316	121
464.536	123
464.755	111
464.975	125
465.195	134
465.414	115
465.634	110
465.854	116
466.073	129
466.293	116
466.512	112
466.732	122
466.951	137
467.171	139
467.391	132
467.61	137
467.829	131
468.049	127
468.268	150
468.488	119
468.707	127
468.927	135
469.146	134
469.365	140
469.585	141
469.804	139
470.023	152
470.243	141
470.462	158
470.681	135
470.901	139
471.12	127
471.339	141
471.558	135
471.777	141
471.997	134
472.216	121
472.435	119
472.654	112
472.873	97
473.092	112
473.311	124
473.53	119
473.749	113
473.968	128
474.187	115
474.406	116
474.625	130
474.844	131
475.063	130
475.282	125
475.501	131
475.72	113
475.939	127
476.158	115
476.377	129
476.596	127
476.814	103
477.033	121
477.252	111
477.471	120
477.69	139
477.908	151
478.127	139
478.346	128
478.564	135
478.783	129
479.002	148
479.22	131
479.439	120
479.658	125
479.876	103
480.095	101
480.313	107
480.532	118
480.751	113
480.969	91
481.188	101
481.406	97
481.624	92
481.843	95
482.061	84
482.28	120
482.498	124
482.717	117
482.935	122
483.153	141
483.372	140
483.59	157
483.808	146
484.027	135
484.245	131
484.463	143
484.681	146
484.9	131
485.118	130
485.336	134
485.554	111
485.772	89
485.99	100
486.209	98
486.427	93
486.645	131
486.863	127
487.081	151
487.299	132
487.517	129
487.735	165
487.953	189
488.171	179
488.389	173
488.607	175
488.825	140
489.043	124
489.261	135
489.479	128
489.696	144
489.914	154
490.132	139
490.35	157
490.568	157
490.786	171
491.003	176
491.221	187
491.439	186
491.657	174
491.874	189
492.092	229
492.31	225
492.527	234
492.745	201
492.963	209
493.18	193
493.398	168
493.615	169
493.833	175
494.05	171
494.268	168
494.485	163
494.703	173
494.92	160
495.138	172
495.355	166
495.573	171
495.79	164
496.008	173
496.225	152
496.442	172
496.66	168
496.877	171
497.094	171
497.312	171
497.529	164
497.746	158
497.963	135
498.181	123
498.398	137
498.615	119
498.832	118
499.049	98
499.267	119
499.484	111
499.701	121
499.918	124
500.135	131
500.352	132
500.569	145
500.786	154
501.003	154
501.22	129
501.437	145
501.654	143
501.871	129
502.088	132
502.305	126
502.522	122
502.739	130
502.956	128
503.172	124
503.389	115
503.606	112
503.823	113
504.04	117
504.256	119
504.473	113
504.69	128
504.907	125
505.123	133
505.34	133
505.557	131
505.773	117
505.99	120
506.207	119
506.423	115
506.64	132
506.856	120
507.073	126
507.289	103
507.506	104
507.722	115
507.939	104
508.155	119
508.372	107
508.588	104
508.805	103
509.021	107
509.238	109
509.454	107
509.67	108
509.887	94
510.103	104
510.319	94
510.536	106
510.752	103
510.968	91
511.184	86
511.401	91
511.617	105
511.833	91
512.049	88
512.265	89
512.481	108
512.698	95
512.914	99
513.13	89
513.346	98
513.562	97
513.778	102
513.994	98
514.21	91
514.426	87
514.642	99
514.858	97
515.074	79
515.29	83
515.506	84
515.721	93
515.937	78
516.153	71
516.369	95
516.585	73
516.801	83
517.016	87
517.232	84
517.448	94
517.664	83
517.879	97
518.095	102
518.311	86
518.527	108
518.742	95
518.958	97
519.173	107
519.389	105
519.605	105
519.82	104
520.036	115
520.251	103
520.467	106
520.682	90
520.898	109
521.113	94
521.329	82
521.544	98
521.76	94
521.975	94
522.19	97
522.406	92
522.621	115
522.836	110
523.052	100
523.267	105
523.482	99
523.698	121
523.913	123
524.128	111
524.343	127
524.559	123
524.774	131
524.989	126
525.204	123
525.419	103
525.634	112
525.849	118
526.064	131
526.28	111
526.495	97
526.71	87
526.925	91
527.14	82
527.355	89
527.57	90
527.785	81
527.999	101
528.214	99
528.429	109
528.644	125
528.859	134
529.074	150
529.289	158
529.503	145
529.718	136
529.933	122
530.148	100
530.363	99
530.577	93
530.792	84
531.007	88
531.221	79
531.436	77
531.651	102
531.865	91
532.08	89
532.295	72
532.509	78
532.724	87
532.938	95
533.153	110
533.367	119
533.582	120
533.796	131
534.011	110
534.225	104
534.44	88
534.654	98
534.868	74
535.083	107
535.297	104
535.511	104
535.726	113
535.94	98
536.154	110
536.369	86
536.583	76
536.797	91
537.011	89
537.225	88
537.44	101
537.654	103
537.868	98
538.082	77
538.296	105
538.51	95
538.724	110
538.938	123
539.153	125
539.367	105
539.581	105
539.795	116
540.009	97
540.222	92
540.436	102
540.65	108
540.864	125
541.078	142
541.292	163
541.506	160
541.72	170
541.934	190
542.147	205
542.361	194
542.575	148
542.789	137
543.002	140
543.216	136
543.43	129
543.644	134
543.857	140
544.071	148
544.285	155
544.498	156
544.712	156
544.925	158
545.139	153
545.352	155
545.566	171
545.779	168
545.993	158
546.206	169
546.42	169
546.633	172
546.847	169
547.06	159
547.274	154
547.487	155
547.7	167
547.914	172
548.127	146
548.34	161
548.554	144
548.767	154
548.98	145
549.193	131
549.407	143
549.62	140
549.833	155
550.046	150
550.259	161
550.473	142
550.686	165
550.899	146
551.112	143
551.325	147
551.538	133
551.751	133
551.964	132
552.177	137
552.39	137
552.603	148
552.816	144
553.029	155
553.242	156
553.455	161
553.667	172
553.88	156
554.093	151
554.306	144
554.519	161
554.732	136
554.944	176
555.157	159
555.37	146
555.583	140
555.795	132
556.008	140
556.221	138
556.433	126
556.646	140
556.859	129
557.071	130
557.284	142
557.496	131
557.709	129
557.921	138
558.134	147
558.346	129
558.559	143
558.771	137
558.984	131
559.196	135
559.409	122
559.621	119
559.833	122
560.046	132
560.258	137
560.47	118
560.683	135
560.895	143
561.107	135
561.32	123
561.532	116
561.744	146
561.956	123
562.168	129
562.381	128
562.593	132
562.805	135
563.017	122
563.229	134
563.441	119
563.653	123
563.865	109
564.077	121
564.289	141
564.501	123
564.713	127
564.925	112
565.137	122
565.349	115
565.561	127
565.773	117
565.985	110
566.197	115
566.408	127
566.62	118
566.832	120
567.044	117
567.255	113
567.467	102
567.679	104
567.891	104
568.102	92
568.314	100
568.526	86
568.737	97
568.949	100
569.161	77
569.372	99
569.584	96
569.795	93
570.007	85
570.218	82
570.43	104
570.641	95
570.853	90
571.064	95
571.276	91
571.487	107
571.698	112
571.91	113
572.121	100
572.333	99
572.544	89
572.755	91
572.966	92
573.178	87
573.389	89
573.6	80
573.811	92
574.023	88
574.234	99
574.445	84
574.656	99
574.867	99
575.078	88
575.289	101
575.501	101
575.712	93
575.923	85
576.134	92
576.345	103
576.556	115
576.767	103
576.978	103
577.188	97
577.399	107
577.61	92
577.821	87
578.032	94
578.243	98
578.454	89
578.665	93
578.875	90
579.086	86
579.297	85
579.508	89
579.718	81
579.929	108
580.14	87
580.35	78
580.561	88
580.772	80
580.982	93
581.193	93
581.403	102
581.614	105
581.825	101
582.035	93
582.246	93
582.456	101
582.667	91
582.877	87
583.087	85
583.298	82
583.508	94
583.719	90
583.929	80
584.139	83
584.35	87
584.56	84
584.77	88
584.981	108
585.191	82
585.401	89
585.611	96
585.821	72
586.032	72
586.242	92
586.452	82
586.662	69
586.872	82
587.082	79
587.292	93
587.502	86
587.713	102
587.923	81
588.133	94
588.343	86
588.553	85
588.762	101
588.972	79
589.182	67
589.392	91
589.602	81
589.812	85
590.022	95
590.232	80
590.441	79
590.651	97
590.861	88
591.071	84
591.281	92
591.49	88
591.7	75
591.91	81
592.119	92
592.329	95
592.539	92
592.748	88
592.958	81
593.167	85
593.377	88
593.587	100
593.796	87
594.006	80
594.215	84
594.424	83
594.634	87
594.843	98
595.053	93
595.262	86
595.472	101
595.681	108
595.89	92
596.1	92
596.309	103
596.518	89
596.727	101
596.937	95
597.146	95
597.355	94
597.564	93
597.774	100
597.983	84
598.192	84
598.401	85
598.61	105
598.819	86
599.028	103
599.237	92
599.446	94
599.655	100
599.864	93
600.073	92
600.282	83
600.491	103
600.7	92
600.909	111
601.118	112
601.327	96
601.536	102
601.745	99
601.953	119
602.162	111
602.371	103
602.58	107
602.789	113
602.997	120
603.206	117
603.415	107
603.623	106
603.832	97
604.041	108
604.249	105
604.458	107
604.666	94
604.875	94
605.084	106
605.292	101
605.501	112
605.709	123
605.918	108
606.126	100
606.334	110
606.543	119
606.751	112
606.96	128
607.168	112
607.376	112
607.585	120
607.793	114
608.001	108
608.21	121
608.418	108
608.626	131
608.834	117
609.043	119
609.251	113
609.459	119
609.667	99
609.875	125
610.083	112
610.291	118
610.499	108
610.707	104
610.916	106
611.124	115
611.332	122
611.54	99
611.748	107
611.955	95
612.163	107
612.371	117
612.579	107
612.787	110
612.995	101
613.203	119
613.411	121
613.618	104
613.826	103
614.034	107
614.242	105
614.449	111
614.657	118
614.865	111
615.072	114
615.28	104
615.488	111
615.695	121
615.903	114
616.111	106
616.318	109
616.526	110
616.733	122
616.941	102
617.148	115
617.356	115
617.563	95
617.771	107
617.978	103
618.185	100
618.393	108
618.6	125
618.807	111
619.015	119
619.222	105
619.429	119
619.637	121
619.844	98
620.051	90
620.258	100
620.466	111
620.673	105
620.88	97
621.087	106
621.294	111
621.501	102
621.708	99
621.915	107
622.122	96
622.329	108
622.536	112
622.743	100
622.95	108
623.157	101
623.364	118
623.571	111
623.778	97
623.985	106
624.192	117
624.399	115
624.606	119
624.812	117
625.019	109
625.226	103
625.433	126
625.639	90
625.846	90
626.053	91
626.259	87
626.466	85
626.673	93
626.879	100
627.086	92
627.293	109
627.499	101
627.706	120
627.912	98
628.119	113
628.325	112
628.532	103
628.738	100
628.945	104
629.151	114
629.357	108
629.564	112
629.77	108
629.976	103
630.183	97
630.389	109
630.595	110
630.802	95
631.008	98
631.214	100
631.42	108
631.627	105
631.833	89
632.039	96
632.245	107
632.451	89
632.657	93
632.863	94
633.069	95
633.275	96
633.481	91
633.688	87
633.893	105
634.099	94
634.305	93
634.511	86
634.717	86
634.923	78
635.129	77
635.335	83
635.541	95
635.747	96
635.952	100
636.158	121
636.364	98
636.57	109
636.775	105
636.981	92
637.187	99
637.392	102
637.598	104
637.804	110
638.009	93
638.215	107
638.421	118
638.626	109
638.832	103
639.037	110
639.243	96
639.448	112
639.654	111
639.859	91
640.065	104
640.27	101
640.475	95
640.681	100
640.886	104
641.091	101
641.297	104
641.502	93
641.707	90
641.913	106
642.118	111
642.323	99
642.528	112
642.733	101
642.939	91
643.144	93
643.349	112
643.554	92
643.759	89
643.964	99
644.169	96
644.374	106
644.579	94
644.784	95
644.989	109
645.194	101
645.399	104
645.604	100
645.809	98
646.014	88
646.219	95
646.423	97
646.628	90
646.833	108
647.038	103
647.243	103
647.447	96
647.652	92
647.857	114
648.062	91
648.266	82
648.471	104
648.676	87
648.88	101
649.085	86
649.289	97
649.494	92
649.698	105
649.903	111
650.107	104
650.312	101
650.516	98
650.721	101
650.925	92
651.13	101
651.334	105
651.539	101
651.743	96
651.947	106
652.152	97
652.356	95
652.56	95
652.764	83
652.969	99
653.173	83
653.377	88
653.581	106
653.785	88
653.99	79
654.194	99
654.398	102
654.602	86
654.806	94
655.01	93
655.214	92
655.418	79
655.622	84
655.826	79
656.03	91
656.234	96
656.438	90
656.642	80
656.846	77
657.049	95
657.253	101
657.457	85
657.661	96
657.865	87
658.068	87
658.272	91
658.476	84
658.68	86
658.883	92
659.087	80
659.291	93
659.494	101
659.698	94
659.901	91
660.105	81
660.309	86
660.512	100
660.716	85
660.919	87
661.123	94
661.326	93
661.53	86
661.733	92
661.936	89
662.14	84
662.343	97
662.546	82
662.75	105
662.953	82
663.156	85
663.36	91
663.563	84
663.766	77
663.969	80
664.173	95
664.376	98
664.579	84
664.782	78
664.985	76
665.188	77
665.391	92
665.594	91
665.797	87
666	91
666.203	94
666.406	96
666.609	74
666.812	79
667.015	85
667.218	84
667.421	86
667.624	84
667.827	80
668.03	80
668.232	91
668.435	81
668.638	85
668.841	96
669.043	75
669.246	72
669.449	90
669.651	92
669.854	100
670.057	69
670.259	91
670.462	77
670.665	83
670.867	89
671.07	87
671.272	71
671.475	85
671.677	84
671.88	85
672.082	89
672.284	88
672.487	82
672.689	78
672.892	81
