Data from Location1.07152019.Energy5.Lamp.07192019.3%Agarose_HRD10591_14-31-40-017.txt Node
Date: Fri Jul 19 14:31:40 EDT 2019
User: cochatt
Spectrometer: HR+D1059
Trigger mode: 1
Integration Time (sec): 1.000000E-1
Scans to average: 1
Electric dark correction enabled: true
Nonlinearity correction enabled: false
Boxcar width: 0
XAxis mode: Wavelengths
Number of Pixels in Spectrum: 2048
>>>>>Begin Spectral Data<<<<<
223.165	-15
223.4	-15
223.635	-15
223.869	-13
224.104	-15
224.338	-11
224.573	-7
224.808	-4
225.042	2
225.277	-26
225.511	0
225.746	-6
225.98	9
226.215	6
226.449	5
226.683	17
226.918	31
227.152	27
227.387	25
227.621	32
227.856	43
228.09	41
228.324	39
228.559	53
228.793	68
229.027	66
229.262	66
229.496	62
229.73	63
229.964	74
230.199	55
230.433	66
230.667	71
230.901	82
231.136	67
231.37	76
231.604	81
231.838	93
232.072	75
232.306	79
232.541	74
232.775	85
233.009	76
233.243	73
233.477	73
233.711	77
233.945	76
234.179	73
234.413	74
234.647	96
234.881	74
235.115	78
235.349	83
235.583	72
235.817	84
236.051	87
236.285	58
236.519	68
236.753	78
236.987	75
237.221	75
237.455	73
237.689	74
237.922	77
238.156	79
238.39	71
238.624	68
238.858	85
239.091	77
239.325	70
239.559	72
239.793	80
240.027	80
240.26	77
240.494	79
240.728	71
240.961	78
241.195	76
241.429	57
241.662	66
241.896	80
242.13	57
242.363	70
242.597	70
242.83	79
243.064	67
243.298	78
243.531	79
243.765	84
243.998	80
244.232	63
244.465	75
244.699	71
244.932	77
245.166	84
245.399	79
245.633	84
245.866	81
246.099	82
246.333	66
246.566	65
246.8	73
247.033	71
247.266	80
247.5	89
247.733	75
247.966	72
248.2	65
248.433	80
248.666	87
248.899	75
249.133	77
249.366	92
249.599	83
249.832	75
250.066	76
250.299	65
250.532	74
250.765	93
250.998	80
251.231	81
251.465	71
251.698	73
251.931	95
252.164	74
252.397	67
252.63	76
252.863	84
253.096	80
253.329	66
253.562	80
253.795	76
254.028	83
254.261	67
254.494	71
254.727	78
254.96	66
255.193	85
255.426	70
255.659	71
255.892	69
256.124	87
256.357	76
256.59	75
256.823	80
257.056	81
257.289	77
257.521	69
257.754	84
257.987	73
258.22	62
258.452	85
258.685	74
258.918	87
259.151	67
259.383	90
259.616	91
259.849	87
260.081	75
260.314	67
260.547	68
260.779	74
261.012	85
261.244	88
261.477	87
261.71	84
261.942	78
262.175	76
262.407	78
262.64	67
262.872	84
263.105	76
263.337	83
263.57	76
263.802	72
264.035	82
264.267	78
264.499	78
264.732	78
264.964	74
265.197	76
265.429	83
265.661	77
265.894	74
266.126	73
266.358	74
266.591	96
266.823	97
267.055	67
267.287	89
267.52	86
267.752	70
267.984	80
268.216	79
268.448	69
268.681	81
268.913	80
269.145	82
269.377	82
269.609	84
269.841	71
270.073	83
270.306	83
270.538	81
270.77	97
271.002	87
271.234	82
271.466	81
271.698	76
271.93	94
272.162	66
272.394	80
272.626	80
272.858	85
273.09	86
273.322	85
273.553	87
273.785	79
274.017	89
274.249	72
274.481	78
274.713	74
274.945	70
275.176	71
275.408	79
275.64	81
275.872	79
276.104	79
276.335	54
276.567	76
276.799	97
277.031	90
277.262	75
277.494	101
277.726	92
277.957	76
278.189	74
278.421	69
278.652	83
278.884	84
279.115	77
279.347	76
279.579	85
279.81	90
280.042	96
280.273	76
280.505	73
280.736	79
280.968	77
281.199	72
281.431	86
281.662	83
281.894	83
282.125	65
282.356	80
282.588	86
282.819	84
283.051	87
283.282	75
283.513	80
283.745	78
283.976	88
284.207	90
284.439	79
284.67	81
284.901	85
285.132	83
285.364	85
285.595	68
285.826	79
286.057	84
286.288	82
286.52	81
286.751	73
286.982	90
287.213	87
287.444	82
287.675	94
287.906	89
288.138	76
288.369	88
288.6	87
288.831	81
289.062	83
289.293	72
289.524	73
289.755	77
289.986	79
290.217	82
290.448	83
290.679	71
290.91	78
291.141	81
291.371	91
291.602	77
291.833	86
292.064	79
292.295	85
292.526	74
292.757	83
292.987	85
293.218	89
293.449	78
293.68	82
293.91	96
294.141	88
294.372	74
294.603	90
294.833	77
295.064	79
295.295	67
295.525	93
295.756	73
295.987	76
296.217	67
296.448	79
296.679	87
296.909	73
297.14	99
297.37	89
297.601	73
297.831	101
298.062	93
298.292	88
298.523	84
298.753	85
298.984	78
299.214	66
299.445	79
299.675	79
299.905	87
300.136	71
300.366	77
300.597	76
300.827	81
301.057	70
301.288	89
301.518	78
301.748	86
301.979	83
302.209	80
302.439	76
302.669	87
302.9	74
303.13	98
303.36	90
303.59	100
303.82	95
304.051	81
304.281	76
304.511	86
304.741	75
304.971	77
305.201	74
305.431	73
305.661	70
305.891	92
306.121	73
306.352	79
306.582	75
306.812	91
307.042	85
307.272	90
307.502	81
307.731	77
307.961	74
308.191	77
308.421	87
308.651	83
308.881	90
309.111	83
309.341	74
309.571	80
309.8	76
310.03	69
310.26	88
310.49	83
310.72	77
310.949	87
311.179	83
311.409	82
311.639	73
311.868	83
312.098	81
312.328	82
312.557	84
312.787	79
313.017	86
313.246	83
313.476	70
313.706	84
313.935	84
314.165	80
314.394	75
314.624	73
314.853	95
315.083	96
315.312	88
315.542	79
315.771	91
316.001	72
316.23	70
316.46	82
316.689	85
316.919	88
317.148	78
317.377	77
317.607	90
317.836	84
318.065	73
318.295	79
318.524	89
318.753	81
318.983	87
319.212	86
319.441	88
319.67	83
319.9	83
320.129	69
320.358	95
320.587	77
320.816	77
321.046	91
321.275	96
321.504	91
321.733	84
321.962	82
322.191	82
322.42	74
322.649	79
322.878	76
323.108	69
323.337	87
323.566	76
323.795	71
324.024	81
324.253	88
324.482	91
324.71	100
324.939	82
325.168	76
325.397	78
325.626	88
325.855	78
326.084	80
326.313	85
326.542	57
326.77	82
326.999	71
327.228	75
327.457	85
327.686	74
327.914	71
328.143	89
328.372	82
328.6	77
328.829	82
329.058	78
329.287	78
329.515	80
329.744	87
329.972	85
330.201	81
330.43	83
330.658	85
330.887	80
331.115	74
331.344	88
331.572	90
331.801	101
332.03	97
332.258	70
332.486	79
332.715	68
332.943	73
333.172	87
333.4	87
333.629	80
333.857	68
334.085	73
334.314	91
334.542	75
334.771	85
334.999	66
335.227	75
335.455	83
335.684	91
335.912	86
336.14	72
336.369	85
336.597	75
336.825	87
337.053	83
337.281	82
337.51	77
337.738	91
337.966	87
338.194	87
338.422	83
338.65	84
338.878	84
339.106	75
339.334	80
339.562	83
339.79	77
340.018	78
340.246	74
340.474	88
340.702	87
340.93	89
341.158	73
341.386	83
341.614	89
341.842	68
342.07	84
342.298	81
342.526	67
342.754	71
342.981	85
343.209	87
343.437	82
343.665	84
343.893	95
344.12	77
344.348	73
344.576	73
344.804	76
345.031	76
345.259	97
345.487	92
345.714	96
345.942	92
346.17	81
346.397	88
346.625	83
346.853	75
347.08	74
347.308	76
347.535	72
347.763	79
347.99	84
348.218	88
348.445	89
348.673	76
348.9	76
349.128	83
349.355	77
349.583	86
349.81	84
350.037	71
350.265	87
350.492	90
350.72	76
350.947	80
351.174	67
351.402	78
351.629	98
351.856	86
352.083	72
352.311	91
352.538	89
352.765	76
352.992	81
353.22	83
353.447	81
353.674	81
353.901	67
354.128	72
354.355	79
354.583	66
354.81	77
355.037	65
355.264	83
355.491	67
355.718	77
355.945	97
356.172	88
356.399	78
356.626	73
356.853	60
357.08	85
357.307	82
357.534	96
357.761	84
357.988	83
358.215	68
358.441	69
358.668	72
358.895	69
359.122	78
359.349	74
359.576	72
359.802	73
360.029	72
360.256	81
360.483	71
360.709	88
360.936	82
361.163	81
361.39	100
361.616	97
361.843	67
362.07	86
362.296	76
362.523	93
362.749	89
362.976	78
363.203	82
363.429	84
363.656	92
363.882	83
364.109	81
364.335	87
364.562	80
364.788	87
365.015	76
365.241	79
365.468	91
365.694	74
365.92	88
366.147	86
366.373	90
366.599	90
366.826	96
367.052	76
367.278	84
367.505	87
367.731	96
367.957	89
368.184	88
368.41	95
368.636	92
368.862	89
369.089	89
369.315	96
369.541	88
369.767	83
369.993	102
370.219	91
370.445	83
370.672	80
370.898	73
371.124	79
371.35	81
371.576	98
371.802	83
372.028	85
372.254	82
372.48	97
372.706	92
372.932	95
373.158	95
373.384	102
373.61	96
373.835	87
374.061	80
374.287	92
374.513	94
374.739	93
374.965	85
375.191	88
375.416	93
375.642	86
375.868	81
376.094	92
376.319	89
376.545	84
376.771	93
376.997	86
377.222	79
377.448	90
377.674	84
377.899	86
378.125	88
378.35	89
378.576	84
378.802	78
379.027	88
379.253	98
379.478	92
379.704	105
379.929	90
380.155	97
380.38	99
380.606	87
380.831	93
381.057	97
381.282	88
381.507	95
381.733	91
381.958	97
382.184	96
382.409	83
382.634	92
382.86	102
383.085	100
383.31	81
383.535	87
383.761	81
383.986	106
384.211	94
384.436	96
384.662	107
384.887	97
385.112	84
385.337	84
385.562	88
385.787	95
386.013	109
386.238	92
386.463	86
386.688	103
386.913	102
387.138	97
387.363	99
387.588	92
387.813	97
388.038	96
388.263	106
388.488	92
388.713	99
388.938	92
389.163	96
389.387	103
389.612	98
389.837	97
390.062	105
390.287	103
390.512	105
390.736	91
390.961	89
391.186	106
391.411	93
391.636	98
391.86	95
392.085	88
392.31	107
392.534	104
392.759	97
392.984	103
393.208	100
393.433	94
393.658	85
393.882	108
394.107	99
394.331	97
394.556	97
394.78	97
395.005	103
395.229	102
395.454	111
395.678	97
395.903	101
396.127	108
396.352	105
396.576	91
396.801	122
397.025	104
397.249	113
397.474	119
397.698	118
397.922	108
398.147	109
398.371	112
398.595	118
398.82	100
399.044	104
399.268	102
399.492	100
399.717	99
399.941	113
400.165	99
400.389	115
400.613	106
400.837	102
401.062	115
401.286	100
401.51	106
401.734	100
401.958	117
402.182	112
402.406	91
402.63	102
402.854	103
403.078	108
403.302	98
403.526	121
403.75	117
403.974	104
404.198	111
404.422	93
404.645	105
404.869	116
405.093	118
405.317	102
405.541	119
405.765	110
405.988	111
406.212	120
406.436	109
406.66	108
406.883	104
407.107	116
407.331	109
407.555	121
407.778	115
408.002	113
408.226	118
408.449	115
408.673	118
408.896	118
409.12	116
409.344	104
409.567	99
409.791	105
410.014	130
410.238	119
410.461	107
410.685	127
410.908	105
411.132	116
411.355	116
411.578	103
411.802	100
412.025	99
412.249	107
412.472	130
412.695	124
412.919	111
413.142	128
413.365	127
413.589	124
413.812	118
414.035	123
414.258	122
414.482	117
414.705	97
414.928	137
415.151	125
415.374	107
415.597	121
415.821	132
416.044	104
416.267	127
416.49	111
416.713	108
416.936	129
417.159	102
417.382	111
417.605	121
417.828	127
418.051	131
418.274	137
418.497	125
418.72	130
418.943	130
419.166	144
419.389	127
419.611	133
419.834	122
420.057	126
420.28	127
420.503	123
420.726	133
420.948	115
421.171	123
421.394	123
421.617	116
421.839	130
422.062	121
422.285	122
422.507	130
422.73	124
422.953	134
423.175	130
423.398	118
423.621	123
423.843	128
424.066	134
424.288	122
424.511	131
424.733	137
424.956	115
425.178	147
425.401	139
425.623	118
425.846	135
426.068	135
426.291	115
426.513	121
426.735	118
426.958	121
427.18	117
427.402	116
427.625	139
427.847	136
428.069	116
428.292	134
428.514	117
428.736	137
428.958	121
429.181	114
429.403	145
429.625	124
429.847	117
430.069	118
430.292	113
430.514	117
430.736	130
430.958	123
431.18	118
431.402	123
431.624	111
431.846	106
432.068	96
432.29	106
432.512	120
432.734	106
432.956	139
433.178	122
433.4	123
433.622	141
433.844	128
434.066	125
434.287	106
434.509	104
434.731	101
434.953	107
435.175	115
435.397	139
435.618	105
435.84	102
436.062	102
436.284	125
436.505	113
436.727	115
436.949	124
437.17	129
437.392	138
437.614	131
437.835	108
438.057	96
438.278	114
438.5	121
438.721	126
438.943	120
439.165	125
439.386	127
439.608	151
439.829	142
440.05	154
440.272	122
440.493	153
440.715	140
440.936	143
441.158	137
441.379	130
441.6	145
441.822	139
442.043	128
442.264	139
442.486	132
442.707	136
442.928	141
443.149	132
443.371	129
443.592	147
443.813	132
444.034	130
444.255	138
444.476	133
444.698	139
444.919	122
445.14	277
445.361	209
445.582	147
445.803	155
446.024	143
446.245	148
446.466	141
446.687	155
446.908	154
447.129	146
447.35	139
447.571	144
447.792	141
448.013	143
448.234	151
448.455	136
448.675	121
448.896	140
449.117	129
449.338	133
449.559	115
449.779	134
450	141
450.221	135
450.442	134
450.662	126
450.883	131
451.104	126
451.324	145
451.545	134
451.766	117
451.986	128
452.207	121
452.428	115
452.648	145
452.869	116
453.089	117
453.31	97
453.53	97
453.751	112
453.971	106
454.192	102
454.412	117
454.633	116
454.853	121
455.073	116
455.294	121
455.514	120
455.734	119
455.955	109
456.175	113
456.395	111
456.616	119
456.836	97
457.056	120
457.276	118
457.497	98
457.717	118
457.937	102
458.157	124
458.377	106
458.598	93
458.818	86
459.038	90
459.258	82
459.478	93
459.698	78
459.918	97
460.138	101
460.358	105
460.578	104
460.798	104
461.018	101
461.238	108
461.458	122
461.678	104
461.898	95
462.118	112
462.338	122
462.558	107
462.777	116
462.997	104
463.217	107
463.437	120
463.657	108
463.876	101
464.096	104
464.316	106
464.536	112
464.755	114
464.975	120
465.195	113
465.414	103
465.634	119
465.854	117
466.073	132
466.293	124
466.512	124
466.732	123
466.951	135
467.171	133
467.391	135
467.61	137
467.829	115
468.049	141
468.268	143
468.488	139
468.707	124
468.927	131
469.146	125
469.365	139
469.585	125
469.804	142
470.023	135
470.243	152
470.462	132
470.681	141
470.901	146
471.12	133
471.339	133
471.558	137
471.777	137
471.997	117
472.216	129
472.435	130
472.654	105
472.873	108
473.092	101
473.311	100
473.53	118
473.749	127
473.968	134
474.187	129
474.406	127
474.625	120
474.844	126
475.063	128
475.282	118
475.501	136
475.72	127
475.939	126
476.158	129
476.377	130
476.596	126
476.814	96
477.033	99
477.252	103
477.471	103
477.69	127
477.908	133
478.127	135
478.346	127
478.564	136
478.783	127
479.002	139
479.22	131
479.439	127
479.658	116
479.876	111
480.095	112
480.313	103
480.532	115
480.751	112
480.969	97
481.188	74
481.406	80
481.624	95
481.843	71
482.061	93
482.28	108
482.498	111
482.717	110
482.935	121
483.153	113
483.372	144
483.59	133
483.808	130
484.027	122
484.245	135
484.463	147
484.681	140
484.9	147
485.118	148
485.336	121
485.554	116
485.772	93
485.99	103
486.209	100
486.427	104
486.645	123
486.863	151
487.081	133
487.299	137
487.517	156
487.735	176
487.953	171
488.171	172
488.389	163
488.607	162
488.825	152
489.043	132
489.261	121
489.479	126
489.696	153
489.914	135
490.132	155
490.35	146
490.568	155
490.786	160
491.003	165
491.221	168
491.439	180
491.657	182
491.874	196
492.092	215
492.31	231
492.527	215
492.745	202
492.963	192
493.18	184
493.398	195
493.615	170
493.833	168
494.05	176
494.268	182
494.485	171
494.703	161
494.92	168
495.138	167
495.355	167
495.573	163
495.79	160
496.008	179
496.225	172
496.442	164
496.66	170
496.877	154
497.094	152
497.312	153
497.529	157
497.746	158
497.963	149
498.181	127
498.398	127
498.615	109
498.832	115
499.049	125
499.267	111
499.484	113
499.701	117
499.918	145
500.135	138
500.352	130
500.569	140
500.786	132
501.003	136
501.22	145
501.437	121
501.654	131
501.871	140
502.088	127
502.305	137
502.522	139
502.739	123
502.956	131
503.172	120
503.389	124
503.606	125
503.823	122
504.04	122
504.256	112
504.473	106
504.69	119
504.907	118
505.123	122
505.34	111
505.557	117
505.773	131
505.99	113
506.207	111
506.423	120
506.64	104
506.856	119
507.073	116
507.289	129
507.506	121
507.722	124
507.939	116
508.155	121
508.372	96
508.588	107
508.805	100
509.021	100
509.238	102
509.454	96
509.67	100
509.887	81
510.103	101
510.319	93
510.536	90
510.752	84
510.968	82
511.184	90
511.401	96
511.617	84
511.833	96
512.049	89
512.265	80
512.481	96
512.698	105
512.914	94
513.13	81
513.346	101
513.562	87
513.778	86
513.994	96
514.21	89
514.426	88
514.642	84
514.858	84
515.074	75
515.29	88
515.506	71
515.721	82
515.937	82
516.153	77
516.369	81
516.585	86
516.801	88
517.016	98
517.232	87
517.448	101
517.664	100
517.879	97
518.095	94
518.311	105
518.527	80
518.742	84
518.958	97
519.173	104
519.389	97
519.605	99
519.82	93
520.036	114
520.251	111
520.467	100
520.682	100
520.898	85
521.113	86
521.329	88
521.544	76
521.76	82
521.975	94
522.19	93
522.406	96
522.621	102
522.836	101
523.052	105
523.267	97
523.482	97
523.698	111
523.913	114
524.128	116
524.343	108
524.559	128
524.774	117
524.989	117
525.204	124
525.419	115
525.634	118
525.849	117
526.064	103
526.28	97
526.495	94
526.71	73
526.925	84
527.14	75
527.355	90
527.57	90
527.785	85
527.999	96
528.214	98
528.429	113
528.644	126
528.859	123
529.074	153
529.289	149
529.503	144
529.718	129
529.933	104
530.148	121
530.363	87
530.577	90
530.792	84
531.007	69
531.221	77
531.436	96
531.651	76
531.865	80
532.08	88
532.295	87
532.509	83
532.724	77
532.938	91
533.153	92
533.367	107
533.582	123
533.796	125
534.011	122
534.225	102
534.44	87
534.654	106
534.868	91
535.083	100
535.297	105
535.511	115
535.726	96
535.94	104
536.154	86
536.369	81
536.583	81
536.797	88
537.011	88
537.225	93
537.44	85
537.654	88
537.868	82
538.082	76
538.296	108
538.51	95
538.724	114
538.938	114
539.153	131
539.367	125
539.581	108
539.795	93
540.009	92
540.222	86
540.436	78
540.65	112
540.864	119
541.078	144
541.292	137
541.506	151
541.72	179
541.934	183
542.147	205
542.361	178
542.575	156
542.789	143
543.002	135
543.216	141
543.43	127
543.644	128
543.857	140
544.071	160
544.285	164
544.498	159
544.712	164
544.925	151
545.139	156
545.352	154
545.566	148
545.779	140
545.993	154
546.206	161
546.42	157
546.633	153
546.847	167
547.06	164
547.274	180
547.487	189
547.7	167
547.914	150
548.127	149
548.34	159
548.554	173
548.767	143
548.98	136
549.193	142
549.407	148
549.62	157
549.833	149
550.046	144
550.259	153
550.473	155
550.686	145
550.899	144
551.112	147
551.325	121
551.538	133
551.751	128
551.964	112
552.177	118
552.39	136
552.603	140
552.816	151
553.029	137
553.242	160
553.455	170
553.667	144
553.88	141
554.093	149
554.306	147
554.519	147
554.732	148
554.944	138
555.157	139
555.37	160
555.583	143
555.795	129
556.008	122
556.221	137
556.433	128
556.646	132
556.859	125
557.071	129
557.284	131
557.496	141
557.709	134
557.921	156
558.134	125
558.346	132
558.559	133
558.771	130
558.984	133
559.196	141
559.409	131
559.621	122
559.833	129
560.046	145
560.258	132
560.47	126
560.683	143
560.895	114
561.107	121
561.32	125
561.532	101
561.744	119
561.956	122
562.168	120
562.381	111
562.593	119
562.805	114
563.017	121
563.229	129
563.441	108
563.653	114
563.865	111
564.077	112
564.289	123
564.501	111
564.713	129
564.925	116
565.137	123
565.349	128
565.561	111
565.773	119
565.985	120
566.197	114
566.408	128
566.62	118
566.832	115
567.044	121
567.255	112
567.467	104
567.679	106
567.891	113
568.102	99
568.314	98
568.526	81
568.737	88
568.949	80
569.161	80
569.372	80
569.584	82
569.795	79
570.007	68
570.218	95
570.43	95
570.641	80
570.853	102
571.064	90
571.276	102
571.487	105
571.698	100
571.91	96
572.121	119
572.333	112
572.544	99
572.755	97
572.966	89
573.178	95
573.389	78
573.6	64
573.811	85
574.023	81
574.234	73
574.445	70
574.656	80
574.867	92
575.078	91
575.289	77
575.501	85
575.712	85
575.923	95
576.134	76
576.345	76
576.556	91
576.767	93
576.978	105
577.188	101
577.399	85
577.61	86
577.821	77
578.032	90
578.243	80
578.454	106
578.665	89
578.875	72
579.086	76
579.297	73
579.508	74
579.718	75
579.929	84
580.14	77
580.35	74
580.561	85
580.772	82
580.982	89
581.193	84
581.403	95
581.614	98
581.825	85
582.035	95
582.246	95
582.456	91
582.667	87
582.877	97
583.087	91
583.298	91
583.508	94
583.719	84
583.929	72
584.139	82
584.35	82
584.56	73
584.77	89
584.981	84
585.191	78
585.401	84
585.611	80
585.821	84
586.032	79
586.242	84
586.452	82
586.662	88
586.872	76
587.082	89
587.292	81
587.502	75
587.713	61
587.923	75
588.133	71
588.343	79
588.553	83
588.762	67
588.972	91
589.182	87
589.392	70
589.602	75
589.812	83
590.022	82
590.232	80
590.441	73
590.651	81
590.861	76
591.071	81
591.281	74
591.49	87
591.7	85
591.91	90
592.119	89
592.329	66
592.539	81
592.748	81
592.958	87
593.167	86
593.377	88
593.587	100
593.796	89
594.006	86
594.215	89
594.424	73
594.634	85
594.843	82
595.053	103
595.262	86
595.472	93
595.681	95
595.89	72
596.1	93
596.309	91
596.518	79
596.727	81
596.937	79
597.146	90
597.355	96
597.564	91
597.774	78
597.983	93
598.192	89
598.401	88
598.61	98
598.819	91
599.028	87
599.237	97
599.446	91
599.655	91
599.864	88
600.073	93
600.282	87
600.491	94
600.7	81
600.909	90
601.118	91
601.327	102
601.536	104
601.745	104
601.953	101
602.162	108
602.371	106
602.58	102
602.789	99
602.997	103
603.206	108
603.415	112
603.623	110
603.832	111
604.041	104
604.249	84
604.458	89
604.666	87
604.875	98
605.084	98
605.292	100
605.501	94
605.709	94
605.918	113
606.126	115
606.334	100
606.543	105
606.751	112
606.96	100
607.168	96
607.376	109
607.585	99
607.793	106
608.001	101
608.21	116
608.418	104
608.626	108
608.834	109
609.043	110
609.251	99
609.459	109
609.667	121
609.875	102
610.083	99
610.291	98
610.499	108
610.707	116
610.916	105
611.124	120
611.332	106
611.54	107
611.748	113
611.955	121
612.163	119
612.371	112
612.579	112
612.787	105
612.995	115
613.203	114
613.411	122
613.618	97
613.826	113
614.034	113
614.242	107
614.449	106
614.657	103
614.865	108
615.072	105
615.28	95
615.488	109
615.695	96
615.903	116
616.111	103
616.318	107
616.526	111
616.733	106
616.941	105
617.148	100
617.356	107
617.563	98
617.771	120
617.978	105
618.185	125
618.393	106
618.6	107
618.807	106
619.015	102
619.222	97
619.429	104
619.637	85
619.844	97
620.051	104
620.258	113
620.466	96
620.673	116
620.88	107
621.087	87
621.294	115
621.501	104
621.708	113
621.915	99
622.122	101
622.329	92
622.536	103
622.743	87
622.95	112
623.157	88
623.364	97
623.571	98
623.778	106
623.985	119
624.192	106
624.399	100
624.606	99
624.812	103
625.019	113
625.226	104
625.433	107
625.639	97
625.846	86
626.053	85
626.259	95
626.466	95
626.673	80
626.879	92
627.086	95
627.293	108
627.499	97
627.706	112
627.912	98
628.119	103
628.325	111
628.532	98
628.738	98
628.945	103
629.151	97
629.357	92
629.564	92
629.77	102
629.976	94
630.183	108
630.389	106
630.595	102
630.802	96
631.008	95
631.214	100
631.42	114
631.627	92
631.833	84
632.039	87
632.245	95
632.451	101
632.657	99
632.863	83
633.069	96
633.275	106
633.481	96
633.688	79
633.893	104
634.099	91
634.305	90
634.511	97
634.717	87
634.923	78
635.129	88
635.335	90
635.541	81
635.747	89
635.952	99
636.158	97
636.364	104
636.57	96
636.775	96
636.981	104
637.187	100
637.392	79
637.598	99
637.804	98
638.009	99
638.215	100
638.421	84
638.626	102
638.832	79
639.037	92
639.243	95
639.448	98
639.654	103
639.859	97
640.065	107
640.27	111
640.475	98
640.681	99
640.886	112
641.091	100
641.297	93
641.502	90
641.707	89
641.913	94
642.118	99
642.323	95
642.528	95
642.733	108
642.939	101
643.144	92
643.349	99
643.554	98
643.759	106
643.964	101
644.169	112
644.374	96
644.579	87
644.784	96
644.989	95
645.194	96
645.399	84
645.604	96
645.809	77
646.014	89
646.219	85
646.423	113
646.628	101
646.833	87
647.038	95
647.243	88
647.447	95
647.652	90
647.857	102
648.062	86
648.266	91
648.471	79
648.676	95
648.88	88
649.085	103
649.289	84
649.494	91
649.698	98
649.903	90
650.107	87
650.312	98
650.516	90
650.721	105
650.925	100
651.13	93
651.334	80
651.539	87
651.743	83
651.947	84
652.152	102
652.356	94
652.56	90
652.764	91
652.969	93
653.173	85
653.377	84
653.581	94
653.785	105
653.99	92
654.194	71
654.398	71
654.602	80
654.806	83
655.01	81
655.214	96
655.418	77
655.622	84
655.826	101
656.03	91
656.234	99
656.438	84
656.642	99
656.846	86
657.049	83
657.253	80
657.457	84
657.661	77
657.865	81
658.068	87
658.272	91
658.476	80
658.68	76
658.883	83
659.087	85
659.291	75
659.494	79
659.698	82
659.901	81
660.105	83
660.309	83
660.512	73
660.716	84
660.919	81
661.123	76
661.326	75
661.53	69
661.733	85
661.936	84
662.14	88
662.343	68
662.546	90
662.75	80
662.953	82
663.156	77
663.36	74
663.563	77
663.766	89
663.969	81
664.173	71
664.376	83
664.579	93
664.782	84
664.985	71
665.188	75
665.391	90
665.594	94
665.797	77
666	83
666.203	89
666.406	67
666.609	92
666.812	79
667.015	86
667.218	74
667.421	87
667.624	83
667.827	84
668.03	68
668.232	58
668.435	76
668.638	74
668.841	94
669.043	77
669.246	81
669.449	78
669.651	80
669.854	72
670.057	72
670.259	70
670.462	78
670.665	75
670.867	88
671.07	81
671.272	80
671.475	76
671.677	83
671.88	76
672.082	58
672.284	69
672.487	76
672.689	80
672.892	78
