Data from Location1.07152019.Energy5.Lamp.07192019.3%Agarose_HRD10591_14-32-34-016.txt Node
Date: Fri Jul 19 14:32:34 EDT 2019
User: cochatt
Spectrometer: HR+D1059
Trigger mode: 1
Integration Time (sec): 1.000000E-1
Scans to average: 1
Electric dark correction enabled: true
Nonlinearity correction enabled: false
Boxcar width: 0
XAxis mode: Wavelengths
Number of Pixels in Spectrum: 2048
>>>>>Begin Spectral Data<<<<<
223.165	-32
223.4	-32
223.635	-32
223.869	-17
224.104	-20
224.338	-7
224.573	-8
224.808	-21
225.042	-10
225.277	-12
225.511	2
225.746	9
225.98	5
226.215	15
226.449	19
226.683	13
226.918	31
227.152	33
227.387	30
227.621	44
227.856	41
228.09	28
228.324	54
228.559	63
228.793	69
229.027	64
229.262	50
229.496	78
229.73	71
229.964	74
230.199	67
230.433	69
230.667	84
230.901	81
231.136	75
231.37	80
231.604	84
231.838	78
232.072	73
232.306	88
232.541	85
232.775	86
233.009	69
233.243	85
233.477	84
233.711	76
233.945	85
234.179	87
234.413	72
234.647	80
234.881	79
235.115	79
235.349	87
235.583	92
235.817	73
236.051	81
236.285	81
236.519	78
236.753	77
236.987	69
237.221	73
237.455	80
237.689	69
237.922	78
238.156	82
238.39	77
238.624	76
238.858	82
239.091	81
239.325	87
239.559	80
239.793	65
240.027	83
240.26	80
240.494	64
240.728	86
240.961	76
241.195	89
241.429	75
241.662	85
241.896	82
242.13	83
242.363	73
242.597	82
242.83	83
243.064	71
243.298	92
243.531	95
243.765	88
243.998	73
244.232	76
244.465	81
244.699	79
244.932	69
245.166	82
245.399	91
245.633	92
245.866	83
246.099	74
246.333	75
246.566	77
246.8	86
247.033	81
247.266	85
247.5	72
247.733	78
247.966	76
248.2	80
248.433	95
248.666	79
248.899	75
249.133	83
249.366	90
249.599	72
249.832	82
250.066	81
250.299	77
250.532	91
250.765	89
250.998	92
251.231	84
251.465	78
251.698	84
251.931	81
252.164	91
252.397	76
252.63	89
252.863	80
253.096	81
253.329	80
253.562	90
253.795	82
254.028	86
254.261	78
254.494	79
254.727	81
254.96	71
255.193	94
255.426	86
255.659	63
255.892	81
256.124	77
256.357	92
256.59	90
256.823	87
257.056	90
257.289	78
257.521	87
257.754	84
257.987	79
258.22	84
258.452	78
258.685	75
258.918	84
259.151	82
259.383	95
259.616	94
259.849	84
260.081	72
260.314	82
260.547	81
260.779	81
261.012	81
261.244	81
261.477	84
261.71	81
261.942	80
262.175	85
262.407	91
262.64	80
262.872	83
263.105	82
263.337	88
263.57	81
263.802	87
264.035	84
264.267	82
264.499	81
264.732	88
264.964	82
265.197	81
265.429	85
265.661	91
265.894	105
266.126	82
266.358	66
266.591	75
266.823	90
267.055	87
267.287	88
267.52	87
267.752	82
267.984	79
268.216	65
268.448	81
268.681	78
268.913	85
269.145	80
269.377	86
269.609	89
269.841	84
270.073	93
270.306	77
270.538	80
270.77	96
271.002	93
271.234	96
271.466	86
271.698	81
271.93	93
272.162	77
272.394	87
272.626	90
272.858	90
273.09	80
273.322	75
273.553	98
273.785	91
274.017	83
274.249	76
274.481	90
274.713	91
274.945	110
275.176	79
275.408	100
275.64	92
275.872	97
276.104	87
276.335	84
276.567	87
276.799	82
277.031	88
277.262	97
277.494	74
277.726	94
277.957	84
278.189	73
278.421	89
278.652	90
278.884	89
279.115	83
279.347	79
279.579	88
279.81	84
280.042	88
280.273	92
280.505	87
280.736	96
280.968	75
281.199	79
281.431	102
281.662	85
281.894	94
282.125	91
282.356	98
282.588	88
282.819	83
283.051	96
283.282	94
283.513	92
283.745	91
283.976	83
284.207	97
284.439	93
284.67	79
284.901	88
285.132	81
285.364	70
285.595	97
285.826	84
286.057	78
286.288	82
286.52	89
286.751	87
286.982	87
287.213	78
287.444	89
287.675	90
287.906	96
288.138	69
288.369	80
288.6	93
288.831	82
289.062	82
289.293	86
289.524	85
289.755	82
289.986	71
290.217	81
290.448	84
290.679	94
290.91	89
291.141	88
291.371	76
291.602	74
291.833	92
292.064	93
292.295	95
292.526	86
292.757	81
292.987	82
293.218	104
293.449	89
293.68	85
293.91	93
294.141	96
294.372	83
294.603	86
294.833	83
295.064	74
295.295	97
295.525	80
295.756	86
295.987	77
296.217	94
296.448	103
296.679	88
296.909	76
297.14	83
297.37	88
297.601	91
297.831	105
298.062	86
298.292	88
298.523	85
298.753	78
298.984	75
299.214	93
299.445	87
299.675	95
299.905	85
300.136	94
300.366	91
300.597	78
300.827	71
301.057	71
301.288	88
301.518	110
301.748	80
301.979	83
302.209	72
302.439	90
302.669	78
302.9	95
303.13	83
303.36	92
303.59	93
303.82	90
304.051	101
304.281	87
304.511	97
304.741	89
304.971	77
305.201	88
305.431	81
305.661	92
305.891	88
306.121	97
306.352	88
306.582	87
306.812	73
307.042	86
307.272	92
307.502	86
307.731	80
307.961	94
308.191	82
308.421	102
308.651	78
308.881	68
309.111	75
309.341	70
309.571	93
309.8	92
310.03	100
310.26	78
310.49	89
310.72	92
310.949	86
311.179	75
311.409	81
311.639	87
311.868	80
312.098	92
312.328	98
312.557	90
312.787	95
313.017	89
313.246	90
313.476	88
313.706	100
313.935	91
314.165	72
314.394	89
314.624	83
314.853	92
315.083	94
315.312	79
315.542	97
315.771	89
316.001	91
316.23	88
316.46	78
316.689	79
316.919	88
317.148	92
317.377	82
317.607	88
317.836	91
318.065	81
318.295	102
318.524	83
318.753	85
318.983	74
319.212	85
319.441	86
319.67	82
319.9	85
320.129	84
320.358	88
320.587	89
320.816	103
321.046	88
321.275	103
321.504	86
321.733	88
321.962	79
322.191	90
322.42	98
322.649	79
322.878	75
323.108	90
323.337	93
323.566	80
323.795	92
324.024	85
324.253	91
324.482	88
324.71	87
324.939	80
325.168	80
325.397	75
325.626	76
325.855	67
326.084	80
326.313	100
326.542	101
326.77	81
326.999	93
327.228	89
327.457	76
327.686	77
327.914	80
328.143	95
328.372	100
328.6	95
328.829	90
329.058	90
329.287	98
329.515	88
329.744	92
329.972	82
330.201	81
330.43	88
330.658	92
330.887	75
331.115	95
331.344	78
331.572	84
331.801	89
332.03	85
332.258	88
332.486	92
332.715	93
332.943	71
333.172	86
333.4	87
333.629	89
333.857	80
334.085	91
334.314	100
334.542	83
334.771	96
334.999	94
335.227	88
335.455	93
335.684	97
335.912	82
336.14	83
336.369	78
336.597	97
336.825	87
337.053	92
337.281	90
337.51	70
337.738	83
337.966	90
338.194	87
338.422	85
338.65	93
338.878	82
339.106	78
339.334	86
339.562	77
339.79	79
340.018	88
340.246	79
340.474	87
340.702	81
340.93	99
341.158	83
341.386	94
341.614	79
341.842	80
342.07	77
342.298	74
342.526	90
342.754	82
342.981	75
343.209	83
343.437	94
343.665	95
343.893	93
344.12	88
344.348	79
344.576	89
344.804	80
345.031	96
345.259	94
345.487	85
345.714	90
345.942	93
346.17	86
346.397	91
346.625	93
346.853	80
347.08	103
347.308	77
347.535	79
347.763	88
347.99	89
348.218	75
348.445	95
348.673	81
348.9	88
349.128	88
349.355	77
349.583	76
349.81	76
350.037	74
350.265	87
350.492	82
350.72	75
350.947	85
351.174	86
351.402	85
351.629	87
351.856	81
352.083	89
352.311	84
352.538	80
352.765	79
352.992	86
353.22	79
353.447	82
353.674	92
353.901	80
354.128	91
354.355	80
354.583	98
354.81	97
355.037	82
355.264	84
355.491	80
355.718	86
355.945	77
356.172	84
356.399	93
356.626	86
356.853	91
357.08	92
357.307	77
357.534	98
357.761	85
357.988	81
358.215	86
358.441	94
358.668	75
358.895	79
359.122	94
359.349	88
359.576	91
359.802	79
360.029	89
360.256	96
360.483	110
360.709	83
360.936	82
361.163	87
361.39	81
361.616	85
361.843	89
362.07	88
362.296	87
362.523	83
362.749	81
362.976	73
363.203	82
363.429	84
363.656	90
363.882	81
364.109	82
364.335	102
364.562	92
364.788	112
365.015	89
365.241	88
365.468	86
365.694	77
365.92	99
366.147	87
366.373	88
366.599	97
366.826	90
367.052	88
367.278	88
367.505	101
367.731	73
367.957	85
368.184	91
368.41	88
368.636	105
368.862	97
369.089	82
369.315	81
369.541	97
369.767	93
369.993	76
370.219	100
370.445	97
370.672	87
370.898	103
371.124	91
371.35	100
371.576	97
371.802	99
372.028	100
372.254	105
372.48	98
372.706	99
372.932	103
373.158	79
373.384	101
373.61	94
373.835	98
374.061	89
374.287	93
374.513	105
374.739	94
374.965	104
375.191	89
375.416	95
375.642	89
375.868	97
376.094	100
376.319	92
376.545	109
376.771	85
376.997	81
377.222	103
377.448	93
377.674	99
377.899	84
378.125	90
378.35	106
378.576	98
378.802	89
379.027	98
379.253	86
379.478	96
379.704	108
379.929	85
380.155	101
380.38	107
380.606	98
380.831	101
381.057	90
381.282	92
381.507	97
381.733	86
381.958	104
382.184	105
382.409	99
382.634	93
382.86	106
383.085	110
383.31	99
383.535	108
383.761	105
383.986	101
384.211	100
384.436	104
384.662	89
384.887	112
385.112	96
385.337	102
385.562	111
385.787	84
386.013	100
386.238	95
386.463	102
386.688	106
386.913	100
387.138	95
387.363	93
387.588	108
387.813	101
388.038	97
388.263	112
388.488	107
388.713	119
388.938	105
389.163	103
389.387	110
389.612	99
389.837	104
390.062	96
390.287	100
390.512	127
390.736	100
390.961	105
391.186	108
391.411	98
391.636	109
391.86	122
392.085	98
392.31	110
392.534	122
392.759	104
392.984	116
393.208	97
393.433	114
393.658	98
393.882	114
394.107	117
394.331	121
394.556	109
394.78	112
395.005	108
395.229	121
395.454	124
395.678	106
395.903	112
396.127	117
396.352	120
396.576	104
396.801	104
397.025	108
397.249	105
397.474	103
397.698	119
397.922	118
398.147	104
398.371	104
398.595	108
398.82	117
399.044	113
399.268	108
399.492	107
399.717	115
399.941	96
400.165	117
400.389	110
400.613	114
400.837	119
401.062	118
401.286	106
401.51	112
401.734	117
401.958	121
402.182	123
402.406	121
402.63	103
402.854	118
403.078	123
403.302	128
403.526	120
403.75	113
403.974	121
404.198	124
404.422	136
404.645	122
404.869	117
405.093	124
405.317	116
405.541	111
405.765	128
405.988	118
406.212	124
406.436	126
406.66	129
406.883	120
407.107	106
407.331	110
407.555	119
407.778	130
408.002	114
408.226	111
408.449	123
408.673	116
408.896	125
409.12	113
409.344	109
409.567	117
409.791	118
410.014	131
410.238	122
410.461	104
410.685	127
410.908	127
411.132	125
411.355	120
411.578	120
411.802	130
412.025	137
412.249	110
412.472	130
412.695	119
412.919	119
413.142	125
413.365	128
413.589	125
413.812	114
414.035	114
414.258	117
414.482	126
414.705	118
414.928	105
415.151	123
415.374	135
415.597	139
415.821	129
416.044	128
416.267	136
416.49	131
416.713	113
416.936	113
417.159	125
417.382	136
417.605	120
417.828	141
418.051	128
418.274	138
418.497	140
418.72	125
418.943	131
419.166	140
419.389	135
419.611	141
419.834	138
420.057	134
420.28	121
420.503	129
420.726	136
420.948	140
421.171	137
421.394	144
421.617	145
421.839	145
422.062	137
422.285	122
422.507	149
422.73	137
422.953	119
423.175	127
423.398	130
423.621	131
423.843	116
424.066	135
424.288	151
424.511	143
424.733	149
424.956	130
425.178	143
425.401	140
425.623	128
425.846	142
426.068	120
426.291	131
426.513	135
426.735	134
426.958	129
427.18	125
427.402	136
427.625	134
427.847	132
428.069	137
428.292	123
428.514	123
428.736	128
428.958	120
429.181	135
429.403	130
429.625	132
429.847	118
430.069	127
430.292	129
430.514	124
430.736	122
430.958	132
431.18	120
431.402	126
431.624	132
431.846	112
432.068	105
432.29	95
432.512	114
432.734	119
432.956	138
433.178	138
433.4	136
433.622	139
433.844	155
434.066	125
434.287	108
434.509	93
434.731	94
434.953	112
435.175	116
435.397	130
435.618	134
435.84	118
436.062	125
436.284	121
436.505	134
436.727	139
436.949	137
437.17	139
437.392	128
437.614	134
437.835	119
438.057	115
438.278	125
438.5	123
438.721	122
438.943	136
439.165	143
439.386	137
439.608	129
439.829	135
440.05	150
440.272	153
440.493	130
440.715	146
440.936	141
441.158	139
441.379	156
441.6	145
441.822	166
442.043	142
442.264	142
442.486	143
442.707	127
442.928	152
443.149	135
443.371	119
443.592	148
443.813	134
444.034	152
444.255	138
444.476	151
444.698	134
444.919	134
445.14	251
445.361	174
445.582	143
445.803	152
446.024	148
446.245	153
446.466	164
446.687	145
446.908	168
447.129	165
447.35	140
447.571	163
447.792	153
448.013	148
448.234	160
448.455	142
448.675	139
448.896	150
449.117	143
449.338	126
449.559	148
449.779	133
450	140
450.221	136
450.442	137
450.662	136
450.883	128
451.104	146
451.324	142
451.545	131
451.766	138
451.986	122
452.207	136
452.428	124
452.648	132
452.869	120
453.089	126
453.31	115
453.53	110
453.751	109
453.971	88
454.192	105
454.412	99
454.633	127
454.853	126
455.073	111
455.294	127
455.514	128
455.734	104
455.955	112
456.175	108
456.395	113
456.616	104
456.836	125
457.056	122
457.276	96
457.497	105
457.717	98
457.937	108
458.157	105
458.377	108
458.598	96
458.818	100
459.038	89
459.258	80
459.478	94
459.698	100
459.918	104
460.138	106
460.358	125
460.578	121
460.798	116
461.018	118
461.238	112
461.458	126
461.678	93
461.898	100
462.118	127
462.338	118
462.558	109
462.777	115
462.997	113
463.217	107
463.437	115
463.657	101
463.876	110
464.096	124
464.316	94
464.536	122
464.755	117
464.975	92
465.195	138
465.414	132
465.634	107
465.854	123
466.073	120
466.293	125
466.512	124
466.732	124
466.951	134
467.171	141
467.391	138
467.61	130
467.829	127
468.049	152
468.268	133
468.488	125
468.707	147
468.927	138
469.146	134
469.365	144
469.585	138
469.804	155
470.023	133
470.243	140
470.462	156
470.681	146
470.901	145
471.12	144
471.339	160
471.558	137
471.777	138
471.997	141
472.216	121
472.435	129
472.654	122
472.873	107
473.092	113
473.311	125
473.53	129
473.749	122
473.968	127
474.187	114
474.406	128
474.625	128
474.844	124
475.063	139
475.282	157
475.501	120
475.72	128
475.939	137
476.158	125
476.377	128
476.596	118
476.814	107
477.033	110
477.252	128
477.471	112
477.69	142
477.908	144
478.127	147
478.346	141
478.564	149
478.783	132
479.002	130
479.22	141
479.439	136
479.658	127
479.876	122
480.095	114
480.313	106
480.532	112
480.751	122
480.969	98
481.188	94
481.406	77
481.624	94
481.843	98
482.061	113
482.28	122
482.498	118
482.717	119
482.935	126
483.153	142
483.372	164
483.59	137
483.808	138
484.027	143
484.245	140
484.463	159
484.681	161
484.9	158
485.118	134
485.336	129
485.554	118
485.772	118
485.99	106
486.209	110
486.427	122
486.645	122
486.863	139
487.081	142
487.299	147
487.517	151
487.735	171
487.953	178
488.171	175
488.389	172
488.607	166
488.825	146
489.043	134
489.261	128
489.479	150
489.696	139
489.914	139
490.132	163
490.35	145
490.568	156
490.786	176
491.003	165
491.221	176
491.439	168
491.657	186
491.874	195
492.092	216
492.31	256
492.527	229
492.745	204
492.963	191
493.18	193
493.398	184
493.615	182
493.833	173
494.05	180
494.268	180
494.485	154
494.703	168
494.92	172
495.138	166
495.355	173
495.573	170
495.79	177
496.008	159
496.225	161
496.442	164
496.66	163
496.877	159
497.094	161
497.312	163
497.529	150
497.746	150
497.963	144
498.181	135
498.398	117
498.615	116
498.832	96
499.049	118
499.267	131
499.484	131
499.701	142
499.918	135
500.135	147
500.352	140
500.569	150
500.786	132
501.003	147
501.22	119
501.437	129
501.654	118
501.871	126
502.088	147
502.305	144
502.522	130
502.739	128
502.956	133
503.172	122
503.389	135
503.606	120
503.823	116
504.04	124
504.256	123
504.473	111
504.69	132
504.907	124
505.123	107
505.34	117
505.557	129
505.773	120
505.99	125
506.207	123
506.423	126
506.64	118
506.856	120
507.073	124
507.289	128
507.506	116
507.722	113
507.939	132
508.155	106
508.372	125
508.588	120
508.805	110
509.021	113
509.238	118
509.454	111
509.67	105
509.887	96
510.103	97
510.319	97
510.536	99
510.752	95
510.968	99
511.184	96
511.401	89
511.617	102
511.833	92
512.049	96
512.265	97
512.481	90
512.698	99
512.914	103
513.13	97
513.346	87
513.562	100
513.778	85
513.994	96
514.21	96
514.426	97
514.642	93
514.858	88
515.074	76
515.29	76
515.506	85
515.721	87
515.937	74
516.153	91
516.369	86
516.585	85
516.801	87
517.016	101
517.232	86
517.448	82
517.664	95
517.879	99
518.095	109
518.311	89
518.527	94
518.742	89
518.958	100
519.173	92
519.389	118
519.605	102
519.82	114
520.036	106
520.251	125
520.467	89
520.682	88
520.898	101
521.113	92
521.329	91
521.544	99
521.76	103
521.975	97
522.19	96
522.406	96
522.621	99
522.836	114
523.052	95
523.267	110
523.482	109
523.698	110
523.913	102
524.128	104
524.343	130
524.559	113
524.774	117
524.989	119
525.204	129
525.419	106
525.634	125
525.849	108
526.064	104
526.28	93
526.495	90
526.71	83
526.925	77
527.14	94
527.355	97
527.57	84
527.785	70
527.999	94
528.214	111
528.429	128
528.644	127
528.859	145
529.074	158
529.289	148
529.503	162
529.718	142
529.933	128
530.148	122
530.363	123
530.577	86
530.792	96
531.007	76
531.221	81
531.436	86
531.651	88
531.865	97
532.08	81
532.295	108
532.509	85
532.724	86
532.938	87
533.153	104
533.367	105
533.582	106
533.796	117
534.011	110
534.225	101
534.44	99
534.654	100
534.868	93
535.083	98
535.297	89
535.511	108
535.726	115
535.94	94
536.154	96
536.369	80
536.583	99
536.797	81
537.011	96
537.225	95
537.44	92
537.654	105
537.868	99
538.082	96
538.296	109
538.51	104
538.724	109
538.938	127
539.153	127
539.367	129
539.581	113
539.795	98
540.009	100
540.222	94
540.436	109
540.65	114
540.864	119
541.078	138
541.292	149
541.506	142
541.72	170
541.934	184
542.147	207
542.361	173
542.575	160
542.789	160
543.002	140
543.216	110
543.43	128
543.644	128
543.857	135
544.071	156
544.285	170
544.498	136
544.712	152
544.925	151
545.139	167
545.352	157
545.566	164
545.779	163
545.993	150
546.206	167
546.42	154
546.633	154
546.847	172
547.06	173
547.274	167
547.487	168
547.7	173
547.914	176
548.127	154
548.34	175
548.554	156
548.767	143
548.98	143
549.193	162
549.407	154
549.62	157
549.833	144
550.046	156
550.259	146
550.473	140
550.686	158
550.899	142
551.112	144
551.325	152
551.538	140
551.751	131
551.964	121
552.177	130
552.39	137
552.603	156
552.816	157
553.029	138
553.242	165
553.455	169
553.667	178
553.88	156
554.093	161
554.306	146
554.519	146
554.732	152
554.944	157
555.157	143
555.37	152
555.583	142
555.795	155
556.008	135
556.221	145
556.433	136
556.646	140
556.859	131
557.071	147
557.284	142
557.496	147
557.709	136
557.921	147
558.134	136
558.346	155
558.559	134
558.771	137
558.984	141
559.196	120
559.409	127
559.621	132
559.833	129
560.046	126
560.258	130
560.47	125
560.683	140
560.895	126
561.107	120
561.32	126
561.532	129
561.744	132
561.956	124
562.168	126
562.381	125
562.593	131
562.805	113
563.017	130
563.229	140
563.441	132
563.653	116
563.865	110
564.077	125
564.289	123
564.501	116
564.713	114
564.925	132
565.137	116
565.349	124
565.561	126
565.773	134
565.985	128
566.197	120
566.408	121
566.62	121
566.832	128
567.044	109
567.255	136
567.467	98
567.679	114
567.891	106
568.102	113
568.314	92
568.526	87
568.737	104
568.949	81
569.161	94
569.372	93
569.584	80
569.795	89
570.007	89
570.218	98
570.43	97
570.641	98
570.853	101
571.064	98
571.276	97
571.487	93
571.698	102
571.91	116
572.121	114
572.333	105
572.544	97
572.755	100
572.966	94
573.178	95
573.389	107
573.6	83
573.811	87
574.023	85
574.234	81
574.445	92
574.656	94
574.867	99
575.078	103
575.289	101
575.501	91
575.712	101
575.923	100
576.134	81
576.345	87
576.556	102
576.767	99
576.978	112
577.188	114
577.399	87
577.61	78
577.821	92
578.032	101
578.243	98
578.454	106
578.665	101
578.875	102
579.086	85
579.297	80
579.508	92
579.718	93
579.929	82
580.14	89
580.35	70
580.561	90
580.772	100
580.982	86
581.193	77
581.403	100
581.614	107
581.825	85
582.035	82
582.246	82
582.456	93
582.667	101
582.877	87
583.087	82
583.298	82
583.508	83
583.719	83
583.929	86
584.139	84
584.35	85
584.56	104
584.77	89
584.981	89
585.191	79
585.401	72
585.611	80
585.821	75
586.032	86
586.242	79
586.452	79
586.662	96
586.872	91
587.082	93
587.292	83
587.502	89
587.713	86
587.923	95
588.133	73
588.343	94
588.553	76
588.762	84
588.972	89
589.182	101
589.392	88
589.602	65
589.812	84
590.022	95
590.232	91
590.441	94
590.651	80
590.861	79
591.071	80
591.281	87
591.49	92
591.7	101
591.91	84
592.119	85
592.329	93
592.539	93
592.748	89
592.958	95
593.167	89
593.377	87
593.587	87
593.796	81
594.006	93
594.215	90
594.424	87
594.634	103
594.843	89
595.053	105
595.262	90
595.472	88
595.681	96
595.89	89
596.1	91
596.309	114
596.518	81
596.727	80
596.937	108
597.146	100
597.355	94
597.564	93
597.774	94
597.983	88
598.192	93
598.401	112
598.61	86
598.819	98
599.028	94
599.237	94
599.446	89
599.655	97
599.864	89
600.073	90
600.282	96
600.491	106
600.7	106
600.909	117
601.118	93
601.327	117
601.536	123
601.745	121
601.953	105
602.162	112
602.371	111
602.58	95
602.789	102
602.997	122
603.206	116
603.415	119
603.623	113
603.832	111
604.041	122
604.249	97
604.458	93
604.666	89
604.875	99
605.084	108
605.292	91
605.501	126
605.709	118
605.918	105
606.126	126
606.334	127
606.543	119
606.751	112
606.96	119
607.168	108
607.376	108
607.585	107
607.793	117
608.001	112
608.21	112
608.418	104
608.626	118
608.834	111
609.043	118
609.251	110
609.459	123
609.667	120
609.875	107
610.083	124
610.291	102
610.499	109
610.707	120
610.916	102
611.124	124
611.332	118
611.54	116
611.748	118
611.955	116
612.163	100
612.371	116
612.579	93
612.787	116
612.995	116
613.203	117
613.411	111
613.618	101
613.826	123
614.034	108
614.242	124
614.449	127
614.657	102
614.865	109
615.072	101
615.28	104
615.488	100
615.695	108
615.903	112
616.111	112
616.318	114
616.526	123
616.733	108
616.941	109
617.148	117
617.356	110
617.563	107
617.771	117
617.978	114
618.185	120
618.393	103
618.6	116
618.807	112
619.015	120
619.222	113
619.429	104
619.637	102
619.844	110
620.051	104
620.258	117
620.466	100
620.673	107
620.88	118
621.087	100
621.294	116
621.501	104
621.708	95
621.915	120
622.122	106
622.329	118
622.536	106
622.743	93
622.95	113
623.157	120
623.364	104
623.571	108
623.778	110
623.985	121
624.192	88
624.399	104
624.606	113
624.812	116
625.019	111
625.226	96
625.433	101
625.639	96
625.846	106
626.053	105
626.259	97
626.466	105
626.673	98
626.879	88
627.086	98
627.293	110
627.499	89
627.706	101
627.912	113
628.119	107
628.325	110
628.532	110
628.738	125
628.945	101
629.151	96
629.357	105
629.564	103
629.77	94
629.976	105
630.183	111
630.389	105
630.595	99
630.802	107
631.008	99
631.214	99
631.42	96
631.627	97
631.833	97
632.039	87
632.245	105
632.451	110
632.657	109
632.863	108
633.069	110
633.275	107
633.481	108
633.688	98
633.893	104
634.099	105
634.305	102
634.511	107
634.717	94
634.923	106
635.129	108
635.335	93
635.541	96
635.747	97
635.952	90
636.158	96
636.364	104
636.57	97
636.775	108
636.981	112
637.187	103
637.392	113
637.598	104
637.804	112
638.009	112
638.215	113
638.421	118
638.626	105
638.832	119
639.037	96
639.243	97
639.448	108
639.654	87
639.859	114
640.065	100
640.27	110
640.475	96
640.681	113
640.886	119
641.091	94
641.297	96
641.502	102
641.707	98
641.913	96
642.118	114
642.323	107
642.528	104
642.733	94
642.939	106
643.144	114
643.349	102
643.554	97
643.759	100
643.964	88
644.169	87
644.374	102
644.579	93
644.784	88
644.989	94
645.194	107
645.399	90
645.604	108
645.809	103
646.014	93
646.219	102
646.423	105
646.628	107
646.833	104
647.038	107
647.243	96
647.447	98
647.652	105
647.857	102
648.062	105
648.266	90
648.471	99
648.676	93
648.88	95
649.085	114
649.289	103
649.494	126
649.698	99
649.903	91
650.107	99
650.312	89
650.516	102
650.721	105
650.925	109
651.13	94
651.334	114
651.539	88
651.743	98
651.947	114
652.152	101
652.356	80
652.56	105
652.764	97
652.969	104
653.173	98
653.377	105
653.581	76
653.785	108
653.99	94
654.194	86
654.398	101
654.602	102
654.806	91
655.01	86
655.214	81
655.418	88
655.622	95
655.826	79
656.03	76
656.234	91
656.438	94
656.642	87
656.846	77
657.049	88
657.253	76
657.457	82
657.661	93
657.865	98
658.068	91
658.272	92
658.476	87
658.68	81
658.883	87
659.087	81
659.291	92
659.494	79
659.698	99
659.901	78
660.105	90
660.309	88
660.512	83
660.716	92
660.919	94
661.123	85
661.326	89
661.53	89
661.733	91
661.936	83
662.14	76
662.343	87
662.546	70
662.75	76
662.953	88
663.156	89
663.36	81
663.563	93
663.766	95
663.969	77
664.173	88
664.376	80
664.579	86
664.782	85
664.985	92
665.188	82
665.391	93
665.594	90
665.797	91
666	87
666.203	78
666.406	57
666.609	79
666.812	84
667.015	81
667.218	73
667.421	89
667.624	56
667.827	76
668.03	80
668.232	80
668.435	81
668.638	86
668.841	77
669.043	86
669.246	88
669.449	72
669.651	74
669.854	74
670.057	90
670.259	86
670.462	83
670.665	83
670.867	82
671.07	70
671.272	86
671.475	88
671.677	77
671.88	86
672.082	82
672.284	80
672.487	94
672.689	75
672.892	80
