Data from Location1.07152019.Energy5.Lamp.07192019.3%Agarose_HRD10591_14-32-40-015.txt Node
Date: Fri Jul 19 14:32:40 EDT 2019
User: cochatt
Spectrometer: HR+D1059
Trigger mode: 1
Integration Time (sec): 1.000000E-1
Scans to average: 1
Electric dark correction enabled: true
Nonlinearity correction enabled: false
Boxcar width: 0
XAxis mode: Wavelengths
Number of Pixels in Spectrum: 2048
>>>>>Begin Spectral Data<<<<<
223.165	-6
223.4	-6
223.635	-6
223.869	-11
224.104	-26
224.338	-8
224.573	-24
224.808	-20
225.042	-4
225.277	-9
225.511	5
225.746	7
225.98	13
226.215	10
226.449	8
226.683	17
226.918	13
227.152	35
227.387	44
227.621	37
227.856	44
228.09	47
228.324	50
228.559	39
228.793	53
229.027	65
229.262	75
229.496	54
229.73	63
229.964	72
230.199	81
230.433	63
230.667	68
230.901	81
231.136	78
231.37	87
231.604	84
231.838	73
232.072	74
232.306	87
232.541	79
232.775	71
233.009	76
233.243	86
233.477	78
233.711	85
233.945	89
234.179	75
234.413	87
234.647	85
234.881	73
235.115	98
235.349	75
235.583	83
235.817	72
236.051	78
236.285	72
236.519	78
236.753	74
236.987	81
237.221	79
237.455	77
237.689	70
237.922	75
238.156	86
238.39	87
238.624	78
238.858	81
239.091	93
239.325	80
239.559	78
239.793	94
240.027	83
240.26	74
240.494	73
240.728	73
240.961	61
241.195	79
241.429	91
241.662	76
241.896	72
242.13	69
242.363	70
242.597	74
242.83	82
243.064	75
243.298	83
243.531	73
243.765	71
243.998	79
244.232	83
244.465	76
244.699	81
244.932	85
245.166	62
245.399	83
245.633	83
245.866	81
246.099	67
246.333	90
246.566	77
246.8	73
247.033	73
247.266	76
247.5	72
247.733	75
247.966	79
248.2	76
248.433	81
248.666	65
248.899	71
249.133	90
249.366	81
249.599	74
249.832	71
250.066	84
250.299	87
250.532	93
250.765	73
250.998	69
251.231	80
251.465	71
251.698	73
251.931	84
252.164	66
252.397	73
252.63	84
252.863	87
253.096	84
253.329	88
253.562	80
253.795	83
254.028	91
254.261	85
254.494	59
254.727	77
254.96	77
255.193	77
255.426	79
255.659	76
255.892	79
256.124	86
256.357	83
256.59	76
256.823	90
257.056	79
257.289	76
257.521	65
257.754	74
257.987	88
258.22	83
258.452	87
258.685	87
258.918	67
259.151	93
259.383	87
259.616	77
259.849	85
260.081	91
260.314	95
260.547	70
260.779	78
261.012	82
261.244	80
261.477	99
261.71	65
261.942	80
262.175	81
262.407	69
262.64	77
262.872	71
263.105	75
263.337	75
263.57	71
263.802	81
264.035	81
264.267	62
264.499	86
264.732	81
264.964	79
265.197	85
265.429	88
265.661	87
265.894	81
266.126	94
266.358	84
266.591	78
266.823	67
267.055	77
267.287	77
267.52	73
267.752	75
267.984	83
268.216	89
268.448	95
268.681	88
268.913	85
269.145	85
269.377	84
269.609	76
269.841	91
270.073	84
270.306	78
270.538	78
270.77	82
271.002	86
271.234	88
271.466	93
271.698	77
271.93	95
272.162	95
272.394	90
272.626	82
272.858	73
273.09	79
273.322	88
273.553	83
273.785	92
274.017	69
274.249	86
274.481	94
274.713	92
274.945	74
275.176	75
275.408	85
275.64	83
275.872	90
276.104	77
276.335	84
276.567	79
276.799	79
277.031	90
277.262	94
277.494	87
277.726	80
277.957	87
278.189	98
278.421	94
278.652	87
278.884	75
279.115	90
279.347	83
279.579	89
279.81	85
280.042	76
280.273	82
280.505	82
280.736	80
280.968	77
281.199	90
281.431	80
281.662	100
281.894	78
282.125	76
282.356	91
282.588	92
282.819	87
283.051	90
283.282	74
283.513	99
283.745	75
283.976	70
284.207	83
284.439	87
284.67	80
284.901	70
285.132	97
285.364	91
285.595	81
285.826	73
286.057	70
286.288	80
286.52	84
286.751	85
286.982	80
287.213	84
287.444	106
287.675	88
287.906	90
288.138	76
288.369	92
288.6	80
288.831	84
289.062	90
289.293	73
289.524	77
289.755	79
289.986	74
290.217	81
290.448	87
290.679	87
290.91	88
291.141	79
291.371	93
291.602	96
291.833	82
292.064	79
292.295	76
292.526	82
292.757	76
292.987	75
293.218	101
293.449	84
293.68	71
293.91	87
294.141	94
294.372	92
294.603	74
294.833	79
295.064	85
295.295	88
295.525	82
295.756	84
295.987	97
296.217	91
296.448	86
296.679	83
296.909	81
297.14	69
297.37	88
297.601	80
297.831	87
298.062	88
298.292	94
298.523	86
298.753	85
298.984	81
299.214	89
299.445	80
299.675	85
299.905	89
300.136	82
300.366	83
300.597	76
300.827	87
301.057	89
301.288	93
301.518	78
301.748	76
301.979	86
302.209	82
302.439	85
302.669	85
302.9	85
303.13	82
303.36	85
303.59	88
303.82	85
304.051	91
304.281	89
304.511	90
304.741	92
304.971	91
305.201	83
305.431	81
305.661	83
305.891	79
306.121	93
306.352	94
306.582	87
306.812	89
307.042	79
307.272	80
307.502	97
307.731	102
307.961	82
308.191	88
308.421	90
308.651	85
308.881	103
309.111	95
309.341	93
309.571	81
309.8	98
310.03	83
310.26	85
310.49	79
310.72	94
310.949	73
311.179	85
311.409	71
311.639	87
311.868	76
312.098	75
312.328	88
312.557	95
312.787	87
313.017	83
313.246	92
313.476	97
313.706	97
313.935	82
314.165	76
314.394	78
314.624	71
314.853	90
315.083	83
315.312	82
315.542	93
315.771	86
316.001	83
316.23	75
316.46	89
316.689	83
316.919	95
317.148	86
317.377	86
317.607	90
317.836	84
318.065	91
318.295	94
318.524	82
318.753	83
318.983	90
319.212	105
319.441	81
319.67	90
319.9	82
320.129	85
320.358	85
320.587	78
320.816	88
321.046	83
321.275	74
321.504	89
321.733	85
321.962	83
322.191	86
322.42	86
322.649	87
322.878	93
323.108	79
323.337	83
323.566	93
323.795	84
324.024	87
324.253	97
324.482	90
324.71	79
324.939	69
325.168	80
325.397	87
325.626	81
325.855	74
326.084	90
326.313	82
326.542	75
326.77	87
326.999	97
327.228	91
327.457	78
327.686	89
327.914	83
328.143	107
328.372	86
328.6	82
328.829	83
329.058	78
329.287	82
329.515	86
329.744	96
329.972	85
330.201	87
330.43	89
330.658	92
330.887	85
331.115	85
331.344	88
331.572	83
331.801	91
332.03	91
332.258	84
332.486	86
332.715	84
332.943	91
333.172	79
333.4	76
333.629	96
333.857	73
334.085	72
334.314	88
334.542	95
334.771	75
334.999	79
335.227	80
335.455	79
335.684	79
335.912	84
336.14	77
336.369	83
336.597	90
336.825	74
337.053	98
337.281	94
337.51	66
337.738	63
337.966	87
338.194	81
338.422	86
338.65	83
338.878	94
339.106	83
339.334	85
339.562	77
339.79	78
340.018	75
340.246	87
340.474	92
340.702	87
340.93	88
341.158	96
341.386	94
341.614	93
341.842	98
342.07	86
342.298	107
342.526	81
342.754	87
342.981	87
343.209	87
343.437	77
343.665	76
343.893	72
344.12	75
344.348	83
344.576	88
344.804	90
345.031	71
345.259	97
345.487	84
345.714	83
345.942	81
346.17	90
346.397	85
346.625	85
346.853	80
347.08	81
347.308	80
347.535	89
347.763	91
347.99	75
348.218	94
348.445	91
348.673	81
348.9	85
349.128	74
349.355	82
349.583	87
349.81	78
350.037	81
350.265	101
350.492	84
350.72	86
350.947	77
351.174	83
351.402	75
351.629	89
351.856	91
352.083	77
352.311	87
352.538	80
352.765	80
352.992	79
353.22	78
353.447	84
353.674	86
353.901	80
354.128	65
354.355	82
354.583	85
354.81	77
355.037	78
355.264	91
355.491	83
355.718	87
355.945	89
356.172	80
356.399	79
356.626	83
356.853	78
357.08	87
357.307	92
357.534	91
357.761	71
357.988	83
358.215	83
358.441	75
358.668	81
358.895	80
359.122	102
359.349	87
359.576	103
359.802	86
360.029	75
360.256	84
360.483	75
360.709	79
360.936	81
361.163	90
361.39	76
361.616	79
361.843	93
362.07	89
362.296	86
362.523	86
362.749	87
362.976	82
363.203	77
363.429	73
363.656	92
363.882	77
364.109	81
364.335	78
364.562	94
364.788	68
365.015	94
365.241	84
365.468	91
365.694	75
365.92	93
366.147	93
366.373	69
366.599	76
366.826	82
367.052	89
367.278	97
367.505	83
367.731	76
367.957	98
368.184	90
368.41	86
368.636	93
368.862	91
369.089	91
369.315	88
369.541	79
369.767	98
369.993	83
370.219	99
370.445	86
370.672	87
370.898	89
371.124	84
371.35	97
371.576	94
371.802	112
372.028	93
372.254	98
372.48	93
372.706	89
372.932	86
373.158	103
373.384	88
373.61	89
373.835	98
374.061	83
374.287	93
374.513	89
374.739	82
374.965	93
375.191	97
375.416	93
375.642	101
375.868	97
376.094	77
376.319	97
376.545	92
376.771	87
376.997	95
377.222	92
377.448	87
377.674	116
377.899	105
378.125	84
378.35	94
378.576	80
378.802	82
379.027	94
379.253	93
379.478	117
379.704	88
379.929	101
380.155	101
380.38	113
380.606	97
380.831	100
381.057	109
381.282	87
381.507	87
381.733	102
381.958	102
382.184	103
382.409	78
382.634	107
382.86	94
383.085	90
383.31	104
383.535	105
383.761	77
383.986	83
384.211	94
384.436	102
384.662	87
384.887	92
385.112	74
385.337	101
385.562	98
385.787	103
386.013	113
386.238	100
386.463	115
386.688	111
386.913	91
387.138	100
387.363	96
387.588	91
387.813	102
388.038	94
388.263	104
388.488	103
388.713	113
388.938	82
389.163	106
389.387	97
389.612	105
389.837	99
390.062	103
390.287	109
390.512	104
390.736	94
390.961	110
391.186	117
391.411	100
391.636	102
391.86	99
392.085	93
392.31	107
392.534	106
392.759	103
392.984	92
393.208	102
393.433	104
393.658	106
393.882	120
394.107	97
394.331	91
394.556	95
394.78	110
395.005	82
395.229	115
395.454	98
395.678	125
395.903	106
396.127	115
396.352	102
396.576	105
396.801	97
397.025	107
397.249	107
397.474	113
397.698	95
397.922	109
398.147	108
398.371	107
398.595	114
398.82	103
399.044	99
399.268	108
399.492	113
399.717	119
399.941	119
400.165	107
400.389	108
400.613	107
400.837	110
401.062	95
401.286	109
401.51	115
401.734	102
401.958	125
402.182	107
402.406	109
402.63	101
402.854	110
403.078	107
403.302	123
403.526	128
403.75	117
403.974	108
404.198	129
404.422	107
404.645	123
404.869	124
405.093	100
405.317	115
405.541	93
405.765	111
405.988	113
406.212	119
406.436	137
406.66	121
406.883	116
407.107	115
407.331	122
407.555	123
407.778	109
408.002	123
408.226	107
408.449	127
408.673	126
408.896	120
409.12	105
409.344	105
409.567	103
409.791	125
410.014	118
410.238	124
410.461	117
410.685	124
410.908	108
411.132	117
411.355	129
411.578	113
411.802	117
412.025	105
412.249	125
412.472	123
412.695	115
412.919	98
413.142	111
413.365	122
413.589	127
413.812	117
414.035	122
414.258	113
414.482	110
414.705	107
414.928	129
415.151	122
415.374	135
415.597	123
415.821	114
416.044	116
416.267	131
416.49	120
416.713	115
416.936	133
417.159	115
417.382	107
417.605	125
417.828	126
418.051	128
418.274	139
418.497	120
418.72	125
418.943	111
419.166	130
419.389	128
419.611	131
419.834	137
420.057	130
420.28	138
420.503	118
420.726	108
420.948	127
421.171	130
421.394	123
421.617	135
421.839	140
422.062	143
422.285	137
422.507	130
422.73	120
422.953	106
423.175	137
423.398	122
423.621	133
423.843	125
424.066	126
424.288	139
424.511	135
424.733	137
424.956	131
425.178	127
425.401	141
425.623	125
425.846	147
426.068	108
426.291	126
426.513	123
426.735	130
426.958	141
427.18	123
427.402	122
427.625	110
427.847	129
428.069	135
428.292	131
428.514	122
428.736	129
428.958	137
429.181	128
429.403	125
429.625	121
429.847	124
430.069	123
430.292	129
430.514	130
430.736	135
430.958	120
431.18	118
431.402	117
431.624	117
431.846	113
432.068	101
432.29	99
432.512	111
432.734	124
432.956	121
433.178	138
433.4	133
433.622	145
433.844	123
434.066	122
434.287	97
434.509	89
434.731	97
434.953	108
435.175	99
435.397	127
435.618	118
435.84	106
436.062	117
436.284	127
436.505	130
436.727	134
436.949	124
437.17	118
437.392	116
437.614	114
437.835	112
438.057	110
438.278	121
438.5	126
438.721	129
438.943	131
439.165	151
439.386	132
439.608	151
439.829	163
440.05	135
440.272	148
440.493	125
440.715	131
440.936	143
441.158	137
441.379	143
441.6	145
441.822	140
442.043	133
442.264	137
442.486	140
442.707	133
442.928	141
443.149	138
443.371	130
443.592	147
443.813	131
444.034	148
444.255	136
444.476	131
444.698	129
444.919	130
445.14	252
445.361	192
445.582	137
445.803	127
446.024	149
446.245	140
446.466	151
446.687	150
446.908	174
447.129	150
447.35	159
447.571	152
447.792	125
448.013	144
448.234	142
448.455	139
448.675	160
448.896	139
449.117	133
449.338	126
449.559	127
449.779	129
450	130
450.221	122
450.442	135
450.662	141
450.883	133
451.104	134
451.324	131
451.545	124
451.766	117
451.986	115
452.207	117
452.428	124
452.648	126
452.869	111
453.089	114
453.31	125
453.53	117
453.751	115
453.971	100
454.192	110
454.412	100
454.633	103
454.853	116
455.073	115
455.294	115
455.514	130
455.734	113
455.955	116
456.175	120
456.395	117
456.616	112
456.836	98
457.056	103
457.276	119
457.497	102
457.717	113
457.937	113
458.157	95
458.377	93
458.598	101
458.818	100
459.038	91
459.258	94
459.478	76
459.698	78
459.918	104
460.138	108
460.358	111
460.578	123
460.798	111
461.018	102
461.238	115
461.458	112
461.678	114
461.898	97
462.118	123
462.338	111
462.558	114
462.777	108
462.997	103
463.217	113
463.437	106
463.657	110
463.876	106
464.096	105
464.316	102
464.536	101
464.755	104
464.975	122
465.195	116
465.414	121
465.634	118
465.854	108
466.073	124
466.293	117
466.512	122
466.732	114
466.951	134
467.171	130
467.391	135
467.61	146
467.829	132
468.049	128
468.268	137
468.488	130
468.707	139
468.927	125
469.146	129
469.365	146
469.585	135
469.804	141
470.023	147
470.243	142
470.462	129
470.681	143
470.901	129
471.12	128
471.339	133
471.558	137
471.777	135
471.997	129
472.216	122
472.435	110
472.654	113
472.873	108
473.092	99
473.311	112
473.53	135
473.749	116
473.968	129
474.187	118
474.406	122
474.625	130
474.844	130
475.063	130
475.282	122
475.501	116
475.72	113
475.939	117
476.158	123
476.377	131
476.596	108
476.814	117
477.033	119
477.252	116
477.471	125
477.69	129
477.908	129
478.127	142
478.346	143
478.564	127
478.783	129
479.002	135
479.22	126
479.439	125
479.658	127
479.876	108
480.095	105
480.313	112
480.532	105
480.751	116
480.969	86
481.188	88
481.406	90
481.624	90
481.843	84
482.061	93
482.28	105
482.498	104
482.717	125
482.935	124
483.153	123
483.372	153
483.59	143
483.808	136
484.027	137
484.245	136
484.463	136
484.681	158
484.9	132
485.118	135
485.336	126
485.554	102
485.772	91
485.99	110
486.209	101
486.427	125
486.645	115
486.863	139
487.081	142
487.299	136
487.517	133
487.735	161
487.953	170
488.171	173
488.389	156
488.607	166
488.825	145
489.043	124
489.261	125
489.479	148
489.696	157
489.914	141
490.132	130
490.35	164
490.568	139
490.786	173
491.003	173
491.221	179
491.439	183
491.657	209
491.874	203
492.092	237
492.31	233
492.527	214
492.745	221
492.963	196
493.18	198
493.398	187
493.615	186
493.833	185
494.05	178
494.268	186
494.485	173
494.703	164
494.92	158
495.138	163
495.355	158
495.573	163
495.79	182
496.008	172
496.225	168
496.442	172
496.66	165
496.877	174
497.094	156
497.312	173
497.529	152
497.746	165
497.963	149
498.181	123
498.398	110
498.615	121
498.832	121
499.049	135
499.267	119
499.484	122
499.701	107
499.918	131
500.135	131
500.352	125
500.569	123
500.786	137
501.003	140
501.22	129
501.437	145
501.654	130
501.871	137
502.088	135
502.305	136
502.522	137
502.739	138
502.956	121
503.172	113
503.389	113
503.606	106
503.823	111
504.04	131
504.256	130
504.473	124
504.69	114
504.907	121
505.123	125
505.34	114
505.557	105
505.773	129
505.99	121
506.207	132
506.423	129
506.64	123
506.856	110
507.073	126
507.289	109
507.506	122
507.722	123
507.939	114
508.155	112
508.372	124
508.588	109
508.805	107
509.021	105
509.238	107
509.454	106
509.67	97
509.887	101
510.103	107
510.319	100
510.536	88
510.752	85
510.968	80
511.184	87
511.401	92
511.617	76
511.833	95
512.049	85
512.265	106
512.481	93
512.698	100
512.914	86
513.13	99
513.346	90
513.562	96
513.778	100
513.994	91
514.21	89
514.426	84
514.642	94
514.858	94
515.074	99
515.29	92
515.506	87
515.721	79
515.937	81
516.153	95
516.369	78
516.585	79
516.801	102
517.016	90
517.232	86
517.448	102
517.664	103
517.879	88
518.095	78
518.311	81
518.527	82
518.742	95
518.958	116
519.173	105
519.389	109
519.605	97
519.82	117
520.036	99
520.251	115
520.467	91
520.682	95
520.898	95
521.113	77
521.329	76
521.544	91
521.76	100
521.975	92
522.19	89
522.406	96
522.621	105
522.836	116
523.052	114
523.267	121
523.482	109
523.698	117
523.913	109
524.128	103
524.343	113
524.559	131
524.774	126
524.989	120
525.204	127
525.419	122
525.634	120
525.849	101
526.064	106
526.28	90
526.495	90
526.71	78
526.925	94
527.14	94
527.355	91
527.57	95
527.785	90
527.999	94
528.214	118
528.429	116
528.644	130
528.859	135
529.074	123
529.289	172
529.503	159
529.718	129
529.933	125
530.148	105
530.363	84
530.577	71
530.792	85
531.007	101
531.221	84
531.436	71
531.651	82
531.865	77
532.08	88
532.295	89
532.509	97
532.724	84
532.938	90
533.153	113
533.367	96
533.582	114
533.796	112
534.011	109
534.225	91
534.44	90
534.654	96
534.868	100
535.083	91
535.297	98
535.511	97
535.726	99
535.94	101
536.154	102
536.369	96
536.583	83
536.797	93
537.011	84
537.225	101
537.44	81
537.654	92
537.868	98
538.082	91
538.296	108
538.51	93
538.724	113
538.938	115
539.153	119
539.367	126
539.581	125
539.795	103
540.009	113
540.222	116
540.436	112
540.65	114
540.864	120
541.078	139
541.292	157
541.506	163
541.72	176
541.934	191
542.147	192
542.361	195
542.575	153
542.789	154
543.002	109
543.216	119
543.43	115
543.644	123
543.857	139
544.071	153
544.285	167
544.498	158
544.712	139
544.925	159
545.139	154
545.352	166
545.566	165
545.779	165
545.993	163
546.206	162
546.42	156
546.633	185
546.847	166
547.06	169
547.274	177
547.487	181
547.7	172
547.914	153
548.127	171
548.34	159
548.554	150
548.767	174
548.98	172
549.193	157
549.407	156
549.62	156
549.833	166
550.046	145
550.259	149
550.473	141
550.686	159
550.899	149
551.112	133
551.325	143
551.538	134
551.751	127
551.964	124
552.177	127
552.39	137
552.603	147
552.816	142
553.029	141
553.242	149
553.455	154
553.667	161
553.88	154
554.093	152
554.306	146
554.519	153
554.732	134
554.944	153
555.157	134
555.37	139
555.583	147
555.795	141
556.008	133
556.221	136
556.433	137
556.646	139
556.859	142
557.071	141
557.284	133
557.496	168
557.709	136
557.921	139
558.134	144
558.346	147
558.559	145
558.771	126
558.984	122
559.196	122
559.409	123
559.621	129
559.833	123
560.046	132
560.258	133
560.47	144
560.683	145
560.895	119
561.107	131
561.32	123
561.532	123
561.744	138
561.956	141
562.168	123
562.381	124
562.593	123
562.805	130
563.017	136
563.229	120
563.441	118
563.653	120
563.865	120
564.077	125
564.289	136
564.501	120
564.713	122
564.925	129
565.137	122
565.349	103
565.561	111
565.773	130
565.985	125
566.197	107
566.408	126
566.62	100
566.832	117
567.044	97
567.255	116
567.467	117
567.679	109
567.891	119
568.102	107
568.314	103
568.526	99
568.737	90
568.949	78
569.161	87
569.372	81
569.584	92
569.795	78
570.007	80
570.218	73
570.43	79
570.641	103
570.853	101
571.064	100
571.276	110
571.487	114
571.698	110
571.91	95
572.121	106
572.333	97
572.544	102
572.755	107
572.966	78
573.178	85
573.389	77
573.6	89
573.811	80
574.023	83
574.234	94
574.445	76
574.656	93
574.867	99
575.078	105
575.289	104
575.501	99
575.712	100
575.923	72
576.134	83
576.345	108
576.556	99
576.767	95
576.978	92
577.188	97
577.399	98
577.61	102
577.821	103
578.032	97
578.243	106
578.454	80
578.665	103
578.875	87
579.086	85
579.297	83
579.508	83
579.718	92
579.929	94
580.14	93
580.35	85
580.561	105
580.772	88
580.982	85
581.193	79
581.403	95
581.614	83
581.825	79
582.035	78
582.246	95
582.456	92
582.667	105
582.877	103
583.087	105
583.298	86
583.508	98
583.719	89
583.929	100
584.139	87
584.35	82
584.56	86
584.77	89
584.981	88
585.191	76
585.401	84
585.611	84
585.821	78
586.032	90
586.242	92
586.452	82
586.662	93
586.872	92
587.082	91
587.292	82
587.502	76
587.713	92
587.923	92
588.133	93
588.343	87
588.553	78
588.762	79
588.972	90
589.182	97
589.392	87
589.602	90
589.812	88
590.022	69
590.232	83
590.441	72
590.651	87
590.861	90
591.071	80
591.281	75
591.49	94
591.7	81
591.91	78
592.119	91
592.329	80
592.539	75
592.748	90
592.958	94
593.167	75
593.377	89
593.587	97
593.796	93
594.006	92
594.215	91
594.424	95
594.634	110
594.843	94
595.053	94
595.262	90
595.472	92
595.681	97
595.89	78
596.1	94
596.309	86
596.518	91
596.727	99
596.937	84
597.146	104
597.355	90
597.564	98
597.774	95
597.983	82
598.192	93
598.401	79
598.61	94
598.819	100
599.028	112
599.237	99
599.446	95
599.655	88
599.864	91
600.073	77
600.282	92
600.491	76
600.7	91
600.909	89
601.118	96
601.327	100
601.536	112
601.745	115
601.953	100
602.162	123
602.371	107
602.58	117
602.789	107
602.997	127
603.206	106
603.415	101
603.623	98
603.832	113
604.041	103
604.249	88
604.458	105
604.666	99
604.875	95
605.084	108
605.292	103
605.501	120
605.709	106
605.918	113
606.126	127
606.334	105
606.543	119
606.751	114
606.96	117
607.168	119
607.376	106
607.585	122
607.793	98
608.001	94
608.21	101
608.418	90
608.626	118
608.834	125
609.043	129
609.251	116
609.459	117
609.667	113
609.875	124
610.083	119
610.291	98
610.499	125
610.707	107
610.916	115
611.124	98
611.332	114
611.54	108
611.748	106
611.955	119
612.163	120
612.371	120
612.579	115
612.787	105
612.995	109
613.203	109
613.411	113
613.618	124
613.826	117
614.034	110
614.242	115
614.449	109
614.657	106
614.865	106
615.072	119
615.28	113
615.488	115
615.695	120
615.903	106
616.111	118
616.318	121
616.526	108
616.733	123
616.941	113
617.148	103
617.356	113
617.563	122
617.771	112
617.978	106
618.185	114
618.393	120
618.6	104
618.807	117
619.015	106
619.222	111
619.429	106
619.637	110
619.844	101
620.051	115
620.258	115
620.466	112
620.673	117
620.88	101
621.087	101
621.294	114
621.501	95
621.708	114
621.915	114
622.122	100
622.329	116
622.536	126
622.743	109
622.95	107
623.157	107
623.364	114
623.571	106
623.778	114
623.985	126
624.192	116
624.399	105
624.606	107
624.812	117
625.019	127
625.226	102
625.433	97
625.639	113
625.846	106
626.053	94
626.259	109
626.466	102
626.673	99
626.879	93
627.086	89
627.293	97
627.499	113
627.706	91
627.912	89
628.119	109
628.325	95
628.532	114
628.738	98
628.945	97
629.151	93
629.357	92
629.564	100
629.77	107
629.976	105
630.183	106
630.389	109
630.595	89
630.802	101
631.008	109
631.214	104
631.42	104
631.627	108
631.833	103
632.039	101
632.245	89
632.451	113
632.657	97
632.863	93
633.069	81
633.275	104
633.481	88
633.688	103
633.893	105
634.099	100
634.305	99
634.511	96
634.717	101
634.923	87
635.129	94
635.335	86
635.541	95
635.747	92
635.952	103
636.158	104
636.364	104
636.57	91
636.775	90
636.981	89
637.187	109
637.392	96
637.598	98
637.804	103
638.009	101
638.215	100
638.421	92
638.626	97
638.832	101
639.037	100
639.243	91
639.448	98
639.654	108
639.859	111
640.065	94
640.27	115
640.475	102
640.681	98
640.886	102
641.091	91
641.297	94
641.502	96
641.707	110
641.913	91
642.118	118
642.323	84
642.528	92
642.733	104
642.939	110
643.144	102
643.349	103
643.554	98
643.759	106
643.964	100
644.169	99
644.374	105
644.579	95
644.784	84
644.989	95
645.194	107
645.399	105
645.604	86
645.809	93
646.014	95
646.219	113
646.423	102
646.628	106
646.833	87
647.038	90
647.243	95
647.447	89
647.652	99
647.857	92
648.062	105
648.266	98
648.471	99
648.676	89
648.88	98
649.085	84
649.289	96
649.494	87
649.698	95
649.903	91
650.107	98
650.312	103
650.516	105
650.721	108
650.925	95
651.13	98
651.334	94
651.539	81
651.743	93
651.947	84
652.152	93
652.356	96
652.56	98
652.764	106
652.969	89
653.173	105
653.377	105
653.581	101
653.785	78
653.99	95
654.194	97
654.398	90
654.602	79
654.806	93
655.01	87
655.214	96
655.418	67
655.622	95
655.826	80
656.03	93
656.234	92
656.438	95
656.642	82
656.846	97
657.049	82
657.253	92
657.457	82
657.661	82
657.865	88
658.068	91
658.272	88
658.476	88
658.68	100
658.883	78
659.087	96
659.291	88
659.494	85
659.698	80
659.901	84
660.105	93
660.309	84
660.512	93
660.716	92
660.919	80
661.123	86
661.326	84
661.53	83
661.733	80
661.936	80
662.14	85
662.343	84
662.546	82
662.75	78
662.953	92
663.156	84
663.36	78
663.563	79
663.766	83
663.969	87
664.173	82
664.376	79
664.579	77
664.782	77
664.985	73
665.188	78
665.391	81
665.594	85
665.797	55
666	77
666.203	63
666.406	82
666.609	88
666.812	76
667.015	92
667.218	83
667.421	80
667.624	79
667.827	95
668.03	74
668.232	71
668.435	72
668.638	83
668.841	85
669.043	83
669.246	85
669.449	79
669.651	73
669.854	71
670.057	77
670.259	76
670.462	75
670.665	70
670.867	79
671.07	76
671.272	74
671.475	98
671.677	83
671.88	74
672.082	76
672.284	78
672.487	80
672.689	81
672.892	78
