Data from Location1.07152019.Energy5.Lamp.07192019.3%Agarose_HRD10591_14-31-19-015.txt Node
Date: Fri Jul 19 14:31:19 EDT 2019
User: cochatt
Spectrometer: HR+D1059
Trigger mode: 1
Integration Time (sec): 1.000000E-1
Scans to average: 1
Electric dark correction enabled: true
Nonlinearity correction enabled: false
Boxcar width: 0
XAxis mode: Wavelengths
Number of Pixels in Spectrum: 2048
>>>>>Begin Spectral Data<<<<<
223.165	-10
223.4	-10
223.635	-10
223.869	-22
224.104	-6
224.338	-19
224.573	-21
224.808	-21
225.042	1
225.277	-8
225.511	-5
225.746	10
225.98	0
226.215	17
226.449	13
226.683	19
226.918	19
227.152	33
227.387	42
227.621	46
227.856	58
228.09	45
228.324	46
228.559	57
228.793	61
229.027	57
229.262	48
229.496	74
229.73	77
229.964	77
230.199	76
230.433	76
230.667	83
230.901	69
231.136	90
231.37	81
231.604	88
231.838	74
232.072	98
232.306	86
232.541	93
232.775	89
233.009	106
233.243	83
233.477	90
233.711	95
233.945	85
234.179	88
234.413	95
234.647	82
234.881	87
235.115	95
235.349	75
235.583	77
235.817	89
236.051	79
236.285	76
236.519	85
236.753	70
236.987	78
237.221	92
237.455	77
237.689	70
237.922	80
238.156	67
238.39	89
238.624	83
238.858	86
239.091	95
239.325	79
239.559	75
239.793	87
240.027	92
240.26	89
240.494	81
240.728	89
240.961	67
241.195	71
241.429	89
241.662	77
241.896	73
242.13	66
242.363	79
242.597	79
242.83	96
243.064	91
243.298	86
243.531	67
243.765	83
243.998	87
244.232	73
244.465	91
244.699	88
244.932	75
245.166	74
245.399	75
245.633	92
245.866	78
246.099	66
246.333	95
246.566	78
246.8	72
247.033	73
247.266	75
247.5	83
247.733	71
247.966	75
248.2	80
248.433	84
248.666	78
248.899	79
249.133	72
249.366	84
249.599	85
249.832	91
250.066	79
250.299	94
250.532	98
250.765	87
250.998	74
251.231	77
251.465	78
251.698	88
251.931	76
252.164	84
252.397	90
252.63	83
252.863	81
253.096	86
253.329	77
253.562	89
253.795	95
254.028	84
254.261	87
254.494	80
254.727	89
254.96	96
255.193	92
255.426	88
255.659	79
255.892	77
256.124	77
256.357	75
256.59	93
256.823	85
257.056	72
257.289	78
257.521	83
257.754	86
257.987	99
258.22	85
258.452	86
258.685	66
258.918	76
259.151	73
259.383	82
259.616	78
259.849	89
260.081	75
260.314	76
260.547	85
260.779	86
261.012	93
261.244	89
261.477	89
261.71	80
261.942	87
262.175	81
262.407	85
262.64	92
262.872	82
263.105	86
263.337	83
263.57	71
263.802	88
264.035	89
264.267	67
264.499	97
264.732	87
264.964	90
265.197	89
265.429	82
265.661	86
265.894	76
266.126	91
266.358	99
266.591	82
266.823	89
267.055	96
267.287	90
267.52	90
267.752	75
267.984	75
268.216	85
268.448	83
268.681	69
268.913	73
269.145	85
269.377	88
269.609	94
269.841	92
270.073	101
270.306	92
270.538	84
270.77	87
271.002	87
271.234	84
271.466	97
271.698	82
271.93	78
272.162	82
272.394	91
272.626	86
272.858	67
273.09	69
273.322	83
273.553	93
273.785	97
274.017	78
274.249	85
274.481	78
274.713	86
274.945	89
275.176	78
275.408	104
275.64	77
275.872	85
276.104	95
276.335	97
276.567	83
276.799	84
277.031	77
277.262	98
277.494	86
277.726	91
277.957	89
278.189	83
278.421	77
278.652	83
278.884	91
279.115	78
279.347	96
279.579	88
279.81	90
280.042	93
280.273	77
280.505	79
280.736	100
280.968	94
281.199	82
281.431	90
281.662	91
281.894	96
282.125	96
282.356	93
282.588	85
282.819	80
283.051	106
283.282	84
283.513	83
283.745	85
283.976	91
284.207	88
284.439	86
284.67	83
284.901	83
285.132	96
285.364	94
285.595	78
285.826	83
286.057	74
286.288	72
286.52	92
286.751	97
286.982	70
287.213	87
287.444	77
287.675	82
287.906	78
288.138	96
288.369	87
288.6	88
288.831	87
289.062	92
289.293	80
289.524	85
289.755	79
289.986	80
290.217	89
290.448	88
290.679	81
290.91	86
291.141	101
291.371	89
291.602	93
291.833	90
292.064	97
292.295	69
292.526	98
292.757	88
292.987	95
293.218	93
293.449	93
293.68	93
293.91	82
294.141	93
294.372	88
294.603	96
294.833	79
295.064	97
295.295	89
295.525	97
295.756	93
295.987	81
296.217	83
296.448	99
296.679	74
296.909	80
297.14	94
297.37	86
297.601	83
297.831	86
298.062	59
298.292	91
298.523	101
298.753	80
298.984	73
299.214	85
299.445	97
299.675	74
299.905	91
300.136	99
300.366	101
300.597	90
300.827	96
301.057	86
301.288	87
301.518	77
301.748	94
301.979	113
302.209	91
302.439	95
302.669	77
302.9	81
303.13	98
303.36	99
303.59	92
303.82	78
304.051	87
304.281	82
304.511	86
304.741	92
304.971	83
305.201	89
305.431	95
305.661	89
305.891	82
306.121	79
306.352	98
306.582	83
306.812	93
307.042	93
307.272	78
307.502	83
307.731	83
307.961	95
308.191	80
308.421	84
308.651	93
308.881	96
309.111	96
309.341	90
309.571	76
309.8	92
310.03	83
310.26	105
310.49	91
310.72	90
310.949	80
311.179	74
311.409	87
311.639	89
311.868	78
312.098	89
312.328	96
312.557	92
312.787	81
313.017	95
313.246	86
313.476	69
313.706	95
313.935	89
314.165	71
314.394	78
314.624	95
314.853	88
315.083	81
315.312	94
315.542	78
315.771	101
316.001	77
316.23	77
316.46	76
316.689	80
316.919	88
317.148	91
317.377	84
317.607	106
317.836	83
318.065	91
318.295	94
318.524	87
318.753	91
318.983	95
319.212	89
319.441	83
319.67	96
319.9	91
320.129	89
320.358	96
320.587	90
320.816	98
321.046	77
321.275	98
321.504	83
321.733	91
321.962	88
322.191	83
322.42	89
322.649	84
322.878	78
323.108	90
323.337	88
323.566	86
323.795	90
324.024	93
324.253	90
324.482	95
324.71	87
324.939	97
325.168	80
325.397	90
325.626	89
325.855	78
326.084	89
326.313	89
326.542	89
326.77	100
326.999	93
327.228	85
327.457	80
327.686	90
327.914	97
328.143	92
328.372	78
328.6	92
328.829	97
329.058	91
329.287	88
329.515	80
329.744	94
329.972	92
330.201	93
330.43	99
330.658	81
330.887	77
331.115	94
331.344	95
331.572	94
331.801	88
332.03	88
332.258	88
332.486	105
332.715	91
332.943	93
333.172	82
333.4	94
333.629	90
333.857	96
334.085	89
334.314	90
334.542	93
334.771	82
334.999	90
335.227	91
335.455	92
335.684	93
335.912	103
336.14	87
336.369	77
336.597	91
336.825	79
337.053	96
337.281	79
337.51	85
337.738	89
337.966	86
338.194	98
338.422	80
338.65	92
338.878	75
339.106	97
339.334	84
339.562	88
339.79	74
340.018	77
340.246	82
340.474	91
340.702	83
340.93	83
341.158	92
341.386	87
341.614	90
341.842	79
342.07	77
342.298	91
342.526	88
342.754	102
342.981	74
343.209	75
343.437	87
343.665	75
343.893	89
344.12	99
344.348	84
344.576	97
344.804	77
345.031	79
345.259	76
345.487	78
345.714	102
345.942	89
346.17	91
346.397	80
346.625	88
346.853	78
347.08	80
347.308	83
347.535	96
347.763	92
347.99	89
348.218	100
348.445	89
348.673	93
348.9	105
349.128	93
349.355	83
349.583	76
349.81	87
350.037	79
350.265	92
350.492	67
350.72	96
350.947	97
351.174	99
351.402	82
351.629	97
351.856	107
352.083	85
352.311	88
352.538	95
352.765	95
352.992	94
353.22	83
353.447	79
353.674	76
353.901	102
354.128	89
354.355	96
354.583	73
354.81	97
355.037	83
355.264	87
355.491	86
355.718	96
355.945	91
356.172	89
356.399	81
356.626	82
356.853	101
357.08	85
357.307	81
357.534	88
357.761	82
357.988	87
358.215	94
358.441	53
358.668	94
358.895	69
359.122	85
359.349	90
359.576	87
359.802	100
360.029	102
360.256	94
360.483	90
360.709	93
360.936	98
361.163	74
361.39	84
361.616	70
361.843	82
362.07	94
362.296	87
362.523	105
362.749	78
362.976	94
363.203	73
363.429	82
363.656	75
363.882	77
364.109	89
364.335	83
364.562	86
364.788	95
365.015	87
365.241	88
365.468	91
365.694	81
365.92	93
366.147	86
366.373	82
366.599	82
366.826	87
367.052	80
367.278	98
367.505	94
367.731	103
367.957	81
368.184	82
368.41	93
368.636	86
368.862	82
369.089	87
369.315	99
369.541	81
369.767	86
369.993	97
370.219	86
370.445	89
370.672	82
370.898	89
371.124	106
371.35	84
371.576	88
371.802	89
372.028	90
372.254	102
372.48	94
372.706	85
372.932	101
373.158	94
373.384	106
373.61	110
373.835	98
374.061	86
374.287	89
374.513	104
374.739	89
374.965	85
375.191	97
375.416	96
375.642	96
375.868	94
376.094	92
376.319	101
376.545	92
376.771	88
376.997	102
377.222	97
377.448	108
377.674	96
377.899	88
378.125	98
378.35	94
378.576	95
378.802	105
379.027	89
379.253	111
379.478	111
379.704	101
379.929	97
380.155	95
380.38	94
380.606	96
380.831	99
381.057	103
381.282	86
381.507	107
381.733	104
381.958	95
382.184	101
382.409	90
382.634	98
382.86	93
383.085	103
383.31	111
383.535	95
383.761	93
383.986	103
384.211	96
384.436	108
384.662	93
384.887	104
385.112	90
385.337	100
385.562	89
385.787	98
386.013	102
386.238	85
386.463	93
386.688	96
386.913	110
387.138	97
387.363	102
387.588	119
387.813	115
388.038	101
388.263	101
388.488	106
388.713	101
388.938	105
389.163	118
389.387	113
389.612	117
389.837	101
390.062	104
390.287	90
390.512	98
390.736	94
390.961	89
391.186	104
391.411	96
391.636	103
391.86	100
392.085	105
392.31	110
392.534	121
392.759	117
392.984	104
393.208	96
393.433	106
393.658	95
393.882	99
394.107	110
394.331	103
394.556	98
394.78	117
395.005	105
395.229	109
395.454	121
395.678	101
395.903	118
396.127	117
396.352	89
396.576	81
396.801	90
397.025	103
397.249	102
397.474	106
397.698	101
397.922	122
398.147	110
398.371	126
398.595	104
398.82	110
399.044	106
399.268	110
399.492	104
399.717	114
399.941	104
400.165	112
400.389	115
400.613	100
400.837	117
401.062	107
401.286	107
401.51	121
401.734	113
401.958	127
402.182	109
402.406	120
402.63	101
402.854	102
403.078	114
403.302	132
403.526	126
403.75	90
403.974	105
404.198	122
404.422	116
404.645	122
404.869	107
405.093	127
405.317	121
405.541	112
405.765	112
405.988	115
406.212	118
406.436	139
406.66	133
406.883	123
407.107	117
407.331	127
407.555	115
407.778	114
408.002	107
408.226	105
408.449	121
408.673	137
408.896	119
409.12	122
409.344	111
409.567	115
409.791	120
410.014	125
410.238	99
410.461	118
410.685	115
410.908	127
411.132	134
411.355	119
411.578	104
411.802	128
412.025	117
412.249	127
412.472	126
412.695	122
412.919	139
413.142	114
413.365	131
413.589	138
413.812	119
414.035	121
414.258	129
414.482	122
414.705	121
414.928	110
415.151	122
415.374	114
415.597	117
415.821	107
416.044	133
416.267	127
416.49	119
416.713	134
416.936	126
417.159	133
417.382	130
417.605	122
417.828	131
418.051	121
418.274	143
418.497	112
418.72	131
418.943	145
419.166	131
419.389	147
419.611	129
419.834	141
420.057	148
420.28	125
420.503	127
420.726	147
420.948	141
421.171	143
421.394	139
421.617	137
421.839	145
422.062	129
422.285	137
422.507	132
422.73	127
422.953	122
423.175	124
423.398	135
423.621	133
423.843	138
424.066	139
424.288	150
424.511	146
424.733	150
424.956	156
425.178	149
425.401	132
425.623	139
425.846	155
426.068	142
426.291	136
426.513	119
426.735	125
426.958	118
427.18	153
427.402	135
427.625	127
427.847	137
428.069	131
428.292	130
428.514	138
428.736	131
428.958	126
429.181	131
429.403	131
429.625	117
429.847	122
430.069	131
430.292	141
430.514	130
430.736	136
430.958	127
431.18	127
431.402	125
431.624	111
431.846	108
432.068	119
432.29	102
432.512	102
432.734	121
432.956	125
433.178	122
433.4	135
433.622	136
433.844	133
434.066	121
434.287	118
434.509	101
434.731	108
434.953	104
435.175	130
435.397	126
435.618	129
435.84	123
436.062	123
436.284	118
436.505	128
436.727	134
436.949	131
437.17	140
437.392	128
437.614	123
437.835	109
438.057	96
438.278	125
438.5	123
438.721	149
438.943	142
439.165	144
439.386	131
439.608	135
439.829	131
440.05	139
440.272	146
440.493	139
440.715	144
440.936	145
441.158	149
441.379	139
441.6	146
441.822	126
442.043	130
442.264	139
442.486	141
442.707	130
442.928	143
443.149	154
443.371	140
443.592	143
443.813	140
444.034	156
444.255	141
444.476	151
444.698	140
444.919	149
445.14	271
445.361	191
445.582	155
445.803	150
446.024	153
446.245	154
446.466	148
446.687	141
446.908	173
447.129	157
447.35	165
447.571	154
447.792	149
448.013	146
448.234	141
448.455	133
448.675	151
448.896	151
449.117	134
449.338	143
449.559	142
449.779	135
450	130
450.221	124
450.442	141
450.662	140
450.883	131
451.104	130
451.324	142
451.545	145
451.766	124
451.986	145
452.207	135
452.428	120
452.648	134
452.869	147
453.089	114
453.31	112
453.53	128
453.751	105
453.971	103
454.192	113
454.412	98
454.633	117
454.853	127
455.073	125
455.294	138
455.514	130
455.734	126
455.955	128
456.175	114
456.395	110
456.616	94
456.836	128
457.056	117
457.276	99
457.497	117
457.717	113
457.937	106
458.157	120
458.377	117
458.598	102
458.818	102
459.038	99
459.258	94
459.478	106
459.698	83
459.918	109
460.138	113
460.358	114
460.578	111
460.798	108
461.018	111
461.238	110
461.458	126
461.678	119
461.898	112
462.118	101
462.338	114
462.558	118
462.777	111
462.997	117
463.217	121
463.437	112
463.657	107
463.876	120
464.096	127
464.316	114
464.536	113
464.755	121
464.975	113
465.195	127
465.414	109
465.634	117
465.854	121
466.073	115
466.293	130
466.512	121
466.732	125
466.951	121
467.171	131
467.391	145
467.61	129
467.829	127
468.049	133
468.268	139
468.488	144
468.707	125
468.927	141
469.146	136
469.365	141
469.585	135
469.804	136
470.023	133
470.243	138
470.462	164
470.681	135
470.901	151
471.12	141
471.339	147
471.558	126
471.777	135
471.997	133
472.216	125
472.435	110
472.654	106
472.873	109
473.092	119
473.311	129
473.53	125
473.749	130
473.968	130
474.187	132
474.406	125
474.625	131
474.844	121
475.063	123
475.282	131
475.501	118
475.72	124
475.939	121
476.158	115
476.377	131
476.596	133
476.814	112
477.033	111
477.252	109
477.471	111
477.69	125
477.908	131
478.127	137
478.346	131
478.564	127
478.783	123
479.002	138
479.22	131
479.439	147
479.658	136
479.876	114
480.095	110
480.313	114
480.532	117
480.751	121
480.969	106
481.188	101
481.406	99
481.624	96
481.843	96
482.061	103
482.28	103
482.498	105
482.717	105
482.935	124
483.153	137
483.372	169
483.59	158
483.808	129
484.027	143
484.245	129
484.463	146
484.681	174
484.9	155
485.118	150
485.336	137
485.554	114
485.772	109
485.99	107
486.209	123
486.427	112
486.645	133
486.863	142
487.081	148
487.299	127
487.517	135
487.735	171
487.953	182
488.171	180
488.389	172
488.607	146
488.825	133
489.043	138
489.261	135
489.479	141
489.696	140
489.914	147
490.132	148
490.35	138
490.568	157
490.786	165
491.003	189
491.221	155
491.439	186
491.657	190
491.874	207
492.092	239
492.31	248
492.527	235
492.745	215
492.963	197
493.18	175
493.398	176
493.615	192
493.833	178
494.05	188
494.268	165
494.485	173
494.703	171
494.92	174
495.138	175
495.355	176
495.573	190
495.79	172
496.008	182
496.225	167
496.442	169
496.66	171
496.877	158
497.094	156
497.312	167
497.529	150
497.746	151
497.963	128
498.181	137
498.398	126
498.615	120
498.832	122
499.049	105
499.267	124
499.484	131
499.701	145
499.918	135
500.135	137
500.352	133
500.569	139
500.786	148
501.003	133
501.22	143
501.437	143
501.654	141
501.871	140
502.088	137
502.305	132
502.522	125
502.739	133
502.956	122
503.172	116
503.389	109
503.606	113
503.823	130
504.04	123
504.256	105
504.473	129
504.69	112
504.907	120
505.123	133
505.34	133
505.557	137
505.773	124
505.99	128
506.207	119
506.423	114
506.64	119
506.856	125
507.073	112
507.289	129
507.506	106
507.722	121
507.939	123
508.155	123
508.372	122
508.588	104
508.805	108
509.021	111
509.238	108
509.454	114
509.67	101
509.887	107
510.103	99
510.319	88
510.536	93
510.752	84
510.968	91
511.184	72
511.401	95
511.617	103
511.833	98
512.049	101
512.265	105
512.481	103
512.698	87
512.914	107
513.13	102
513.346	102
513.562	99
513.778	89
513.994	100
514.21	110
514.426	93
514.642	86
514.858	85
515.074	100
515.29	100
515.506	89
515.721	88
515.937	107
516.153	85
516.369	93
516.585	101
516.801	98
517.016	98
517.232	98
517.448	94
517.664	92
517.879	103
518.095	98
518.311	95
518.527	81
518.742	99
518.958	90
519.173	112
519.389	94
519.605	119
519.82	100
520.036	99
520.251	113
520.467	119
520.682	108
520.898	106
521.113	100
521.329	92
521.544	85
521.76	109
521.975	88
522.19	97
522.406	100
522.621	111
522.836	108
523.052	114
523.267	117
523.482	117
523.698	114
523.913	122
524.128	120
524.343	136
524.559	122
524.774	123
524.989	118
525.204	123
525.419	126
525.634	131
525.849	125
526.064	106
526.28	115
526.495	97
526.71	91
526.925	98
527.14	78
527.355	94
527.57	83
527.785	87
527.999	100
528.214	111
528.429	120
528.644	138
528.859	143
529.074	138
529.289	155
529.503	148
529.718	145
529.933	122
530.148	102
530.363	105
530.577	88
530.792	87
531.007	98
531.221	105
531.436	84
531.651	91
531.865	91
532.08	93
532.295	92
532.509	92
532.724	98
532.938	99
533.153	112
533.367	101
533.582	128
533.796	122
534.011	109
534.225	111
534.44	101
534.654	105
534.868	105
535.083	103
535.297	99
535.511	111
535.726	106
535.94	93
536.154	96
536.369	102
536.583	99
536.797	92
537.011	97
537.225	87
537.44	101
537.654	93
537.868	87
538.082	93
538.296	106
538.51	109
538.724	115
538.938	128
539.153	127
539.367	126
539.581	109
539.795	109
540.009	88
540.222	99
540.436	94
540.65	111
540.864	136
541.078	137
541.292	144
541.506	155
541.72	168
541.934	187
542.147	200
542.361	188
542.575	176
542.789	160
543.002	141
543.216	129
543.43	129
543.644	139
543.857	149
544.071	163
544.285	147
544.498	145
544.712	157
544.925	157
545.139	160
545.352	156
545.566	173
545.779	162
545.993	169
546.206	162
546.42	162
546.633	161
546.847	164
547.06	165
547.274	174
547.487	183
547.7	169
547.914	189
548.127	166
548.34	166
548.554	168
548.767	158
548.98	166
549.193	154
549.407	161
549.62	157
549.833	164
550.046	148
550.259	144
550.473	145
550.686	159
550.899	154
551.112	137
551.325	135
551.538	142
551.751	133
551.964	124
552.177	124
552.39	152
552.603	136
552.816	141
553.029	155
553.242	158
553.455	154
553.667	171
553.88	157
554.093	139
554.306	159
554.519	159
554.732	149
554.944	139
555.157	141
555.37	134
555.583	145
555.795	155
556.008	153
556.221	137
556.433	133
556.646	133
556.859	135
557.071	128
557.284	137
557.496	152
557.709	143
557.921	133
558.134	140
558.346	129
558.559	154
558.771	133
558.984	141
559.196	129
559.409	130
559.621	133
559.833	137
560.046	135
560.258	134
560.47	129
560.683	141
560.895	137
561.107	135
561.32	121
561.532	125
561.744	141
561.956	137
562.168	143
562.381	133
562.593	134
562.805	130
563.017	147
563.229	125
563.441	131
563.653	121
563.865	114
564.077	122
564.289	131
564.501	130
564.713	120
564.925	129
565.137	124
565.349	127
565.561	122
565.773	120
565.985	123
566.197	119
566.408	126
566.62	124
566.832	126
567.044	123
567.255	108
567.467	105
567.679	110
567.891	104
568.102	112
568.314	102
568.526	84
568.737	95
568.949	97
569.161	86
569.372	82
569.584	96
569.795	96
570.007	80
570.218	84
570.43	89
570.641	94
570.853	87
571.064	114
571.276	98
571.487	115
571.698	105
571.91	91
572.121	103
572.333	96
572.544	95
572.755	113
572.966	102
573.178	92
573.389	92
573.6	79
573.811	89
574.023	103
574.234	90
574.445	90
574.656	104
574.867	101
575.078	94
575.289	91
575.501	106
575.712	92
575.923	101
576.134	89
576.345	110
576.556	97
576.767	83
576.978	93
577.188	93
577.399	96
577.61	98
577.821	96
578.032	93
578.243	92
578.454	88
578.665	105
578.875	91
579.086	83
579.297	86
579.508	97
579.718	83
579.929	80
580.14	97
580.35	96
580.561	86
580.772	92
580.982	98
581.193	107
581.403	105
581.614	96
581.825	86
582.035	100
582.246	83
582.456	102
582.667	102
582.877	96
583.087	98
583.298	83
583.508	86
583.719	86
583.929	80
584.139	86
584.35	99
584.56	83
584.77	89
584.981	97
585.191	93
585.401	102
585.611	96
585.821	95
586.032	74
586.242	96
586.452	83
586.662	94
586.872	82
587.082	90
587.292	94
587.502	87
587.713	101
587.923	93
588.133	90
588.343	84
588.553	95
588.762	97
588.972	79
589.182	101
589.392	79
589.602	99
589.812	86
590.022	104
590.232	70
590.441	82
590.651	84
590.861	91
591.071	86
591.281	95
591.49	83
591.7	91
591.91	84
592.119	98
592.329	81
592.539	91
592.748	99
592.958	93
593.167	87
593.377	89
593.587	91
593.796	82
594.006	87
594.215	81
594.424	90
594.634	100
594.843	101
595.053	94
595.262	85
595.472	103
595.681	95
595.89	90
596.1	96
596.309	104
596.518	99
596.727	105
596.937	86
597.146	92
597.355	95
597.564	101
597.774	96
597.983	95
598.192	103
598.401	89
598.61	91
598.819	109
599.028	89
599.237	92
599.446	98
599.655	103
599.864	100
600.073	93
600.282	86
600.491	89
600.7	95
600.909	97
601.118	104
601.327	103
601.536	107
601.745	110
601.953	106
602.162	111
602.371	106
602.58	117
602.789	93
602.997	110
603.206	107
603.415	115
603.623	103
603.832	121
604.041	109
604.249	109
604.458	96
604.666	102
604.875	110
605.084	91
605.292	125
605.501	113
605.709	104
605.918	117
606.126	125
606.334	112
606.543	113
606.751	114
606.96	105
607.168	114
607.376	109
607.585	114
607.793	121
608.001	96
608.21	115
608.418	115
608.626	105
608.834	119
609.043	117
609.251	121
609.459	123
609.667	112
609.875	106
610.083	111
610.291	110
610.499	107
610.707	108
610.916	127
611.124	106
611.332	105
611.54	108
611.748	107
611.955	109
612.163	125
612.371	108
612.579	121
612.787	123
612.995	117
613.203	121
613.411	120
613.618	121
613.826	120
614.034	111
614.242	114
614.449	121
614.657	117
614.865	116
615.072	116
615.28	107
615.488	125
615.695	109
615.903	108
616.111	117
616.318	108
616.526	120
616.733	122
616.941	117
617.148	109
617.356	114
617.563	113
617.771	119
617.978	101
618.185	107
618.393	112
618.6	119
618.807	110
619.015	110
619.222	123
619.429	115
619.637	102
619.844	109
620.051	109
620.258	106
620.466	112
620.673	102
620.88	113
621.087	118
621.294	94
621.501	118
621.708	107
621.915	113
622.122	109
622.329	111
622.536	110
622.743	114
622.95	103
623.157	94
623.364	111
623.571	113
623.778	120
623.985	98
624.192	123
624.399	129
624.606	113
624.812	107
625.019	96
625.226	103
625.433	114
625.639	111
625.846	94
626.053	101
626.259	101
626.466	98
626.673	92
626.879	106
627.086	105
627.293	98
627.499	107
627.706	95
627.912	114
628.119	116
628.325	114
628.532	111
628.738	101
628.945	108
629.151	111
629.357	103
629.564	105
629.77	98
629.976	94
630.183	99
630.389	105
630.595	105
630.802	94
631.008	104
631.214	99
631.42	102
631.627	100
631.833	98
632.039	106
632.245	102
632.451	109
632.657	103
632.863	89
633.069	106
633.275	100
633.481	104
633.688	97
633.893	95
634.099	89
634.305	107
634.511	102
634.717	99
634.923	94
635.129	94
635.335	95
635.541	93
635.747	104
635.952	106
636.158	112
636.364	103
636.57	123
636.775	112
636.981	91
637.187	101
637.392	96
637.598	101
637.804	97
638.009	99
638.215	97
638.421	98
638.626	102
638.832	113
639.037	98
639.243	101
639.448	113
639.654	104
639.859	97
640.065	93
640.27	127
640.475	101
640.681	95
640.886	105
641.091	115
641.297	110
641.502	110
641.707	105
641.913	101
642.118	101
642.323	95
642.528	94
642.733	118
642.939	91
643.144	125
643.349	104
643.554	111
643.759	108
643.964	87
644.169	102
644.374	100
644.579	106
644.784	94
644.989	101
645.194	95
645.399	104
645.604	97
645.809	97
646.014	89
646.219	111
646.423	118
646.628	99
646.833	108
647.038	111
647.243	106
647.447	107
647.652	110
647.857	108
648.062	107
648.266	95
648.471	98
648.676	108
648.88	97
649.085	107
649.289	102
649.494	95
649.698	109
649.903	99
650.107	91
650.312	110
650.516	99
650.721	110
650.925	110
651.13	93
651.334	105
651.539	98
651.743	92
651.947	87
652.152	106
652.356	92
652.56	94
652.764	103
652.969	102
653.173	94
653.377	84
653.581	93
653.785	81
653.99	100
654.194	101
654.398	93
654.602	90
654.806	83
655.01	101
655.214	80
655.418	82
655.622	79
655.826	81
656.03	85
656.234	89
656.438	93
656.642	101
656.846	105
657.049	81
657.253	85
657.457	106
657.661	108
657.865	104
658.068	94
658.272	78
658.476	94
658.68	91
658.883	83
659.087	105
659.291	87
659.494	92
659.698	92
659.901	88
660.105	99
660.309	93
660.512	91
660.716	82
660.919	80
661.123	82
661.326	80
661.53	93
661.733	94
661.936	90
662.14	99
662.343	78
662.546	87
662.75	83
662.953	77
663.156	86
663.36	82
663.563	93
663.766	90
663.969	81
664.173	89
664.376	80
664.579	76
664.782	91
664.985	98
665.188	76
665.391	78
665.594	90
665.797	79
666	75
666.203	80
666.406	90
666.609	75
666.812	93
667.015	91
667.218	107
667.421	90
667.624	75
667.827	84
668.03	82
668.232	89
668.435	91
668.638	88
668.841	67
669.043	88
669.246	91
669.449	93
669.651	100
669.854	88
670.057	83
670.259	79
670.462	78
670.665	94
670.867	90
671.07	88
671.272	86
671.475	97
671.677	87
671.88	86
672.082	83
672.284	81
672.487	79
672.689	95
672.892	91
