Data from 1970.PennyLincolnUp.Lamp.En5.5.200Scan.071719.P1._HRD10591_15-12-53-844.txt Node
Date: Thu Jul 18 15:12:53 EDT 2019
User: cochatt
Spectrometer: HR+D1059
Trigger mode: 1
Integration Time (sec): 1.000000E-1
Scans to average: 1
Electric dark correction enabled: true
Nonlinearity correction enabled: false
Boxcar width: 0
XAxis mode: Wavelengths
Number of Pixels in Spectrum: 2048
>>>>>Begin Spectral Data<<<<<
223.165	-3.81
223.4	-3.81
223.635	-3.81
223.869	-19.81
224.104	-13.81
224.338	-19.81
224.573	-10.81
224.808	-3.81
225.042	-3.81
225.277	-18.81
225.511	-18.81
225.746	15.19
225.98	9.19
226.215	17.19
226.449	19.19
226.683	14.19
226.918	15.19
227.152	23.19
227.387	30.19
227.621	34.19
227.856	39.19
228.09	41.19
228.324	49.19
228.559	51.19
228.793	53.19
229.027	71.19
229.262	85.19
229.496	77.19
229.73	74.19
229.964	82.19
230.199	83.19
230.433	84.19
230.667	73.19
230.901	87.19
231.136	89.19
231.37	83.19
231.604	94.19
231.838	102.19
232.072	85.19
232.306	88.19
232.541	77.19
232.775	84.19
233.009	90.19
233.243	80.19
233.477	86.19
233.711	102.19
233.945	85.19
234.179	83.19
234.413	92.19
234.647	103.19
234.881	92.19
235.115	81.19
235.349	78.19
235.583	81.19
235.817	97.19
236.051	89.19
236.285	92.19
236.519	78.19
236.753	94.19
236.987	83.19
237.221	100.19
237.455	109.19
237.689	100.19
237.922	91.19
238.156	85.19
238.39	87.19
238.624	63.19
238.858	79.19
239.091	93.19
239.325	105.19
239.559	94.19
239.793	95.19
240.027	91.19
240.26	95.19
240.494	115.19
240.728	76.19
240.961	91.19
241.195	94.19
241.429	93.19
241.662	86.19
241.896	93.19
242.13	83.19
242.363	99.19
242.597	77.19
242.83	95.19
243.064	91.19
243.298	92.19
243.531	83.19
243.765	105.19
243.998	90.19
244.232	94.19
244.465	91.19
244.699	87.19
244.932	93.19
245.166	87.19
245.399	97.19
245.633	96.19
245.866	86.19
246.099	73.19
246.333	96.19
246.566	94.19
246.8	101.19
247.033	96.19
247.266	92.19
247.5	88.19
247.733	97.19
247.966	102.19
248.2	106.19
248.433	113.19
248.666	108.19
248.899	109.19
249.133	100.19
249.366	121.19
249.599	102.19
249.832	111.19
250.066	98.19
250.299	98.19
250.532	99.19
250.765	105.19
250.998	133.19
251.231	99.19
251.465	97.19
251.698	114.19
251.931	108.19
252.164	97.19
252.397	102.19
252.63	110.19
252.863	103.19
253.096	112.19
253.329	104.19
253.562	125.19
253.795	118.19
254.028	101.19
254.261	110.19
254.494	100.19
254.727	126.19
254.96	114.19
255.193	110.19
255.426	98.19
255.659	109.19
255.892	103.19
256.124	106.19
256.357	117.19
256.59	115.19
256.823	92.19
257.056	105.19
257.289	110.19
257.521	99.19
257.754	104.19
257.987	108.19
258.22	98.19
258.452	116.19
258.685	123.19
258.918	115.19
259.151	105.19
259.383	119.19
259.616	119.19
259.849	118.19
260.081	104.19
260.314	123.19
260.547	121.19
260.779	121.19
261.012	119.19
261.244	125.19
261.477	123.19
261.71	115.19
261.942	105.19
262.175	119.19
262.407	113.19
262.64	114.19
262.872	122.19
263.105	111.19
263.337	109.19
263.57	114.19
263.802	110.19
264.035	111.19
264.267	118.19
264.499	119.19
264.732	115.19
264.964	101.19
265.197	106.19
265.429	114.19
265.661	111.19
265.894	115.19
266.126	110.19
266.358	109.19
266.591	115.19
266.823	107.19
267.055	115.19
267.287	115.19
267.52	108.19
267.752	104.19
267.984	106.19
268.216	117.19
268.448	111.19
268.681	112.19
268.913	136.19
269.145	129.19
269.377	122.19
269.609	127.19
269.841	120.19
270.073	131.19
270.306	137.19
270.538	135.19
270.77	125.19
271.002	130.19
271.234	140.19
271.466	124.19
271.698	128.19
271.93	132.19
272.162	143.19
272.394	124.19
272.626	140.19
272.858	125.19
273.09	137.19
273.322	122.19
273.553	116.19
273.785	125.19
274.017	123.19
274.249	136.19
274.481	122.19
274.713	126.19
274.945	121.19
275.176	123.19
275.408	126.19
275.64	114.19
275.872	115.19
276.104	128.19
276.335	129.19
276.567	140.19
276.799	137.19
277.031	131.19
277.262	145.19
277.494	143.19
277.726	131.19
277.957	122.19
278.189	114.19
278.421	126.19
278.652	128.19
278.884	143.19
279.115	136.19
279.347	136.19
279.579	151.19
279.81	165.19
280.042	144.19
280.273	150.19
280.505	143.19
280.736	151.19
280.968	125.19
281.199	121.19
281.431	128.19
281.662	120.19
281.894	125.19
282.125	122.19
282.356	148.19
282.588	135.19
282.819	140.19
283.051	129.19
283.282	141.19
283.513	132.19
283.745	138.19
283.976	121.19
284.207	134.19
284.439	126.19
284.67	140.19
284.901	124.19
285.132	113.19
285.364	137.19
285.595	130.19
285.826	133.19
286.057	139.19
286.288	130.19
286.52	136.19
286.751	115.19
286.982	131.19
287.213	122.19
287.444	138.19
287.675	123.19
287.906	133.19
288.138	133.19
288.369	147.19
288.6	147.19
288.831	146.19
289.062	143.19
289.293	129.19
289.524	142.19
289.755	135.19
289.986	118.19
290.217	132.19
290.448	131.19
290.679	129.19
290.91	142.19
291.141	140.19
291.371	132.19
291.602	133.19
291.833	129.19
292.064	129.19
292.295	121.19
292.526	119.19
292.757	123.19
292.987	130.19
293.218	130.19
293.449	140.19
293.68	136.19
293.91	123.19
294.141	135.19
294.372	145.19
294.603	122.19
294.833	122.19
295.064	137.19
295.295	130.19
295.525	141.19
295.756	134.19
295.987	148.19
296.217	147.19
296.448	141.19
296.679	143.19
296.909	137.19
297.14	138.19
297.37	135.19
297.601	129.19
297.831	125.19
298.062	142.19
298.292	135.19
298.523	138.19
298.753	145.19
298.984	138.19
299.214	135.19
299.445	140.19
299.675	135.19
299.905	151.19
300.136	123.19
300.366	141.19
300.597	123.19
300.827	127.19
301.057	135.19
301.288	142.19
301.518	144.19
301.748	143.19
301.979	140.19
302.209	126.19
302.439	144.19
302.669	149.19
302.9	147.19
303.13	147.19
303.36	129.19
303.59	147.19
303.82	134.19
304.051	142.19
304.281	132.19
304.511	138.19
304.741	147.19
304.971	146.19
305.201	134.19
305.431	125.19
305.661	133.19
305.891	130.19
306.121	159.19
306.352	147.19
306.582	154.19
306.812	141.19
307.042	139.19
307.272	132.19
307.502	151.19
307.731	159.19
307.961	154.19
308.191	148.19
308.421	143.19
308.651	157.19
308.881	155.19
309.111	163.19
309.341	150.19
309.571	154.19
309.8	162.19
310.03	151.19
310.26	162.19
310.49	155.19
310.72	149.19
310.949	137.19
311.179	163.19
311.409	151.19
311.639	175.19
311.868	177.19
312.098	161.19
312.328	153.19
312.557	149.19
312.787	144.19
313.017	166.19
313.246	170.19
313.476	152.19
313.706	147.19
313.935	157.19
314.165	158.19
314.394	156.19
314.624	151.19
314.853	168.19
315.083	179.19
315.312	149.19
315.542	156.19
315.771	166.19
316.001	158.19
316.23	155.19
316.46	167.19
316.689	151.19
316.919	155.19
317.148	144.19
317.377	164.19
317.607	154.19
317.836	163.19
318.065	162.19
318.295	169.19
318.524	157.19
318.753	154.19
318.983	154.19
319.212	154.19
319.441	168.19
319.67	157.19
319.9	157.19
320.129	141.19
320.358	164.19
320.587	170.19
320.816	163.19
321.046	159.19
321.275	165.19
321.504	164.19
321.733	159.19
321.962	163.19
322.191	170.19
322.42	177.19
322.649	155.19
322.878	165.19
323.108	173.19
323.337	185.19
323.566	172.19
323.795	204.19
324.024	218.19
324.253	267.19
324.482	374.19
324.71	468.19
324.939	570.19
325.168	488.19
325.397	298.19
325.626	213.19
325.855	181.19
326.084	189.19
326.313	178.19
326.542	195.19
326.77	198.19
326.999	231.19
327.228	313.19
327.457	418.19
327.686	437.19
327.914	305.19
328.143	237.19
328.372	206.19
328.6	207.19
328.829	192.19
329.058	196.19
329.287	191.19
329.515	182.19
329.744	180.19
329.972	172.19
330.201	183.19
330.43	190.19
330.658	196.19
330.887	209.19
331.115	193.19
331.344	182.19
331.572	197.19
331.801	174.19
332.03	171.19
332.258	174.19
332.486	177.19
332.715	162.19
332.943	167.19
333.172	177.19
333.4	164.19
333.629	168.19
333.857	180.19
334.085	175.19
334.314	170.19
334.542	208.19
334.771	185.19
334.999	198.19
335.227	186.19
335.455	182.19
335.684	189.19
335.912	159.19
336.14	162.19
336.369	166.19
336.597	171.19
336.825	180.19
337.053	164.19
337.281	160.19
337.51	177.19
337.738	169.19
337.966	173.19
338.194	171.19
338.422	184.19
338.65	187.19
338.878	173.19
339.106	193.19
339.334	166.19
339.562	172.19
339.79	166.19
340.018	156.19
340.246	153.19
340.474	153.19
340.702	174.19
340.93	167.19
341.158	161.19
341.386	162.19
341.614	165.19
341.842	168.19
342.07	171.19
342.298	159.19
342.526	168.19
342.754	151.19
342.981	150.19
343.209	170.19
343.437	160.19
343.665	169.19
343.893	179.19
344.12	159.19
344.348	178.19
344.576	159.19
344.804	174.19
345.031	189.19
345.259	165.19
345.487	158.19
345.714	166.19
345.942	166.19
346.17	156.19
346.397	156.19
346.625	150.19
346.853	167.19
347.08	168.19
347.308	182.19
347.535	163.19
347.763	173.19
347.99	161.19
348.218	175.19
348.445	161.19
348.673	169.19
348.9	173.19
349.128	164.19
349.355	158.19
349.583	166.19
349.81	177.19
350.037	164.19
350.265	151.19
350.492	148.19
350.72	158.19
350.947	166.19
351.174	174.19
351.402	172.19
351.629	168.19
351.856	161.19
352.083	185.19
352.311	188.19
352.538	171.19
352.765	178.19
352.992	171.19
353.22	157.19
353.447	161.19
353.674	163.19
353.901	172.19
354.128	170.19
354.355	159.19
354.583	152.19
354.81	161.19
355.037	165.19
355.264	157.19
355.491	141.19
355.718	157.19
355.945	154.19
356.172	166.19
356.399	154.19
356.626	145.19
356.853	144.19
357.08	160.19
357.307	163.19
357.534	165.19
357.761	169.19
357.988	150.19
358.215	170.19
358.441	163.19
358.668	161.19
358.895	179.19
359.122	170.19
359.349	170.19
359.576	168.19
359.802	168.19
360.029	179.19
360.256	165.19
360.483	183.19
360.709	170.19
360.936	166.19
361.163	154.19
361.39	165.19
361.616	172.19
361.843	174.19
362.07	165.19
362.296	167.19
362.523	152.19
362.749	171.19
362.976	164.19
363.203	173.19
363.429	153.19
363.656	159.19
363.882	145.19
364.109	165.19
364.335	155.19
364.562	149.19
364.788	135.19
365.015	166.19
365.241	160.19
365.468	154.19
365.694	161.19
365.92	167.19
366.147	154.19
366.373	150.19
366.599	150.19
366.826	162.19
367.052	157.19
367.278	161.19
367.505	154.19
367.731	163.19
367.957	154.19
368.184	158.19
368.41	164.19
368.636	151.19
368.862	165.19
369.089	158.19
369.315	169.19
369.541	157.19
369.767	145.19
369.993	156.19
370.219	165.19
370.445	172.19
370.672	166.19
370.898	153.19
371.124	153.19
371.35	161.19
371.576	155.19
371.802	158.19
372.028	157.19
372.254	167.19
372.48	148.19
372.706	143.19
372.932	185.19
373.158	169.19
373.384	182.19
373.61	161.19
373.835	151.19
374.061	161.19
374.287	169.19
374.513	155.19
374.739	153.19
374.965	158.19
375.191	151.19
375.416	165.19
375.642	156.19
375.868	155.19
376.094	167.19
376.319	165.19
376.545	163.19
376.771	155.19
376.997	143.19
377.222	157.19
377.448	151.19
377.674	150.19
377.899	159.19
378.125	171.19
378.35	158.19
378.576	164.19
378.802	154.19
379.027	170.19
379.253	169.19
379.478	175.19
379.704	157.19
379.929	164.19
380.155	169.19
380.38	185.19
380.606	160.19
380.831	165.19
381.057	156.19
381.282	163.19
381.507	158.19
381.733	154.19
381.958	172.19
382.184	178.19
382.409	163.19
382.634	175.19
382.86	167.19
383.085	168.19
383.31	166.19
383.535	162.19
383.761	170.19
383.986	154.19
384.211	152.19
384.436	165.19
384.662	165.19
384.887	175.19
385.112	166.19
385.337	165.19
385.562	158.19
385.787	174.19
386.013	191.19
386.238	169.19
386.463	178.19
386.688	188.19
386.913	169.19
387.138	170.19
387.363	178.19
387.588	179.19
387.813	166.19
388.038	171.19
388.263	174.19
388.488	166.19
388.713	183.19
388.938	161.19
389.163	172.19
389.387	168.19
389.612	173.19
389.837	183.19
390.062	186.19
390.287	182.19
390.512	165.19
390.736	177.19
390.961	168.19
391.186	164.19
391.411	177.19
391.636	178.19
391.86	183.19
392.085	184.19
392.31	179.19
392.534	189.19
392.759	193.19
392.984	202.19
393.208	239.19
393.433	299.19
393.658	285.19
393.882	208.19
394.107	190.19
394.331	188.19
394.556	187.19
394.78	186.19
395.005	175.19
395.229	188.19
395.454	189.19
395.678	183.19
395.903	158.19
396.127	191.19
396.352	198.19
396.576	196.19
396.801	246.19
397.025	267.19
397.249	236.19
397.474	190.19
397.698	190.19
397.922	189.19
398.147	199.19
398.371	170.19
398.595	189.19
398.82	194.19
399.044	203.19
399.268	212.19
399.492	199.19
399.717	214.19
399.941	220.19
400.165	230.19
400.389	215.19
400.613	207.19
400.837	201.19
401.062	203.19
401.286	185.19
401.51	182.19
401.734	179.19
401.958	208.19
402.182	201.19
402.406	202.19
402.63	177.19
402.854	193.19
403.078	198.19
403.302	184.19
403.526	192.19
403.75	195.19
403.974	212.19
404.198	181.19
404.422	183.19
404.645	205.19
404.869	212.19
405.093	198.19
405.317	213.19
405.541	213.19
405.765	210.19
405.988	201.19
406.212	209.19
406.436	216.19
406.66	223.19
406.883	209.19
407.107	215.19
407.331	213.19
407.555	238.19
407.778	242.19
408.002	236.19
408.226	227.19
408.449	217.19
408.673	210.19
408.896	211.19
409.12	224.19
409.344	213.19
409.567	202.19
409.791	211.19
410.014	204.19
410.238	189.19
410.461	205.19
410.685	205.19
410.908	216.19
411.132	213.19
411.355	216.19
411.578	212.19
411.802	201.19
412.025	202.19
412.249	195.19
412.472	209.19
412.695	203.19
412.919	206.19
413.142	206.19
413.365	206.19
413.589	200.19
413.812	204.19
414.035	198.19
414.258	203.19
414.482	203.19
414.705	188.19
414.928	189.19
415.151	190.19
415.374	195.19
415.597	185.19
415.821	174.19
416.044	184.19
416.267	187.19
416.49	186.19
416.713	197.19
416.936	198.19
417.159	207.19
417.382	185.19
417.605	198.19
417.828	197.19
418.051	204.19
418.274	191.19
418.497	186.19
418.72	203.19
418.943	193.19
419.166	189.19
419.389	209.19
419.611	199.19
419.834	196.19
420.057	193.19
420.28	189.19
420.503	200.19
420.726	181.19
420.948	213.19
421.171	224.19
421.394	212.19
421.617	207.19
421.839	203.19
422.062	179.19
422.285	217.19
422.507	209.19
422.73	251.19
422.953	245.19
423.175	206.19
423.398	217.19
423.621	203.19
423.843	204.19
424.066	211.19
424.288	209.19
424.511	215.19
424.733	224.19
424.956	248.19
425.178	234.19
425.401	230.19
425.623	238.19
425.846	233.19
426.068	207.19
426.291	207.19
426.513	215.19
426.735	198.19
426.958	223.19
427.18	231.19
427.402	255.19
427.625	274.19
427.847	248.19
428.069	238.19
428.292	206.19
428.514	197.19
428.736	196.19
428.958	193.19
429.181	197.19
429.403	196.19
429.625	183.19
429.847	215.19
430.069	227.19
430.292	217.19
430.514	206.19
430.736	223.19
430.958	204.19
431.18	192.19
431.402	194.19
431.624	203.19
431.846	181.19
432.068	193.19
432.29	188.19
432.512	189.19
432.734	184.19
432.956	185.19
433.178	193.19
433.4	202.19
433.622	188.19
433.844	204.19
434.066	198.19
434.287	192.19
434.509	185.19
434.731	183.19
434.953	197.19
435.175	206.19
435.397	217.19
435.618	207.19
435.84	214.19
436.062	237.19
436.284	253.19
436.505	227.19
436.727	206.19
436.949	177.19
437.17	202.19
437.392	214.19
437.614	204.19
437.835	202.19
438.057	221.19
438.278	247.19
438.5	257.19
438.721	284.19
438.943	248.19
439.165	214.19
439.386	204.19
439.608	206.19
439.829	207.19
440.05	235.19
440.272	225.19
440.493	222.19
440.715	201.19
440.936	207.19
441.158	218.19
441.379	209.19
441.6	202.19
441.822	228.19
442.043	205.19
442.264	227.19
442.486	234.19
442.707	210.19
442.928	215.19
443.149	225.19
443.371	229.19
443.592	230.19
443.813	228.19
444.034	269.19
444.255	241.19
444.476	217.19
444.698	223.19
444.919	220.19
445.14	344.19
445.361	281.19
445.582	239.19
445.803	255.19
446.024	273.19
446.245	267.19
446.466	222.19
446.687	214.19
446.908	197.19
447.129	203.19
447.35	208.19
447.571	179.19
447.792	200.19
448.013	196.19
448.234	199.19
448.455	215.19
448.675	242.19
448.896	278.19
449.117	241.19
449.338	227.19
449.559	251.19
449.779	269.19
450	230.19
450.221	208.19
450.442	218.19
450.662	189.19
450.883	189.19
451.104	190.19
451.324	196.19
451.545	196.19
451.766	189.19
451.986	177.19
452.207	178.19
452.428	194.19
452.648	195.19
452.869	172.19
453.089	181.19
453.31	178.19
453.53	174.19
453.751	188.19
453.971	188.19
454.192	177.19
454.412	179.19
454.633	169.19
454.853	179.19
455.073	186.19
455.294	182.19
455.514	217.19
455.734	198.19
455.955	186.19
456.175	173.19
456.395	185.19
456.616	172.19
456.836	172.19
457.056	165.19
457.276	167.19
457.497	175.19
457.717	174.19
457.937	188.19
458.157	185.19
458.377	171.19
458.598	198.19
458.818	191.19
459.038	230.19
459.258	223.19
459.478	198.19
459.698	203.19
459.918	192.19
460.138	183.19
460.358	189.19
460.578	198.19
460.798	189.19
461.018	198.19
461.238	199.19
461.458	203.19
461.678	189.19
461.898	190.19
462.118	213.19
462.338	199.19
462.558	196.19
462.777	187.19
462.997	191.19
463.217	205.19
463.437	192.19
463.657	207.19
463.876	188.19
464.096	203.19
464.316	209.19
464.536	210.19
464.755	190.19
464.975	222.19
465.195	226.19
465.414	244.19
465.634	223.19
465.854	195.19
466.073	199.19
466.293	201.19
466.512	177.19
466.732	196.19
466.951	189.19
467.171	204.19
467.391	194.19
467.61	197.19
467.829	203.19
468.049	171.19
468.268	181.19
468.488	200.19
468.707	196.19
468.927	206.19
469.146	188.19
469.365	199.19
469.585	199.19
469.804	192.19
470.023	187.19
470.243	202.19
470.462	193.19
470.681	204.19
470.901	202.19
471.12	193.19
471.339	204.19
471.558	189.19
471.777	188.19
471.997	187.19
472.216	184.19
472.435	188.19
472.654	193.19
472.873	180.19
473.092	163.19
473.311	181.19
473.53	186.19
473.749	214.19
473.968	200.19
474.187	213.19
474.406	233.19
474.625	198.19
474.844	187.19
475.063	188.19
475.282	186.19
475.501	185.19
475.72	189.19
475.939	168.19
476.158	216.19
476.377	210.19
476.596	189.19
476.814	194.19
477.033	191.19
477.252	203.19
477.471	188.19
477.69	192.19
477.908	209.19
478.127	214.19
478.346	206.19
478.564	214.19
478.783	219.19
479.002	199.19
479.22	195.19
479.439	202.19
479.658	222.19
479.876	205.19
480.095	225.19
480.313	220.19
480.532	218.19
480.751	222.19
480.969	190.19
481.188	219.19
481.406	216.19
481.624	203.19
481.843	203.19
482.061	207.19
482.28	188.19
482.498	207.19
482.717	204.19
482.935	194.19
483.153	215.19
483.372	229.19
483.59	214.19
483.808	209.19
484.027	205.19
484.245	216.19
484.463	222.19
484.681	215.19
484.9	215.19
485.118	217.19
485.336	214.19
485.554	205.19
485.772	211.19
485.99	212.19
486.209	226.19
486.427	230.19
486.645	231.19
486.863	213.19
487.081	238.19
487.299	225.19
487.517	238.19
487.735	226.19
487.953	228.19
488.171	235.19
488.389	238.19
488.607	222.19
488.825	238.19
489.043	228.19
489.261	234.19
489.479	241.19
489.696	225.19
489.914	212.19
490.132	232.19
490.35	233.19
490.568	225.19
490.786	234.19
491.003	236.19
491.221	246.19
491.439	244.19
491.657	258.19
491.874	268.19
492.092	275.19
492.31	254.19
492.527	280.19
492.745	244.19
492.963	262.19
493.18	259.19
493.398	261.19
493.615	273.19
493.833	268.19
494.05	235.19
494.268	263.19
494.485	271.19
494.703	259.19
494.92	268.19
495.138	254.19
495.355	241.19
495.573	275.19
495.79	272.19
496.008	285.19
496.225	265.19
496.442	276.19
496.66	277.19
496.877	252.19
497.094	275.19
497.312	253.19
497.529	258.19
497.746	251.19
497.963	247.19
498.181	276.19
498.398	261.19
498.615	272.19
498.832	258.19
499.049	275.19
499.267	285.19
499.484	293.19
499.701	299.19
499.918	324.19
500.135	318.19
500.352	351.19
500.569	339.19
500.786	347.19
501.003	341.19
501.22	351.19
501.437	326.19
501.654	321.19
501.871	321.19
502.088	311.19
502.305	305.19
502.522	290.19
502.739	292.19
502.956	250.19
503.172	271.19
503.389	250.19
503.606	271.19
503.823	260.19
504.04	267.19
504.256	258.19
504.473	246.19
504.69	246.19
504.907	265.19
505.123	250.19
505.34	250.19
505.557	251.19
505.773	255.19
505.99	236.19
506.207	243.19
506.423	221.19
506.64	245.19
506.856	226.19
507.073	243.19
507.289	246.19
507.506	236.19
507.722	246.19
507.939	235.19
508.155	241.19
508.372	223.19
508.588	220.19
508.805	221.19
509.021	216.19
509.238	221.19
509.454	230.19
509.67	214.19
509.887	234.19
510.103	237.19
510.319	227.19
510.536	270.19
510.752	405.19
510.968	305.19
511.184	244.19
511.401	223.19
511.617	219.19
511.833	206.19
512.049	227.19
512.265	210.19
512.481	210.19
512.698	214.19
512.914	209.19
513.13	215.19
513.346	208.19
513.562	213.19
513.778	218.19
513.994	214.19
514.21	231.19
514.426	226.19
514.642	235.19
514.858	257.19
515.074	261.19
515.29	309.19
515.506	423.19
515.721	334.19
515.937	237.19
516.153	235.19
516.369	221.19
516.585	232.19
516.801	218.19
517.016	237.19
517.232	226.19
517.448	244.19
517.664	222.19
517.879	234.19
518.095	236.19
518.311	233.19
518.527	238.19
518.742	221.19
518.958	234.19
519.173	226.19
519.389	220.19
519.605	232.19
519.82	218.19
520.036	241.19
520.251	227.19
520.467	223.19
520.682	242.19
520.898	257.19
521.113	248.19
521.329	267.19
521.544	301.19
521.76	357.19
521.975	537.19
522.19	513.19
522.406	296.19
522.621	241.19
522.836	229.19
523.052	230.19
523.267	211.19
523.482	213.19
523.698	216.19
523.913	216.19
524.128	205.19
524.343	205.19
524.559	203.19
524.774	225.19
524.989	228.19
525.204	221.19
525.419	195.19
525.634	201.19
525.849	196.19
526.064	211.19
526.28	207.19
526.495	198.19
526.71	187.19
526.925	206.19
527.14	193.19
527.355	171.19
527.57	203.19
527.785	195.19
527.999	201.19
528.214	181.19
528.429	185.19
528.644	204.19
528.859	202.19
529.074	209.19
529.289	202.19
529.503	221.19
529.718	230.19
529.933	210.19
530.148	186.19
530.363	187.19
530.577	177.19
530.792	205.19
531.007	179.19
531.221	186.19
531.436	195.19
531.651	188.19
531.865	183.19
532.08	181.19
532.295	173.19
532.509	179.19
532.724	180.19
532.938	183.19
533.153	186.19
533.367	191.19
533.582	197.19
533.796	186.19
534.011	186.19
534.225	173.19
534.44	173.19
534.654	190.19
534.868	183.19
535.083	177.19
535.297	198.19
535.511	189.19
535.726	187.19
535.94	201.19
536.154	191.19
536.369	191.19
536.583	168.19
536.797	197.19
537.011	183.19
537.225	186.19
537.44	189.19
537.654	180.19
537.868	183.19
538.082	180.19
538.296	165.19
538.51	188.19
538.724	189.19
538.938	186.19
539.153	170.19
539.367	191.19
539.581	202.19
539.795	190.19
540.009	199.19
540.222	178.19
540.436	195.19
540.65	187.19
540.864	197.19
541.078	187.19
541.292	193.19
541.506	203.19
541.72	207.19
541.934	203.19
542.147	217.19
542.361	218.19
542.575	210.19
542.789	200.19
543.002	198.19
543.216	198.19
543.43	192.19
543.644	193.19
543.857	202.19
544.071	189.19
544.285	182.19
544.498	202.19
544.712	206.19
544.925	177.19
545.139	194.19
545.352	200.19
545.566	208.19
545.779	194.19
545.993	187.19
546.206	207.19
546.42	214.19
546.633	211.19
546.847	198.19
547.06	205.19
547.274	193.19
547.487	206.19
547.7	193.19
547.914	218.19
548.127	191.19
548.34	199.19
548.554	179.19
548.767	186.19
548.98	210.19
549.193	197.19
549.407	195.19
549.62	199.19
549.833	195.19
550.046	204.19
550.259	218.19
550.473	188.19
550.686	213.19
550.899	184.19
551.112	207.19
551.325	190.19
551.538	193.19
551.751	169.19
551.964	171.19
552.177	186.19
552.39	177.19
552.603	200.19
552.816	202.19
553.029	194.19
553.242	207.19
553.455	211.19
553.667	198.19
553.88	203.19
554.093	201.19
554.306	195.19
554.519	188.19
554.732	195.19
554.944	204.19
555.157	187.19
555.37	190.19
555.583	194.19
555.795	202.19
556.008	180.19
556.221	175.19
556.433	177.19
556.646	186.19
556.859	188.19
557.071	190.19
557.284	180.19
557.496	182.19
557.709	182.19
557.921	192.19
558.134	200.19
558.346	185.19
558.559	182.19
558.771	182.19
558.984	185.19
559.196	173.19
559.409	185.19
559.621	189.19
559.833	201.19
560.046	174.19
560.258	190.19
560.47	182.19
560.683	175.19
560.895	187.19
561.107	189.19
561.32	168.19
561.532	182.19
561.744	174.19
561.956	187.19
562.168	176.19
562.381	180.19
562.593	173.19
562.805	173.19
563.017	181.19
563.229	190.19
563.441	170.19
563.653	180.19
563.865	181.19
564.077	167.19
564.289	191.19
564.501	186.19
564.713	184.19
564.925	186.19
565.137	195.19
565.349	192.19
565.561	187.19
565.773	188.19
565.985	201.19
566.197	191.19
566.408	197.19
566.62	192.19
566.832	202.19
567.044	204.19
567.255	192.19
567.467	208.19
567.679	197.19
567.891	196.19
568.102	209.19
568.314	193.19
568.526	204.19
568.737	179.19
568.949	183.19
569.161	177.19
569.372	166.19
569.584	173.19
569.795	153.19
570.007	180.19
570.218	177.19
570.43	169.19
570.641	172.19
570.853	173.19
571.064	175.19
571.276	164.19
571.487	182.19
571.698	148.19
571.91	165.19
572.121	173.19
572.333	156.19
572.544	169.19
572.755	161.19
572.966	163.19
573.178	136.19
573.389	150.19
573.6	151.19
573.811	149.19
574.023	151.19
574.234	170.19
574.445	149.19
574.656	142.19
574.867	151.19
575.078	154.19
575.289	153.19
575.501	156.19
575.712	157.19
575.923	153.19
576.134	161.19
576.345	153.19
576.556	155.19
576.767	153.19
576.978	171.19
577.188	177.19
577.399	145.19
577.61	156.19
577.821	153.19
578.032	174.19
578.243	163.19
578.454	229.19
578.665	193.19
578.875	154.19
579.086	148.19
579.297	135.19
579.508	149.19
579.718	138.19
579.929	144.19
580.14	147.19
580.35	138.19
580.561	139.19
580.772	156.19
580.982	156.19
581.193	142.19
581.403	147.19
581.614	149.19
581.825	136.19
582.035	132.19
582.246	130.19
582.456	150.19
582.667	147.19
582.877	157.19
583.087	157.19
583.298	142.19
583.508	142.19
583.719	150.19
583.929	143.19
584.139	150.19
584.35	133.19
584.56	145.19
584.77	150.19
584.981	139.19
585.191	155.19
585.401	147.19
585.611	134.19
585.821	144.19
586.032	135.19
586.242	136.19
586.452	167.19
586.662	145.19
586.872	144.19
587.082	147.19
587.292	141.19
587.502	146.19
587.713	165.19
587.923	131.19
588.133	146.19
588.343	135.19
588.553	142.19
588.762	155.19
588.972	154.19
589.182	180.19
589.392	186.19
589.602	153.19
589.812	188.19
590.022	166.19
590.232	146.19
590.441	142.19
590.651	141.19
590.861	142.19
591.071	136.19
591.281	143.19
591.49	146.19
591.7	140.19
591.91	149.19
592.119	142.19
592.329	138.19
592.539	154.19
592.748	142.19
592.958	156.19
593.167	157.19
593.377	146.19
593.587	154.19
593.796	144.19
594.006	128.19
594.215	153.19
594.424	157.19
594.634	155.19
594.843	154.19
595.053	131.19
595.262	149.19
595.472	154.19
595.681	140.19
595.89	135.19
596.1	139.19
596.309	159.19
596.518	149.19
596.727	158.19
596.937	154.19
597.146	141.19
597.355	147.19
597.564	141.19
597.774	149.19
597.983	142.19
598.192	135.19
598.401	147.19
598.61	146.19
598.819	133.19
599.028	138.19
599.237	147.19
599.446	140.19
599.655	147.19
599.864	141.19
600.073	123.19
600.282	149.19
600.491	144.19
600.7	129.19
600.909	140.19
601.118	149.19
601.327	162.19
601.536	148.19
601.745	130.19
601.953	145.19
602.162	130.19
602.371	124.19
602.58	131.19
602.789	155.19
602.997	147.19
603.206	139.19
603.415	148.19
603.623	133.19
603.832	148.19
604.041	147.19
604.249	125.19
604.458	133.19
604.666	134.19
604.875	127.19
605.084	122.19
605.292	138.19
605.501	143.19
605.709	163.19
605.918	127.19
606.126	134.19
606.334	143.19
606.543	143.19
606.751	137.19
606.96	155.19
607.168	147.19
607.376	150.19
607.585	150.19
607.793	146.19
608.001	126.19
608.21	138.19
608.418	138.19
608.626	147.19
608.834	132.19
609.043	148.19
609.251	140.19
609.459	141.19
609.667	146.19
609.875	161.19
610.083	147.19
610.291	141.19
610.499	142.19
610.707	132.19
610.916	139.19
611.124	127.19
611.332	143.19
611.54	150.19
611.748	147.19
611.955	162.19
612.163	155.19
612.371	157.19
612.579	153.19
612.787	151.19
612.995	153.19
613.203	151.19
613.411	141.19
613.618	143.19
613.826	133.19
614.034	130.19
614.242	137.19
614.449	142.19
614.657	144.19
614.865	137.19
615.072	149.19
615.28	153.19
615.488	145.19
615.695	140.19
615.903	140.19
616.111	144.19
616.318	143.19
616.526	147.19
616.733	144.19
616.941	144.19
617.148	158.19
617.356	137.19
617.563	137.19
617.771	142.19
617.978	144.19
618.185	152.19
618.393	131.19
618.6	143.19
618.807	151.19
619.015	145.19
619.222	143.19
619.429	129.19
619.637	133.19
619.844	142.19
620.051	147.19
620.258	163.19
620.466	129.19
620.673	148.19
620.88	127.19
621.087	134.19
621.294	142.19
621.501	137.19
621.708	126.19
621.915	129.19
622.122	137.19
622.329	138.19
622.536	150.19
622.743	139.19
622.95	138.19
623.157	144.19
623.364	133.19
623.571	127.19
623.778	126.19
623.985	137.19
624.192	149.19
624.399	136.19
624.606	122.19
624.812	137.19
625.019	130.19
625.226	123.19
625.433	137.19
625.639	128.19
625.846	135.19
626.053	122.19
626.259	118.19
626.466	126.19
626.673	125.19
626.879	118.19
627.086	136.19
627.293	143.19
627.499	131.19
627.706	116.19
627.912	133.19
628.119	133.19
628.325	147.19
628.532	115.19
628.738	128.19
628.945	119.19
629.151	118.19
629.357	130.19
629.564	118.19
629.77	140.19
629.976	126.19
630.183	148.19
630.389	139.19
630.595	122.19
630.802	106.19
631.008	127.19
631.214	121.19
631.42	121.19
631.627	129.19
631.833	127.19
632.039	119.19
632.245	116.19
632.451	115.19
632.657	113.19
632.863	115.19
633.069	140.19
633.275	117.19
633.481	125.19
633.688	117.19
633.893	123.19
634.099	118.19
634.305	131.19
634.511	133.19
634.717	132.19
634.923	116.19
635.129	111.19
635.335	125.19
635.541	120.19
635.747	122.19
635.952	119.19
636.158	132.19
636.364	124.19
636.57	116.19
636.775	130.19
636.981	126.19
637.187	114.19
637.392	123.19
637.598	114.19
637.804	117.19
638.009	108.19
638.215	129.19
638.421	132.19
638.626	117.19
638.832	130.19
639.037	126.19
639.243	122.19
639.448	128.19
639.654	132.19
639.859	126.19
640.065	105.19
640.27	120.19
640.475	120.19
640.681	122.19
640.886	132.19
641.091	126.19
641.297	112.19
641.502	119.19
641.707	127.19
641.913	120.19
642.118	113.19
642.323	124.19
642.528	108.19
642.733	122.19
642.939	115.19
643.144	124.19
643.349	114.19
643.554	115.19
643.759	135.19
643.964	129.19
644.169	122.19
644.374	123.19
644.579	124.19
644.784	109.19
644.989	104.19
645.194	110.19
645.399	107.19
645.604	133.19
645.809	124.19
646.014	110.19
646.219	124.19
646.423	108.19
646.628	124.19
646.833	123.19
647.038	99.19
647.243	127.19
647.447	129.19
647.652	125.19
647.857	122.19
648.062	113.19
648.266	129.19
648.471	107.19
648.676	121.19
648.88	108.19
649.085	126.19
649.289	117.19
649.494	125.19
649.698	118.19
649.903	113.19
650.107	114.19
650.312	113.19
650.516	132.19
650.721	118.19
650.925	113.19
651.13	130.19
651.334	126.19
651.539	125.19
651.743	123.19
651.947	123.19
652.152	118.19
652.356	121.19
652.56	120.19
652.764	116.19
652.969	114.19
653.173	106.19
653.377	113.19
653.581	113.19
653.785	107.19
653.99	110.19
654.194	99.19
654.398	124.19
654.602	119.19
654.806	115.19
655.01	126.19
655.214	134.19
655.418	106.19
655.622	111.19
655.826	108.19
656.03	114.19
656.234	117.19
656.438	129.19
656.642	131.19
656.846	106.19
657.049	122.19
657.253	111.19
657.457	112.19
657.661	112.19
657.865	109.19
658.068	102.19
658.272	109.19
658.476	104.19
658.68	93.19
658.883	85.19
659.087	98.19
659.291	102.19
659.494	93.19
659.698	87.19
659.901	93.19
660.105	94.19
660.309	89.19
660.512	81.19
660.716	82.19
660.919	86.19
661.123	91.19
661.326	84.19
661.53	83.19
661.733	97.19
661.936	89.19
662.14	83.19
662.343	82.19
662.546	92.19
662.75	89.19
662.953	89.19
663.156	87.19
663.36	80.19
663.563	86.19
663.766	83.19
663.969	83.19
664.173	76.19
664.376	75.19
664.579	81.19
664.782	77.19
664.985	77.19
665.188	74.19
665.391	87.19
665.594	94.19
665.797	78.19
666	84.19
666.203	91.19
666.406	91.19
666.609	86.19
666.812	79.19
667.015	79.19
667.218	84.19
667.421	81.19
667.624	85.19
667.827	66.19
668.03	95.19
668.232	74.19
668.435	94.19
668.638	76.19
668.841	74.19
669.043	85.19
669.246	95.19
669.449	91.19
669.651	80.19
669.854	92.19
670.057	71.19
670.259	81.19
670.462	90.19
670.665	73.19
670.867	77.19
671.07	85.19
671.272	78.19
671.475	85.19
671.677	94.19
671.88	82.19
672.082	76.19
672.284	90.19
672.487	82.19
672.689	87.19
672.892	82.19
