Data from 1971.PennyLincolnUp.Lamp.En5.5.200Scan.071719.P1._HRD10591_15-18-38-841.txt Node
Date: Thu Jul 18 15:18:38 EDT 2019
User: cochatt
Spectrometer: HR+D1059
Trigger mode: 1
Integration Time (sec): 1.000000E-1
Scans to average: 1
Electric dark correction enabled: true
Nonlinearity correction enabled: false
Boxcar width: 0
XAxis mode: Wavelengths
Number of Pixels in Spectrum: 2048
>>>>>Begin Spectral Data<<<<<
223.165	-20.81
223.4	-20.81
223.635	-20.81
223.869	-13.81
224.104	-18.81
224.338	-15.81
224.573	-23.81
224.808	-4.81
225.042	-0.81
225.277	3.19
225.511	-1.81
225.746	-1.81
225.98	-2.81
226.215	12.19
226.449	10.19
226.683	19.19
226.918	32.19
227.152	28.19
227.387	32.19
227.621	38.19
227.856	44.19
228.09	50.19
228.324	43.19
228.559	48.19
228.793	55.19
229.027	87.19
229.262	110.19
229.496	112.19
229.73	119.19
229.964	130.19
230.199	122.19
230.433	119.19
230.667	100.19
230.901	109.19
231.136	109.19
231.37	97.19
231.604	105.19
231.838	114.19
232.072	106.19
232.306	115.19
232.541	117.19
232.775	104.19
233.009	124.19
233.243	109.19
233.477	113.19
233.711	104.19
233.945	108.19
234.179	105.19
234.413	101.19
234.647	123.19
234.881	108.19
235.115	116.19
235.349	116.19
235.583	134.19
235.817	121.19
236.051	126.19
236.285	119.19
236.519	106.19
236.753	129.19
236.987	136.19
237.221	184.19
237.455	201.19
237.689	166.19
237.922	134.19
238.156	117.19
238.39	134.19
238.624	108.19
238.858	120.19
239.091	118.19
239.325	105.19
239.559	116.19
239.793	136.19
240.027	119.19
240.26	134.19
240.494	124.19
240.728	130.19
240.961	124.19
241.195	128.19
241.429	135.19
241.662	135.19
241.896	118.19
242.13	117.19
242.363	127.19
242.597	133.19
242.83	129.19
243.064	125.19
243.298	118.19
243.531	118.19
243.765	138.19
243.998	133.19
244.232	120.19
244.465	141.19
244.699	135.19
244.932	128.19
245.166	134.19
245.399	150.19
245.633	136.19
245.866	161.19
246.099	132.19
246.333	158.19
246.566	149.19
246.8	155.19
247.033	133.19
247.266	145.19
247.5	161.19
247.733	146.19
247.966	165.19
248.2	159.19
248.433	174.19
248.666	164.19
248.899	164.19
249.133	189.19
249.366	193.19
249.599	185.19
249.832	176.19
250.066	183.19
250.299	157.19
250.532	190.19
250.765	200.19
250.998	211.19
251.231	230.19
251.465	192.19
251.698	213.19
251.931	192.19
252.164	199.19
252.397	200.19
252.63	188.19
252.863	186.19
253.096	199.19
253.329	208.19
253.562	219.19
253.795	233.19
254.028	209.19
254.261	209.19
254.494	221.19
254.727	237.19
254.96	259.19
255.193	243.19
255.426	218.19
255.659	223.19
255.892	229.19
256.124	209.19
256.357	216.19
256.59	217.19
256.823	213.19
257.056	203.19
257.289	208.19
257.521	203.19
257.754	223.19
257.987	200.19
258.22	205.19
258.452	210.19
258.685	196.19
258.918	203.19
259.151	221.19
259.383	204.19
259.616	223.19
259.849	227.19
260.081	226.19
260.314	229.19
260.547	270.19
260.779	217.19
261.012	238.19
261.244	249.19
261.477	226.19
261.71	201.19
261.942	222.19
262.175	220.19
262.407	203.19
262.64	193.19
262.872	197.19
263.105	202.19
263.337	206.19
263.57	194.19
263.802	196.19
264.035	201.19
264.267	198.19
264.499	198.19
264.732	194.19
264.964	205.19
265.197	195.19
265.429	204.19
265.661	196.19
265.894	214.19
266.126	204.19
266.358	218.19
266.591	219.19
266.823	228.19
267.055	191.19
267.287	218.19
267.52	214.19
267.752	236.19
267.984	213.19
268.216	235.19
268.448	235.19
268.681	237.19
268.913	247.19
269.145	262.19
269.377	263.19
269.609	268.19
269.841	263.19
270.073	254.19
270.306	283.19
270.538	288.19
270.77	279.19
271.002	279.19
271.234	283.19
271.466	286.19
271.698	287.19
271.93	281.19
272.162	317.19
272.394	298.19
272.626	280.19
272.858	270.19
273.09	272.19
273.322	272.19
273.553	261.19
273.785	250.19
274.017	250.19
274.249	255.19
274.481	255.19
274.713	254.19
274.945	248.19
275.176	255.19
275.408	270.19
275.64	242.19
275.872	264.19
276.104	248.19
276.335	259.19
276.567	255.19
276.799	274.19
277.031	290.19
277.262	303.19
277.494	303.19
277.726	285.19
277.957	270.19
278.189	257.19
278.421	276.19
278.652	254.19
278.884	267.19
279.115	279.19
279.347	260.19
279.579	281.19
279.81	262.19
280.042	248.19
280.273	258.19
280.505	256.19
280.736	248.19
280.968	262.19
281.199	252.19
281.431	270.19
281.662	259.19
281.894	266.19
282.125	252.19
282.356	282.19
282.588	278.19
282.819	284.19
283.051	274.19
283.282	258.19
283.513	261.19
283.745	257.19
283.976	259.19
284.207	280.19
284.439	278.19
284.67	285.19
284.901	266.19
285.132	284.19
285.364	278.19
285.595	274.19
285.826	271.19
286.057	270.19
286.288	262.19
286.52	275.19
286.751	270.19
286.982	269.19
287.213	256.19
287.444	281.19
287.675	278.19
287.906	283.19
288.138	290.19
288.369	297.19
288.6	289.19
288.831	285.19
289.062	290.19
289.293	288.19
289.524	273.19
289.755	273.19
289.986	269.19
290.217	281.19
290.448	278.19
290.679	273.19
290.91	270.19
291.141	306.19
291.371	273.19
291.602	282.19
291.833	278.19
292.064	283.19
292.295	279.19
292.526	282.19
292.757	282.19
292.987	270.19
293.218	279.19
293.449	295.19
293.68	272.19
293.91	299.19
294.141	268.19
294.372	268.19
294.603	280.19
294.833	278.19
295.064	263.19
295.295	284.19
295.525	290.19
295.756	279.19
295.987	287.19
296.217	313.19
296.448	310.19
296.679	284.19
296.909	293.19
297.14	286.19
297.37	293.19
297.601	288.19
297.831	290.19
298.062	278.19
298.292	280.19
298.523	295.19
298.753	278.19
298.984	292.19
299.214	291.19
299.445	287.19
299.675	305.19
299.905	296.19
300.136	302.19
300.366	318.19
300.597	300.19
300.827	330.19
301.057	294.19
301.288	311.19
301.518	312.19
301.748	296.19
301.979	311.19
302.209	306.19
302.439	314.19
302.669	327.19
302.9	298.19
303.13	308.19
303.36	311.19
303.59	318.19
303.82	317.19
304.051	325.19
304.281	330.19
304.511	292.19
304.741	331.19
304.971	316.19
305.201	308.19
305.431	303.19
305.661	327.19
305.891	298.19
306.121	324.19
306.352	314.19
306.582	303.19
306.812	330.19
307.042	330.19
307.272	337.19
307.502	326.19
307.731	328.19
307.961	328.19
308.191	322.19
308.421	315.19
308.651	315.19
308.881	320.19
309.111	341.19
309.341	310.19
309.571	362.19
309.8	326.19
310.03	324.19
310.26	325.19
310.49	336.19
310.72	362.19
310.949	364.19
311.179	340.19
311.409	357.19
311.639	351.19
311.868	349.19
312.098	349.19
312.328	374.19
312.557	342.19
312.787	386.19
313.017	365.19
313.246	360.19
313.476	344.19
313.706	355.19
313.935	376.19
314.165	394.19
314.394	369.19
314.624	370.19
314.853	364.19
315.083	373.19
315.312	363.19
315.542	363.19
315.771	360.19
316.001	347.19
316.23	353.19
316.46	340.19
316.689	355.19
316.919	359.19
317.148	373.19
317.377	367.19
317.607	340.19
317.836	362.19
318.065	359.19
318.295	355.19
318.524	367.19
318.753	351.19
318.983	343.19
319.212	365.19
319.441	369.19
319.67	362.19
319.9	378.19
320.129	350.19
320.358	348.19
320.587	354.19
320.816	365.19
321.046	380.19
321.275	379.19
321.504	376.19
321.733	352.19
321.962	379.19
322.191	400.19
322.42	407.19
322.649	434.19
322.878	420.19
323.108	399.19
323.337	429.19
323.566	459.19
323.795	472.19
324.024	513.19
324.253	623.19
324.482	863.19
324.71	1251.19
324.939	1718.19
325.168	1454.19
325.397	766.19
325.626	547.19
325.855	478.19
326.084	453.19
326.313	442.19
326.542	444.19
326.77	493.19
326.999	593.19
327.228	782.19
327.457	1106.19
327.686	1245.19
327.914	856.19
328.143	603.19
328.372	540.19
328.6	497.19
328.829	503.19
329.058	494.19
329.287	496.19
329.515	462.19
329.744	429.19
329.972	463.19
330.201	470.19
330.43	495.19
330.658	512.19
330.887	536.19
331.115	491.19
331.344	473.19
331.572	444.19
331.801	427.19
332.03	440.19
332.258	443.19
332.486	418.19
332.715	412.19
332.943	411.19
333.172	401.19
333.4	414.19
333.629	437.19
333.857	434.19
334.085	446.19
334.314	457.19
334.542	451.19
334.771	483.19
334.999	458.19
335.227	424.19
335.455	432.19
335.684	408.19
335.912	409.19
336.14	394.19
336.369	405.19
336.597	425.19
336.825	430.19
337.053	424.19
337.281	409.19
337.51	408.19
337.738	404.19
337.966	391.19
338.194	419.19
338.422	394.19
338.65	401.19
338.878	404.19
339.106	405.19
339.334	407.19
339.562	392.19
339.79	384.19
340.018	387.19
340.246	387.19
340.474	398.19
340.702	402.19
340.93	409.19
341.158	394.19
341.386	399.19
341.614	379.19
341.842	392.19
342.07	390.19
342.298	406.19
342.526	378.19
342.754	399.19
342.981	379.19
343.209	371.19
343.437	391.19
343.665	392.19
343.893	375.19
344.12	387.19
344.348	388.19
344.576	366.19
344.804	411.19
345.031	406.19
345.259	415.19
345.487	398.19
345.714	372.19
345.942	374.19
346.17	384.19
346.397	373.19
346.625	366.19
346.853	385.19
347.08	354.19
347.308	358.19
347.535	387.19
347.763	378.19
347.99	391.19
348.218	390.19
348.445	370.19
348.673	387.19
348.9	388.19
349.128	378.19
349.355	344.19
349.583	362.19
349.81	367.19
350.037	361.19
350.265	364.19
350.492	343.19
350.72	374.19
350.947	369.19
351.174	365.19
351.402	378.19
351.629	386.19
351.856	377.19
352.083	365.19
352.311	370.19
352.538	382.19
352.765	374.19
352.992	374.19
353.22	361.19
353.447	370.19
353.674	355.19
353.901	344.19
354.128	360.19
354.355	329.19
354.583	351.19
354.81	338.19
355.037	350.19
355.264	326.19
355.491	329.19
355.718	344.19
355.945	351.19
356.172	356.19
356.399	332.19
356.626	368.19
356.853	339.19
357.08	336.19
357.307	340.19
357.534	353.19
357.761	335.19
357.988	347.19
358.215	365.19
358.441	361.19
358.668	333.19
358.895	357.19
359.122	340.19
359.349	361.19
359.576	353.19
359.802	358.19
360.029	385.19
360.256	387.19
360.483	373.19
360.709	368.19
360.936	362.19
361.163	367.19
361.39	376.19
361.616	374.19
361.843	347.19
362.07	380.19
362.296	340.19
362.523	359.19
362.749	366.19
362.976	361.19
363.203	360.19
363.429	342.19
363.656	344.19
363.882	339.19
364.109	355.19
364.335	356.19
364.562	357.19
364.788	340.19
365.015	337.19
365.241	347.19
365.468	344.19
365.694	344.19
365.92	342.19
366.147	347.19
366.373	349.19
366.599	331.19
366.826	354.19
367.052	333.19
367.278	343.19
367.505	339.19
367.731	334.19
367.957	352.19
368.184	347.19
368.41	347.19
368.636	344.19
368.862	348.19
369.089	363.19
369.315	335.19
369.541	346.19
369.767	337.19
369.993	344.19
370.219	331.19
370.445	355.19
370.672	353.19
370.898	342.19
371.124	328.19
371.35	327.19
371.576	336.19
371.802	343.19
372.028	333.19
372.254	340.19
372.48	333.19
372.706	354.19
372.932	344.19
373.158	355.19
373.384	345.19
373.61	335.19
373.835	336.19
374.061	349.19
374.287	357.19
374.513	340.19
374.739	350.19
374.965	348.19
375.191	357.19
375.416	340.19
375.642	342.19
375.868	331.19
376.094	342.19
376.319	328.19
376.545	329.19
376.771	316.19
376.997	299.19
377.222	328.19
377.448	316.19
377.674	327.19
377.899	335.19
378.125	332.19
378.35	349.19
378.576	334.19
378.802	354.19
379.027	336.19
379.253	324.19
379.478	339.19
379.704	339.19
379.929	326.19
380.155	338.19
380.38	327.19
380.606	323.19
380.831	344.19
381.057	335.19
381.282	338.19
381.507	342.19
381.733	332.19
381.958	347.19
382.184	325.19
382.409	342.19
382.634	354.19
382.86	337.19
383.085	324.19
383.31	335.19
383.535	347.19
383.761	347.19
383.986	334.19
384.211	344.19
384.436	340.19
384.662	349.19
384.887	341.19
385.112	343.19
385.337	380.19
385.562	339.19
385.787	338.19
386.013	363.19
386.238	368.19
386.463	353.19
386.688	353.19
386.913	349.19
387.138	355.19
387.363	359.19
387.588	360.19
387.813	377.19
388.038	364.19
388.263	346.19
388.488	345.19
388.713	357.19
388.938	352.19
389.163	358.19
389.387	357.19
389.612	355.19
389.837	357.19
390.062	358.19
390.287	363.19
390.512	356.19
390.736	330.19
390.961	343.19
391.186	356.19
391.411	363.19
391.636	360.19
391.86	367.19
392.085	366.19
392.31	377.19
392.534	358.19
392.759	345.19
392.984	371.19
393.208	360.19
393.433	364.19
393.658	347.19
393.882	354.19
394.107	360.19
394.331	338.19
394.556	348.19
394.78	344.19
395.005	350.19
395.229	361.19
395.454	366.19
395.678	381.19
395.903	382.19
396.127	370.19
396.352	385.19
396.576	375.19
396.801	347.19
397.025	354.19
397.249	366.19
397.474	364.19
397.698	373.19
397.922	387.19
398.147	393.19
398.371	400.19
398.595	379.19
398.82	378.19
399.044	422.19
399.268	411.19
399.492	426.19
399.717	451.19
399.941	477.19
400.165	468.19
400.389	464.19
400.613	446.19
400.837	422.19
401.062	404.19
401.286	390.19
401.51	378.19
401.734	384.19
401.958	392.19
402.182	418.19
402.406	393.19
402.63	406.19
402.854	397.19
403.078	404.19
403.302	392.19
403.526	409.19
403.75	399.19
403.974	407.19
404.198	393.19
404.422	400.19
404.645	402.19
404.869	407.19
405.093	419.19
405.317	440.19
405.541	485.19
405.765	463.19
405.988	427.19
406.212	451.19
406.436	426.19
406.66	422.19
406.883	401.19
407.107	436.19
407.331	479.19
407.555	532.19
407.778	514.19
408.002	487.19
408.226	446.19
408.449	437.19
408.673	452.19
408.896	445.19
409.12	491.19
409.344	457.19
409.567	415.19
409.791	408.19
410.014	383.19
410.238	414.19
410.461	413.19
410.685	404.19
410.908	428.19
411.132	444.19
411.355	456.19
411.578	439.19
411.802	384.19
412.025	417.19
412.249	407.19
412.472	423.19
412.695	450.19
412.919	423.19
413.142	390.19
413.365	400.19
413.589	365.19
413.812	382.19
414.035	378.19
414.258	395.19
414.482	380.19
414.705	387.19
414.928	379.19
415.151	365.19
415.374	378.19
415.597	374.19
415.821	375.19
416.044	384.19
416.267	396.19
416.49	368.19
416.713	362.19
416.936	357.19
417.159	390.19
417.382	388.19
417.605	371.19
417.828	379.19
418.051	398.19
418.274	394.19
418.497	381.19
418.72	373.19
418.943	371.19
419.166	383.19
419.389	402.19
419.611	389.19
419.834	382.19
420.057	392.19
420.28	380.19
420.503	412.19
420.726	407.19
420.948	410.19
421.171	431.19
421.394	466.19
421.617	416.19
421.839	379.19
422.062	399.19
422.285	412.19
422.507	450.19
422.73	490.19
422.953	495.19
423.175	443.19
423.398	420.19
423.621	423.19
423.843	455.19
424.066	436.19
424.288	434.19
424.511	456.19
424.733	482.19
424.956	543.19
425.178	512.19
425.401	526.19
425.623	522.19
425.846	442.19
426.068	446.19
426.291	429.19
426.513	415.19
426.735	443.19
426.958	461.19
427.18	536.19
427.402	615.19
427.625	673.19
427.847	575.19
428.069	489.19
428.292	457.19
428.514	412.19
428.736	429.19
428.958	391.19
429.181	392.19
429.403	378.19
429.625	380.19
429.847	431.19
430.069	460.19
430.292	470.19
430.514	412.19
430.736	390.19
430.958	378.19
431.18	374.19
431.402	390.19
431.624	364.19
431.846	368.19
432.068	384.19
432.29	367.19
432.512	378.19
432.734	379.19
432.956	389.19
433.178	375.19
433.4	369.19
433.622	376.19
433.844	378.19
434.066	371.19
434.287	361.19
434.509	374.19
434.731	362.19
434.953	370.19
435.175	410.19
435.397	414.19
435.618	398.19
435.84	448.19
436.062	508.19
436.284	567.19
436.505	495.19
436.727	426.19
436.949	411.19
437.17	394.19
437.392	396.19
437.614	393.19
437.835	430.19
438.057	484.19
438.278	574.19
438.5	565.19
438.721	619.19
438.943	583.19
439.165	482.19
439.386	427.19
439.608	446.19
439.829	436.19
440.05	456.19
440.272	483.19
440.493	445.19
440.715	420.19
440.936	406.19
441.158	398.19
441.379	394.19
441.6	414.19
441.822	409.19
442.043	472.19
442.264	518.19
442.486	536.19
442.707	479.19
442.928	414.19
443.149	429.19
443.371	442.19
443.592	490.19
443.813	546.19
444.034	599.19
444.255	469.19
444.476	427.19
444.698	432.19
444.919	418.19
445.14	547.19
445.361	464.19
445.582	472.19
445.803	505.19
446.024	571.19
446.245	587.19
446.466	524.19
446.687	446.19
446.908	438.19
447.129	392.19
447.35	405.19
447.571	400.19
447.792	380.19
448.013	392.19
448.234	407.19
448.455	458.19
448.675	539.19
448.896	596.19
449.117	517.19
449.338	486.19
449.559	570.19
449.779	632.19
450	489.19
450.221	437.19
450.442	399.19
450.662	377.19
450.883	390.19
451.104	410.19
451.324	376.19
451.545	378.19
451.766	354.19
451.986	354.19
452.207	341.19
452.428	360.19
452.648	342.19
452.869	332.19
453.089	365.19
453.31	353.19
453.53	355.19
453.751	359.19
453.971	352.19
454.192	361.19
454.412	356.19
454.633	344.19
454.853	343.19
455.073	332.19
455.294	370.19
455.514	418.19
455.734	415.19
455.955	359.19
456.175	336.19
456.395	320.19
456.616	316.19
456.836	335.19
457.056	338.19
457.276	329.19
457.497	329.19
457.717	331.19
457.937	351.19
458.157	341.19
458.377	342.19
458.598	366.19
458.818	379.19
459.038	442.19
459.258	461.19
459.478	420.19
459.698	342.19
459.918	362.19
460.138	361.19
460.358	353.19
460.578	356.19
460.798	381.19
461.018	360.19
461.238	370.19
461.458	363.19
461.678	378.19
461.898	374.19
462.118	389.19
462.338	366.19
462.558	386.19
462.777	381.19
462.997	382.19
463.217	395.19
463.437	382.19
463.657	390.19
463.876	388.19
464.096	395.19
464.316	388.19
464.536	390.19
464.755	384.19
464.975	384.19
465.195	423.19
465.414	470.19
465.634	418.19
465.854	380.19
466.073	363.19
466.293	364.19
466.512	344.19
466.732	359.19
466.951	353.19
467.171	368.19
467.391	349.19
467.61	379.19
467.829	379.19
468.049	361.19
468.268	348.19
468.488	350.19
468.707	329.19
468.927	341.19
469.146	346.19
469.365	360.19
469.585	346.19
469.804	348.19
470.023	352.19
470.243	362.19
470.462	377.19
470.681	378.19
470.901	393.19
471.12	354.19
471.339	354.19
471.558	358.19
471.777	389.19
471.997	368.19
472.216	345.19
472.435	374.19
472.654	378.19
472.873	345.19
473.092	374.19
473.311	360.19
473.53	346.19
473.749	358.19
473.968	395.19
474.187	484.19
474.406	478.19
474.625	407.19
474.844	392.19
475.063	380.19
475.282	332.19
475.501	347.19
475.72	367.19
475.939	382.19
476.158	384.19
476.377	390.19
476.596	371.19
476.814	371.19
477.033	380.19
477.252	390.19
477.471	389.19
477.69	389.19
477.908	397.19
478.127	388.19
478.346	407.19
478.564	386.19
478.783	422.19
479.002	419.19
479.22	405.19
479.439	412.19
479.658	415.19
479.876	411.19
480.095	445.19
480.313	454.19
480.532	442.19
480.751	433.19
480.969	424.19
481.188	459.19
481.406	476.19
481.624	463.19
481.843	418.19
482.061	412.19
482.28	416.19
482.498	409.19
482.717	401.19
482.935	400.19
483.153	416.19
483.372	420.19
483.59	412.19
483.808	406.19
484.027	423.19
484.245	403.19
484.463	428.19
484.681	442.19
484.9	422.19
485.118	421.19
485.336	422.19
485.554	424.19
485.772	430.19
485.99	415.19
486.209	420.19
486.427	427.19
486.645	437.19
486.863	444.19
487.081	450.19
487.299	444.19
487.517	422.19
487.735	456.19
487.953	461.19
488.171	431.19
488.389	444.19
488.607	445.19
488.825	448.19
489.043	453.19
489.261	463.19
489.479	473.19
489.696	456.19
489.914	435.19
490.132	471.19
490.35	456.19
490.568	479.19
490.786	485.19
491.003	483.19
491.221	480.19
491.439	500.19
491.657	510.19
491.874	512.19
492.092	515.19
492.31	538.19
492.527	532.19
492.745	508.19
492.963	514.19
493.18	529.19
493.398	519.19
493.615	522.19
493.833	537.19
494.05	537.19
494.268	561.19
494.485	548.19
494.703	530.19
494.92	530.19
495.138	530.19
495.355	527.19
495.573	530.19
495.79	525.19
496.008	528.19
496.225	519.19
496.442	534.19
496.66	534.19
496.877	518.19
497.094	520.19
497.312	538.19
497.529	538.19
497.746	542.19
497.963	556.19
498.181	556.19
498.398	565.19
498.615	582.19
498.832	583.19
499.049	590.19
499.267	608.19
499.484	601.19
499.701	636.19
499.918	646.19
500.135	678.19
500.352	684.19
500.569	674.19
500.786	703.19
501.003	682.19
501.22	681.19
501.437	663.19
501.654	652.19
501.871	648.19
502.088	623.19
502.305	588.19
502.522	578.19
502.739	587.19
502.956	566.19
503.172	551.19
503.389	566.19
503.606	526.19
503.823	538.19
504.04	542.19
504.256	535.19
504.473	532.19
504.69	547.19
504.907	520.19
505.123	509.19
505.34	517.19
505.557	516.19
505.773	499.19
505.99	505.19
506.207	502.19
506.423	502.19
506.64	487.19
506.856	510.19
507.073	486.19
507.289	505.19
507.506	489.19
507.722	507.19
507.939	520.19
508.155	506.19
508.372	480.19
508.588	487.19
508.805	462.19
509.021	482.19
509.238	506.19
509.454	507.19
509.67	481.19
509.887	491.19
510.103	478.19
510.319	461.19
510.536	539.19
510.752	811.19
510.968	664.19
511.184	464.19
511.401	453.19
511.617	455.19
511.833	455.19
512.049	446.19
512.265	460.19
512.481	445.19
512.698	456.19
512.914	429.19
513.13	452.19
513.346	445.19
513.562	434.19
513.778	448.19
513.994	447.19
514.21	460.19
514.426	468.19
514.642	503.19
514.858	513.19
515.074	554.19
515.29	617.19
515.506	845.19
515.721	722.19
515.937	550.19
516.153	495.19
516.369	464.19
516.585	449.19
516.801	461.19
517.016	461.19
517.232	449.19
517.448	447.19
517.664	460.19
517.879	463.19
518.095	455.19
518.311	430.19
518.527	454.19
518.742	453.19
518.958	443.19
519.173	447.19
519.389	446.19
519.605	419.19
519.82	439.19
520.036	450.19
520.251	455.19
520.467	469.19
520.682	489.19
520.898	473.19
521.113	496.19
521.329	528.19
521.544	584.19
521.76	710.19
521.975	1079.19
522.19	1017.19
522.406	632.19
522.621	512.19
522.836	446.19
523.052	443.19
523.267	420.19
523.482	418.19
523.698	418.19
523.913	419.19
524.128	418.19
524.343	402.19
524.559	386.19
524.774	399.19
524.989	397.19
525.204	410.19
525.419	409.19
525.634	395.19
525.849	386.19
526.064	379.19
526.28	375.19
526.495	370.19
526.71	373.19
526.925	376.19
527.14	366.19
527.355	382.19
527.57	358.19
527.785	353.19
527.999	359.19
528.214	364.19
528.429	342.19
528.644	370.19
528.859	364.19
529.074	379.19
529.289	389.19
529.503	422.19
529.718	421.19
529.933	386.19
530.148	390.19
530.363	365.19
530.577	366.19
530.792	351.19
531.007	370.19
531.221	360.19
531.436	360.19
531.651	352.19
531.865	363.19
532.08	348.19
532.295	333.19
532.509	335.19
532.724	339.19
532.938	330.19
533.153	359.19
533.367	346.19
533.582	340.19
533.796	355.19
534.011	359.19
534.225	363.19
534.44	343.19
534.654	354.19
534.868	347.19
535.083	360.19
535.297	332.19
535.511	342.19
535.726	361.19
535.94	343.19
536.154	346.19
536.369	339.19
536.583	343.19
536.797	347.19
537.011	333.19
537.225	347.19
537.44	334.19
537.654	348.19
537.868	355.19
538.082	343.19
538.296	331.19
538.51	355.19
538.724	334.19
538.938	335.19
539.153	349.19
539.367	364.19
539.581	335.19
539.795	355.19
540.009	335.19
540.222	343.19
540.436	349.19
540.65	347.19
540.864	351.19
541.078	354.19
541.292	362.19
541.506	367.19
541.72	355.19
541.934	357.19
542.147	363.19
542.361	351.19
542.575	348.19
542.789	356.19
543.002	333.19
543.216	338.19
543.43	356.19
543.644	358.19
543.857	331.19
544.071	352.19
544.285	355.19
544.498	345.19
544.712	356.19
544.925	342.19
545.139	335.19
545.352	343.19
545.566	343.19
545.779	335.19
545.993	319.19
546.206	354.19
546.42	337.19
546.633	339.19
546.847	335.19
547.06	340.19
547.274	329.19
547.487	336.19
547.7	347.19
547.914	347.19
548.127	336.19
548.34	361.19
548.554	336.19
548.767	369.19
548.98	325.19
549.193	339.19
549.407	325.19
549.62	327.19
549.833	323.19
550.046	339.19
550.259	330.19
550.473	308.19
550.686	318.19
550.899	334.19
551.112	319.19
551.325	342.19
551.538	321.19
551.751	331.19
551.964	333.19
552.177	320.19
552.39	335.19
552.603	337.19
552.816	342.19
553.029	311.19
553.242	338.19
553.455	359.19
553.667	350.19
553.88	347.19
554.093	317.19
554.306	354.19
554.519	339.19
554.732	330.19
554.944	330.19
555.157	332.19
555.37	324.19
555.583	322.19
555.795	319.19
556.008	314.19
556.221	311.19
556.433	304.19
556.646	294.19
556.859	330.19
557.071	291.19
557.284	298.19
557.496	291.19
557.709	320.19
557.921	290.19
558.134	303.19
558.346	299.19
558.559	301.19
558.771	295.19
558.984	299.19
559.196	313.19
559.409	296.19
559.621	306.19
559.833	288.19
560.046	308.19
560.258	282.19
560.47	296.19
560.683	285.19
560.895	308.19
561.107	299.19
561.32	294.19
561.532	296.19
561.744	316.19
561.956	291.19
562.168	296.19
562.381	307.19
562.593	298.19
562.805	302.19
563.017	291.19
563.229	284.19
563.441	303.19
563.653	287.19
563.865	294.19
564.077	296.19
564.289	299.19
564.501	310.19
564.713	286.19
564.925	302.19
565.137	307.19
565.349	310.19
565.561	287.19
565.773	310.19
565.985	307.19
566.197	308.19
566.408	326.19
566.62	348.19
566.832	344.19
567.044	339.19
567.255	335.19
567.467	342.19
567.679	319.19
567.891	355.19
568.102	338.19
568.314	347.19
568.526	344.19
568.737	323.19
568.949	319.19
569.161	306.19
569.372	318.19
569.584	307.19
569.795	301.19
570.007	294.19
570.218	341.19
570.43	291.19
570.641	285.19
570.853	298.19
571.064	286.19
571.276	281.19
571.487	268.19
571.698	267.19
571.91	287.19
572.121	276.19
572.333	267.19
572.544	276.19
572.755	275.19
572.966	266.19
573.178	251.19
573.389	255.19
573.6	249.19
573.811	265.19
574.023	236.19
574.234	248.19
574.445	231.19
574.656	243.19
574.867	242.19
575.078	262.19
575.289	254.19
575.501	259.19
575.712	253.19
575.923	256.19
576.134	250.19
576.345	244.19
576.556	262.19
576.767	251.19
576.978	255.19
577.188	254.19
577.399	236.19
577.61	247.19
577.821	256.19
578.032	252.19
578.243	278.19
578.454	398.19
578.665	325.19
578.875	245.19
579.086	220.19
579.297	246.19
579.508	250.19
579.718	234.19
579.929	238.19
580.14	243.19
580.35	232.19
580.561	248.19
580.772	230.19
580.982	232.19
581.193	218.19
581.403	220.19
581.614	226.19
581.825	238.19
582.035	258.19
582.246	235.19
582.456	235.19
582.667	219.19
582.877	233.19
583.087	229.19
583.298	218.19
583.508	234.19
583.719	224.19
583.929	242.19
584.139	242.19
584.35	234.19
584.56	235.19
584.77	212.19
584.981	221.19
585.191	227.19
585.401	226.19
585.611	218.19
585.821	224.19
586.032	223.19
586.242	251.19
586.452	219.19
586.662	219.19
586.872	217.19
587.082	228.19
587.292	213.19
587.502	229.19
587.713	218.19
587.923	239.19
588.133	220.19
588.343	220.19
588.553	219.19
588.762	233.19
588.972	228.19
589.182	224.19
589.392	234.19
589.602	231.19
589.812	212.19
590.022	236.19
590.232	212.19
590.441	217.19
590.651	227.19
590.861	232.19
591.071	221.19
591.281	228.19
591.49	231.19
591.7	220.19
591.91	227.19
592.119	200.19
592.329	224.19
592.539	222.19
592.748	229.19
592.958	222.19
593.167	227.19
593.377	223.19
593.587	232.19
593.796	235.19
594.006	223.19
594.215	247.19
594.424	244.19
594.634	233.19
594.843	244.19
595.053	223.19
595.262	210.19
595.472	225.19
595.681	199.19
595.89	224.19
596.1	223.19
596.309	213.19
596.518	224.19
596.727	213.19
596.937	203.19
597.146	220.19
597.355	216.19
597.564	195.19
597.774	211.19
597.983	191.19
598.192	187.19
598.401	214.19
598.61	205.19
598.819	207.19
599.028	198.19
599.237	208.19
599.446	200.19
599.655	192.19
599.864	206.19
600.073	204.19
600.282	201.19
600.491	202.19
600.7	217.19
600.909	205.19
601.118	203.19
601.327	186.19
601.536	195.19
601.745	208.19
601.953	189.19
602.162	203.19
602.371	207.19
602.58	200.19
602.789	184.19
602.997	203.19
603.206	203.19
603.415	204.19
603.623	199.19
603.832	188.19
604.041	195.19
604.249	191.19
604.458	188.19
604.666	190.19
604.875	184.19
605.084	198.19
605.292	200.19
605.501	198.19
605.709	190.19
605.918	202.19
606.126	189.19
606.334	212.19
606.543	180.19
606.751	198.19
606.96	212.19
607.168	204.19
607.376	184.19
607.585	192.19
607.793	190.19
608.001	191.19
608.21	208.19
608.418	203.19
608.626	207.19
608.834	205.19
609.043	197.19
609.251	191.19
609.459	200.19
609.667	192.19
609.875	184.19
610.083	192.19
610.291	201.19
610.499	203.19
610.707	186.19
610.916	195.19
611.124	196.19
611.332	192.19
611.54	207.19
611.748	201.19
611.955	206.19
612.163	199.19
612.371	184.19
612.579	194.19
612.787	191.19
612.995	204.19
613.203	195.19
613.411	178.19
613.618	186.19
613.826	201.19
614.034	198.19
614.242	194.19
614.449	193.19
614.657	194.19
614.865	190.19
615.072	184.19
615.28	197.19
615.488	203.19
615.695	194.19
615.903	194.19
616.111	189.19
616.318	190.19
616.526	194.19
616.733	192.19
616.941	195.19
617.148	200.19
617.356	201.19
617.563	195.19
617.771	206.19
617.978	180.19
618.185	196.19
618.393	180.19
618.6	189.19
618.807	178.19
619.015	182.19
619.222	190.19
619.429	192.19
619.637	192.19
619.844	171.19
620.051	174.19
620.258	184.19
620.466	171.19
620.673	188.19
620.88	181.19
621.087	178.19
621.294	187.19
621.501	195.19
621.708	170.19
621.915	188.19
622.122	172.19
622.329	167.19
622.536	194.19
622.743	169.19
622.95	180.19
623.157	173.19
623.364	178.19
623.571	182.19
623.778	183.19
623.985	184.19
624.192	169.19
624.399	159.19
624.606	158.19
624.812	159.19
625.019	179.19
625.226	172.19
625.433	179.19
625.639	181.19
625.846	180.19
626.053	180.19
626.259	166.19
626.466	184.19
626.673	186.19
626.879	162.19
627.086	172.19
627.293	186.19
627.499	188.19
627.706	174.19
627.912	182.19
628.119	172.19
628.325	164.19
628.532	176.19
628.738	168.19
628.945	162.19
629.151	184.19
629.357	162.19
629.564	170.19
629.77	174.19
629.976	152.19
630.183	151.19
630.389	161.19
630.595	156.19
630.802	179.19
631.008	164.19
631.214	160.19
631.42	169.19
631.627	182.19
631.833	178.19
632.039	171.19
632.245	146.19
632.451	153.19
632.657	153.19
632.863	165.19
633.069	155.19
633.275	181.19
633.481	158.19
633.688	159.19
633.893	166.19
634.099	160.19
634.305	167.19
634.511	154.19
634.717	147.19
634.923	167.19
635.129	157.19
635.335	154.19
635.541	135.19
635.747	133.19
635.952	159.19
636.158	175.19
636.364	159.19
636.57	151.19
636.775	152.19
636.981	157.19
637.187	146.19
637.392	155.19
637.598	168.19
637.804	172.19
638.009	160.19
638.215	158.19
638.421	159.19
638.626	154.19
638.832	155.19
639.037	151.19
639.243	157.19
639.448	147.19
639.654	162.19
639.859	136.19
640.065	138.19
640.27	151.19
640.475	151.19
640.681	146.19
640.886	142.19
641.091	152.19
641.297	156.19
641.502	162.19
641.707	149.19
641.913	153.19
642.118	158.19
642.323	149.19
642.528	155.19
642.733	158.19
642.939	118.19
643.144	159.19
643.349	132.19
643.554	126.19
643.759	150.19
643.964	137.19
644.169	153.19
644.374	152.19
644.579	155.19
644.784	152.19
644.989	148.19
645.194	153.19
645.399	147.19
645.604	135.19
645.809	141.19
646.014	158.19
646.219	143.19
646.423	153.19
646.628	144.19
646.833	157.19
647.038	148.19
647.243	129.19
647.447	138.19
647.652	155.19
647.857	162.19
648.062	152.19
648.266	147.19
648.471	150.19
648.676	152.19
648.88	139.19
649.085	143.19
649.289	148.19
649.494	160.19
649.698	172.19
649.903	156.19
650.107	139.19
650.312	149.19
650.516	146.19
650.721	142.19
650.925	142.19
651.13	125.19
651.334	142.19
651.539	137.19
651.743	136.19
651.947	125.19
652.152	140.19
652.356	137.19
652.56	121.19
652.764	106.19
652.969	134.19
653.173	119.19
653.377	102.19
653.581	114.19
653.785	133.19
653.99	130.19
654.194	144.19
654.398	125.19
654.602	110.19
654.806	125.19
655.01	128.19
655.214	138.19
655.418	127.19
655.622	118.19
655.826	129.19
656.03	122.19
656.234	126.19
656.438	129.19
656.642	124.19
656.846	127.19
657.049	113.19
657.253	118.19
657.457	109.19
657.661	115.19
657.865	116.19
658.068	114.19
658.272	104.19
658.476	89.19
658.68	101.19
658.883	102.19
659.087	106.19
659.291	96.19
659.494	97.19
659.698	104.19
659.901	102.19
660.105	102.19
660.309	79.19
660.512	95.19
660.716	88.19
660.919	92.19
661.123	98.19
661.326	81.19
661.53	94.19
661.733	107.19
661.936	86.19
662.14	102.19
662.343	89.19
662.546	90.19
662.75	94.19
662.953	92.19
663.156	79.19
663.36	85.19
663.563	82.19
663.766	86.19
663.969	69.19
664.173	80.19
664.376	83.19
664.579	84.19
664.782	91.19
664.985	66.19
665.188	80.19
665.391	78.19
665.594	77.19
665.797	82.19
666	78.19
666.203	87.19
666.406	84.19
666.609	92.19
666.812	83.19
667.015	92.19
667.218	89.19
667.421	88.19
667.624	77.19
667.827	81.19
668.03	78.19
668.232	76.19
668.435	89.19
668.638	79.19
668.841	78.19
669.043	83.19
669.246	75.19
669.449	84.19
669.651	82.19
669.854	73.19
670.057	90.19
670.259	79.19
670.462	83.19
670.665	77.19
670.867	78.19
671.07	69.19
671.272	80.19
671.475	86.19
671.677	89.19
671.88	90.19
672.082	81.19
672.284	82.19
672.487	79.19
672.689	86.19
672.892	71.19
