Data from 1972.PennyLincolnUp.Lamp.En5.5.200Scan.071719.P1._HRD10591_15-26-47-844.txt Node
Date: Thu Jul 18 15:26:47 EDT 2019
User: cochatt
Spectrometer: HR+D1059
Trigger mode: 1
Integration Time (sec): 1.000000E-1
Scans to average: 1
Electric dark correction enabled: true
Nonlinearity correction enabled: false
Boxcar width: 0
XAxis mode: Wavelengths
Number of Pixels in Spectrum: 2048
>>>>>Begin Spectral Data<<<<<
223.165	-7.81
223.4	-7.81
223.635	-7.81
223.869	-23.81
224.104	-11.81
224.338	-23.81
224.573	-18.81
224.808	0.19
225.042	-7.81
225.277	-6.81
225.511	-13.81
225.746	3.19
225.98	8.19
226.215	16.19
226.449	19.19
226.683	19.19
226.918	26.19
227.152	22.19
227.387	31.19
227.621	37.19
227.856	35.19
228.09	46.19
228.324	39.19
228.559	60.19
228.793	60.19
229.027	84.19
229.262	88.19
229.496	81.19
229.73	118.19
229.964	126.19
230.199	114.19
230.433	101.19
230.667	98.19
230.901	107.19
231.136	115.19
231.37	89.19
231.604	94.19
231.838	105.19
232.072	112.19
232.306	101.19
232.541	106.19
232.775	106.19
233.009	98.19
233.243	101.19
233.477	119.19
233.711	104.19
233.945	106.19
234.179	115.19
234.413	94.19
234.647	94.19
234.881	99.19
235.115	109.19
235.349	100.19
235.583	103.19
235.817	127.19
236.051	100.19
236.285	124.19
236.519	116.19
236.753	116.19
236.987	130.19
237.221	141.19
237.455	181.19
237.689	156.19
237.922	125.19
238.156	117.19
238.39	114.19
238.624	109.19
238.858	117.19
239.091	106.19
239.325	102.19
239.559	114.19
239.793	116.19
240.027	115.19
240.26	121.19
240.494	120.19
240.728	106.19
240.961	113.19
241.195	120.19
241.429	117.19
241.662	106.19
241.896	96.19
242.13	114.19
242.363	102.19
242.597	110.19
242.83	116.19
243.064	118.19
243.298	117.19
243.531	116.19
243.765	120.19
243.998	109.19
244.232	113.19
244.465	129.19
244.699	114.19
244.932	133.19
245.166	124.19
245.399	130.19
245.633	126.19
245.866	127.19
246.099	124.19
246.333	122.19
246.566	132.19
246.8	136.19
247.033	126.19
247.266	124.19
247.5	127.19
247.733	142.19
247.966	141.19
248.2	138.19
248.433	148.19
248.666	138.19
248.899	150.19
249.133	146.19
249.366	162.19
249.599	154.19
249.832	155.19
250.066	160.19
250.299	156.19
250.532	143.19
250.765	159.19
250.998	165.19
251.231	167.19
251.465	173.19
251.698	162.19
251.931	168.19
252.164	168.19
252.397	186.19
252.63	176.19
252.863	168.19
253.096	171.19
253.329	173.19
253.562	181.19
253.795	176.19
254.028	181.19
254.261	171.19
254.494	164.19
254.727	205.19
254.96	209.19
255.193	205.19
255.426	203.19
255.659	178.19
255.892	203.19
256.124	186.19
256.357	177.19
256.59	165.19
256.823	168.19
257.056	183.19
257.289	172.19
257.521	182.19
257.754	159.19
257.987	166.19
258.22	176.19
258.452	164.19
258.685	153.19
258.918	170.19
259.151	176.19
259.383	170.19
259.616	177.19
259.849	164.19
260.081	198.19
260.314	181.19
260.547	204.19
260.779	185.19
261.012	186.19
261.244	176.19
261.477	170.19
261.71	167.19
261.942	177.19
262.175	179.19
262.407	178.19
262.64	152.19
262.872	177.19
263.105	166.19
263.337	165.19
263.57	187.19
263.802	165.19
264.035	163.19
264.267	182.19
264.499	157.19
264.732	173.19
264.964	168.19
265.197	178.19
265.429	159.19
265.661	160.19
265.894	162.19
266.126	168.19
266.358	174.19
266.591	178.19
266.823	173.19
267.055	185.19
267.287	176.19
267.52	194.19
267.752	173.19
267.984	178.19
268.216	178.19
268.448	177.19
268.681	182.19
268.913	181.19
269.145	181.19
269.377	193.19
269.609	216.19
269.841	198.19
270.073	188.19
270.306	217.19
270.538	221.19
270.77	224.19
271.002	238.19
271.234	220.19
271.466	213.19
271.698	232.19
271.93	211.19
272.162	226.19
272.394	230.19
272.626	221.19
272.858	214.19
273.09	209.19
273.322	205.19
273.553	193.19
273.785	197.19
274.017	201.19
274.249	198.19
274.481	203.19
274.713	206.19
274.945	202.19
275.176	205.19
275.408	215.19
275.64	199.19
275.872	197.19
276.104	194.19
276.335	214.19
276.567	209.19
276.799	201.19
277.031	233.19
277.262	225.19
277.494	225.19
277.726	214.19
277.957	216.19
278.189	195.19
278.421	208.19
278.652	190.19
278.884	197.19
279.115	200.19
279.347	192.19
279.579	216.19
279.81	216.19
280.042	199.19
280.273	200.19
280.505	200.19
280.736	205.19
280.968	205.19
281.199	194.19
281.431	197.19
281.662	204.19
281.894	205.19
282.125	193.19
282.356	212.19
282.588	217.19
282.819	198.19
283.051	206.19
283.282	203.19
283.513	204.19
283.745	204.19
283.976	204.19
284.207	186.19
284.439	211.19
284.67	213.19
284.901	199.19
285.132	205.19
285.364	196.19
285.595	202.19
285.826	209.19
286.057	196.19
286.288	221.19
286.52	197.19
286.751	206.19
286.982	217.19
287.213	198.19
287.444	203.19
287.675	211.19
287.906	213.19
288.138	211.19
288.369	205.19
288.6	230.19
288.831	215.19
289.062	229.19
289.293	214.19
289.524	206.19
289.755	206.19
289.986	200.19
290.217	213.19
290.448	210.19
290.679	201.19
290.91	203.19
291.141	215.19
291.371	223.19
291.602	218.19
291.833	216.19
292.064	201.19
292.295	203.19
292.526	198.19
292.757	193.19
292.987	214.19
293.218	211.19
293.449	214.19
293.68	206.19
293.91	201.19
294.141	200.19
294.372	192.19
294.603	205.19
294.833	228.19
295.064	210.19
295.295	203.19
295.525	224.19
295.756	227.19
295.987	216.19
296.217	226.19
296.448	237.19
296.679	221.19
296.909	213.19
297.14	194.19
297.37	229.19
297.601	244.19
297.831	208.19
298.062	229.19
298.292	226.19
298.523	242.19
298.753	240.19
298.984	214.19
299.214	208.19
299.445	233.19
299.675	217.19
299.905	210.19
300.136	228.19
300.366	225.19
300.597	217.19
300.827	214.19
301.057	248.19
301.288	229.19
301.518	221.19
301.748	229.19
301.979	248.19
302.209	219.19
302.439	257.19
302.669	237.19
302.9	252.19
303.13	247.19
303.36	244.19
303.59	226.19
303.82	252.19
304.051	250.19
304.281	252.19
304.511	225.19
304.741	233.19
304.971	251.19
305.201	255.19
305.431	242.19
305.661	244.19
305.891	216.19
306.121	230.19
306.352	244.19
306.582	234.19
306.812	244.19
307.042	229.19
307.272	218.19
307.502	240.19
307.731	228.19
307.961	265.19
308.191	247.19
308.421	236.19
308.651	242.19
308.881	244.19
309.111	243.19
309.341	243.19
309.571	254.19
309.8	248.19
310.03	257.19
310.26	251.19
310.49	249.19
310.72	257.19
310.949	269.19
311.179	288.19
311.409	248.19
311.639	271.19
311.868	274.19
312.098	251.19
312.328	260.19
312.557	280.19
312.787	288.19
313.017	273.19
313.246	285.19
313.476	253.19
313.706	267.19
313.935	258.19
314.165	282.19
314.394	275.19
314.624	281.19
314.853	263.19
315.083	265.19
315.312	254.19
315.542	262.19
315.771	262.19
316.001	265.19
316.23	260.19
316.46	268.19
316.689	262.19
316.919	272.19
317.148	277.19
317.377	262.19
317.607	256.19
317.836	267.19
318.065	262.19
318.295	268.19
318.524	263.19
318.753	281.19
318.983	288.19
319.212	266.19
319.441	277.19
319.67	271.19
319.9	297.19
320.129	283.19
320.358	268.19
320.587	297.19
320.816	293.19
321.046	285.19
321.275	288.19
321.504	283.19
321.733	281.19
321.962	292.19
322.191	286.19
322.42	284.19
322.649	292.19
322.878	310.19
323.108	312.19
323.337	334.19
323.566	342.19
323.795	360.19
324.024	371.19
324.253	450.19
324.482	634.19
324.71	979.19
324.939	1427.19
325.168	1266.19
325.397	648.19
325.626	441.19
325.855	382.19
326.084	357.19
326.313	344.19
326.542	330.19
326.77	360.19
326.999	418.19
327.228	564.19
327.457	836.19
327.686	1073.19
327.914	714.19
328.143	471.19
328.372	414.19
328.6	390.19
328.829	393.19
329.058	376.19
329.287	390.19
329.515	357.19
329.744	334.19
329.972	335.19
330.201	352.19
330.43	373.19
330.658	386.19
330.887	393.19
331.115	384.19
331.344	338.19
331.572	337.19
331.801	317.19
332.03	338.19
332.258	330.19
332.486	321.19
332.715	305.19
332.943	308.19
333.172	299.19
333.4	304.19
333.629	312.19
333.857	300.19
334.085	348.19
334.314	317.19
334.542	352.19
334.771	338.19
334.999	329.19
335.227	308.19
335.455	319.19
335.684	313.19
335.912	317.19
336.14	294.19
336.369	295.19
336.597	314.19
336.825	321.19
337.053	285.19
337.281	301.19
337.51	311.19
337.738	298.19
337.966	296.19
338.194	297.19
338.422	316.19
338.65	297.19
338.878	296.19
339.106	288.19
339.334	323.19
339.562	294.19
339.79	292.19
340.018	292.19
340.246	296.19
340.474	305.19
340.702	310.19
340.93	295.19
341.158	288.19
341.386	282.19
341.614	294.19
341.842	307.19
342.07	282.19
342.298	292.19
342.526	263.19
342.754	286.19
342.981	282.19
343.209	295.19
343.437	301.19
343.665	309.19
343.893	322.19
344.12	300.19
344.348	320.19
344.576	306.19
344.804	300.19
345.031	291.19
345.259	316.19
345.487	306.19
345.714	298.19
345.942	301.19
346.17	301.19
346.397	293.19
346.625	297.19
346.853	304.19
347.08	283.19
347.308	309.19
347.535	306.19
347.763	302.19
347.99	282.19
348.218	302.19
348.445	299.19
348.673	313.19
348.9	274.19
349.128	281.19
349.355	276.19
349.583	277.19
349.81	277.19
350.037	294.19
350.265	292.19
350.492	277.19
350.72	281.19
350.947	288.19
351.174	295.19
351.402	294.19
351.629	298.19
351.856	289.19
352.083	296.19
352.311	307.19
352.538	300.19
352.765	324.19
352.992	293.19
353.22	297.19
353.447	263.19
353.674	289.19
353.901	299.19
354.128	304.19
354.355	293.19
354.583	297.19
354.81	280.19
355.037	276.19
355.264	277.19
355.491	270.19
355.718	260.19
355.945	267.19
356.172	286.19
356.399	278.19
356.626	269.19
356.853	288.19
357.08	271.19
357.307	276.19
357.534	284.19
357.761	285.19
357.988	279.19
358.215	282.19
358.441	276.19
358.668	280.19
358.895	289.19
359.122	276.19
359.349	283.19
359.576	291.19
359.802	290.19
360.029	332.19
360.256	327.19
360.483	292.19
360.709	289.19
360.936	295.19
361.163	297.19
361.39	295.19
361.616	292.19
361.843	298.19
362.07	299.19
362.296	297.19
362.523	280.19
362.749	284.19
362.976	293.19
363.203	302.19
363.429	274.19
363.656	273.19
363.882	288.19
364.109	284.19
364.335	284.19
364.562	272.19
364.788	282.19
365.015	275.19
365.241	279.19
365.468	290.19
365.694	285.19
365.92	291.19
366.147	264.19
366.373	291.19
366.599	281.19
366.826	269.19
367.052	288.19
367.278	283.19
367.505	291.19
367.731	284.19
367.957	269.19
368.184	276.19
368.41	313.19
368.636	304.19
368.862	291.19
369.089	288.19
369.315	285.19
369.541	285.19
369.767	285.19
369.993	280.19
370.219	286.19
370.445	266.19
370.672	273.19
370.898	291.19
371.124	280.19
371.35	274.19
371.576	279.19
371.802	266.19
372.028	283.19
372.254	289.19
372.48	281.19
372.706	286.19
372.932	286.19
373.158	293.19
373.384	294.19
373.61	280.19
373.835	290.19
374.061	287.19
374.287	272.19
374.513	285.19
374.739	277.19
374.965	292.19
375.191	273.19
375.416	283.19
375.642	274.19
375.868	299.19
376.094	306.19
376.319	299.19
376.545	281.19
376.771	301.19
376.997	278.19
377.222	268.19
377.448	287.19
377.674	276.19
377.899	303.19
378.125	301.19
378.35	296.19
378.576	277.19
378.802	270.19
379.027	311.19
379.253	305.19
379.478	291.19
379.704	295.19
379.929	278.19
380.155	286.19
380.38	267.19
380.606	297.19
380.831	290.19
381.057	281.19
381.282	271.19
381.507	308.19
381.733	280.19
381.958	289.19
382.184	279.19
382.409	282.19
382.634	288.19
382.86	276.19
383.085	292.19
383.31	305.19
383.535	292.19
383.761	304.19
383.986	286.19
384.211	289.19
384.436	294.19
384.662	300.19
384.887	291.19
385.112	289.19
385.337	307.19
385.562	304.19
385.787	306.19
386.013	306.19
386.238	309.19
386.463	308.19
386.688	317.19
386.913	301.19
387.138	299.19
387.363	295.19
387.588	296.19
387.813	298.19
388.038	309.19
388.263	295.19
388.488	323.19
388.713	317.19
388.938	314.19
389.163	313.19
389.387	295.19
389.612	299.19
389.837	304.19
390.062	288.19
390.287	296.19
390.512	308.19
390.736	295.19
390.961	300.19
391.186	305.19
391.411	319.19
391.636	295.19
391.86	307.19
392.085	326.19
392.31	307.19
392.534	306.19
392.759	315.19
392.984	310.19
393.208	332.19
393.433	375.19
393.658	380.19
393.882	339.19
394.107	327.19
394.331	315.19
394.556	298.19
394.78	312.19
395.005	312.19
395.229	307.19
395.454	315.19
395.678	316.19
395.903	331.19
396.127	341.19
396.352	349.19
396.576	338.19
396.801	336.19
397.025	350.19
397.249	308.19
397.474	336.19
397.698	320.19
397.922	338.19
398.147	356.19
398.371	337.19
398.595	320.19
398.82	346.19
399.044	340.19
399.268	341.19
399.492	355.19
399.717	378.19
399.941	402.19
400.165	407.19
400.389	421.19
400.613	378.19
400.837	373.19
401.062	345.19
401.286	344.19
401.51	360.19
401.734	348.19
401.958	344.19
402.182	338.19
402.406	337.19
402.63	343.19
402.854	348.19
403.078	353.19
403.302	344.19
403.526	358.19
403.75	369.19
403.974	356.19
404.198	364.19
404.422	341.19
404.645	376.19
404.869	368.19
405.093	365.19
405.317	403.19
405.541	444.19
405.765	393.19
405.988	362.19
406.212	388.19
406.436	398.19
406.66	403.19
406.883	386.19
407.107	378.19
407.331	399.19
407.555	459.19
407.778	453.19
408.002	430.19
408.226	396.19
408.449	403.19
408.673	389.19
408.896	412.19
409.12	436.19
409.344	418.19
409.567	380.19
409.791	370.19
410.014	372.19
410.238	352.19
410.461	354.19
410.685	349.19
410.908	371.19
411.132	392.19
411.355	416.19
411.578	395.19
411.802	357.19
412.025	371.19
412.249	384.19
412.472	373.19
412.695	398.19
412.919	398.19
413.142	364.19
413.365	358.19
413.589	361.19
413.812	338.19
414.035	338.19
414.258	348.19
414.482	343.19
414.705	343.19
414.928	332.19
415.151	346.19
415.374	355.19
415.597	336.19
415.821	330.19
416.044	332.19
416.267	309.19
416.49	312.19
416.713	322.19
416.936	314.19
417.159	329.19
417.382	354.19
417.605	338.19
417.828	352.19
418.051	365.19
418.274	337.19
418.497	332.19
418.72	331.19
418.943	330.19
419.166	342.19
419.389	363.19
419.611	372.19
419.834	368.19
420.057	351.19
420.28	331.19
420.503	333.19
420.726	344.19
420.948	369.19
421.171	375.19
421.394	417.19
421.617	362.19
421.839	352.19
422.062	352.19
422.285	361.19
422.507	387.19
422.73	443.19
422.953	440.19
423.175	386.19
423.398	374.19
423.621	368.19
423.843	361.19
424.066	384.19
424.288	370.19
424.511	366.19
424.733	415.19
424.956	473.19
425.178	470.19
425.401	463.19
425.623	485.19
425.846	405.19
426.068	394.19
426.291	386.19
426.513	369.19
426.735	384.19
426.958	414.19
427.18	468.19
427.402	568.19
427.625	630.19
427.847	542.19
428.069	491.19
428.292	404.19
428.514	365.19
428.736	373.19
428.958	333.19
429.181	347.19
429.403	345.19
429.625	354.19
429.847	391.19
430.069	440.19
430.292	441.19
430.514	376.19
430.736	349.19
430.958	341.19
431.18	342.19
431.402	354.19
431.624	319.19
431.846	334.19
432.068	328.19
432.29	325.19
432.512	313.19
432.734	326.19
432.956	354.19
433.178	348.19
433.4	337.19
433.622	324.19
433.844	355.19
434.066	342.19
434.287	314.19
434.509	337.19
434.731	352.19
434.953	362.19
435.175	362.19
435.397	356.19
435.618	386.19
435.84	414.19
436.062	495.19
436.284	530.19
436.505	453.19
436.727	393.19
436.949	388.19
437.17	363.19
437.392	352.19
437.614	351.19
437.835	373.19
438.057	448.19
438.278	517.19
438.5	520.19
438.721	564.19
438.943	552.19
439.165	451.19
439.386	386.19
439.608	401.19
439.829	371.19
440.05	393.19
440.272	422.19
440.493	412.19
440.715	378.19
440.936	355.19
441.158	370.19
441.379	356.19
441.6	356.19
441.822	391.19
442.043	419.19
442.264	465.19
442.486	520.19
442.707	421.19
442.928	398.19
443.149	401.19
443.371	393.19
443.592	417.19
443.813	499.19
444.034	548.19
444.255	444.19
444.476	391.19
444.698	404.19
444.919	385.19
445.14	468.19
445.361	427.19
445.582	399.19
445.803	454.19
446.024	524.19
446.245	540.19
446.466	494.19
446.687	416.19
446.908	374.19
447.129	361.19
447.35	373.19
447.571	352.19
447.792	365.19
448.013	357.19
448.234	375.19
448.455	394.19
448.675	469.19
448.896	595.19
449.117	499.19
449.338	455.19
449.559	538.19
449.779	618.19
450	490.19
450.221	427.19
450.442	370.19
450.662	371.19
450.883	340.19
451.104	344.19
451.324	380.19
451.545	352.19
451.766	325.19
451.986	327.19
452.207	315.19
452.428	328.19
452.648	314.19
452.869	328.19
453.089	335.19
453.31	322.19
453.53	321.19
453.751	314.19
453.971	326.19
454.192	347.19
454.412	319.19
454.633	330.19
454.853	310.19
455.073	313.19
455.294	357.19
455.514	393.19
455.734	382.19
455.955	319.19
456.175	315.19
456.395	321.19
456.616	306.19
456.836	301.19
457.056	294.19
457.276	315.19
457.497	307.19
457.717	297.19
457.937	294.19
458.157	305.19
458.377	311.19
458.598	346.19
458.818	368.19
459.038	408.19
459.258	412.19
459.478	347.19
459.698	328.19
459.918	322.19
460.138	333.19
460.358	328.19
460.578	346.19
460.798	344.19
461.018	332.19
461.238	324.19
461.458	330.19
461.678	343.19
461.898	344.19
462.118	324.19
462.338	359.19
462.558	332.19
462.777	366.19
462.997	345.19
463.217	359.19
463.437	354.19
463.657	366.19
463.876	371.19
464.096	377.19
464.316	364.19
464.536	365.19
464.755	350.19
464.975	380.19
465.195	373.19
465.414	419.19
465.634	364.19
465.854	365.19
466.073	352.19
466.293	320.19
466.512	334.19
466.732	345.19
466.951	335.19
467.171	320.19
467.391	340.19
467.61	339.19
467.829	353.19
468.049	326.19
468.268	347.19
468.488	310.19
468.707	313.19
468.927	329.19
469.146	317.19
469.365	340.19
469.585	338.19
469.804	331.19
470.023	333.19
470.243	327.19
470.462	332.19
470.681	337.19
470.901	325.19
471.12	339.19
471.339	336.19
471.558	346.19
471.777	313.19
471.997	319.19
472.216	328.19
472.435	348.19
472.654	335.19
472.873	325.19
473.092	338.19
473.311	326.19
473.53	349.19
473.749	335.19
473.968	362.19
474.187	446.19
474.406	460.19
474.625	390.19
474.844	334.19
475.063	341.19
475.282	328.19
475.501	324.19
475.72	360.19
475.939	330.19
476.158	360.19
476.377	351.19
476.596	332.19
476.814	337.19
477.033	335.19
477.252	377.19
477.471	344.19
477.69	366.19
477.908	357.19
478.127	383.19
478.346	362.19
478.564	376.19
478.783	342.19
479.002	358.19
479.22	371.19
479.439	368.19
479.658	394.19
479.876	402.19
480.095	385.19
480.313	416.19
480.532	410.19
480.751	412.19
480.969	429.19
481.188	417.19
481.406	460.19
481.624	432.19
481.843	384.19
482.061	394.19
482.28	384.19
482.498	390.19
482.717	385.19
482.935	392.19
483.153	376.19
483.372	392.19
483.59	394.19
483.808	390.19
484.027	377.19
484.245	392.19
484.463	384.19
484.681	386.19
484.9	396.19
485.118	394.19
485.336	386.19
485.554	399.19
485.772	404.19
485.99	397.19
486.209	416.19
486.427	402.19
486.645	410.19
486.863	416.19
487.081	408.19
487.299	417.19
487.517	410.19
487.735	396.19
487.953	411.19
488.171	435.19
488.389	419.19
488.607	420.19
488.825	401.19
489.043	420.19
489.261	412.19
489.479	451.19
489.696	420.19
489.914	420.19
490.132	410.19
490.35	410.19
490.568	427.19
490.786	444.19
491.003	444.19
491.221	462.19
491.439	469.19
491.657	468.19
491.874	452.19
492.092	460.19
492.31	479.19
492.527	464.19
492.745	461.19
492.963	485.19
493.18	475.19
493.398	482.19
493.615	489.19
493.833	480.19
494.05	468.19
494.268	489.19
494.485	472.19
494.703	459.19
494.92	469.19
495.138	472.19
495.355	491.19
495.573	505.19
495.79	493.19
496.008	500.19
496.225	479.19
496.442	485.19
496.66	485.19
496.877	483.19
497.094	508.19
497.312	487.19
497.529	512.19
497.746	507.19
497.963	530.19
498.181	530.19
498.398	538.19
498.615	521.19
498.832	547.19
499.049	549.19
499.267	566.19
499.484	572.19
499.701	584.19
499.918	602.19
500.135	626.19
500.352	640.19
500.569	633.19
500.786	644.19
501.003	620.19
501.22	624.19
501.437	624.19
501.654	595.19
501.871	586.19
502.088	571.19
502.305	570.19
502.522	545.19
502.739	556.19
502.956	526.19
503.172	525.19
503.389	507.19
503.606	522.19
503.823	506.19
504.04	515.19
504.256	502.19
504.473	513.19
504.69	502.19
504.907	499.19
505.123	478.19
505.34	496.19
505.557	477.19
505.773	481.19
505.99	455.19
506.207	481.19
506.423	485.19
506.64	467.19
506.856	452.19
507.073	452.19
507.289	451.19
507.506	453.19
507.722	474.19
507.939	489.19
508.155	444.19
508.372	459.19
508.588	456.19
508.805	477.19
509.021	445.19
509.238	469.19
509.454	444.19
509.67	437.19
509.887	438.19
510.103	448.19
510.319	458.19
510.536	486.19
510.752	780.19
510.968	620.19
511.184	463.19
511.401	440.19
511.617	432.19
511.833	438.19
512.049	426.19
512.265	432.19
512.481	438.19
512.698	433.19
512.914	461.19
513.13	428.19
513.346	422.19
513.562	416.19
513.778	413.19
513.994	430.19
514.21	444.19
514.426	427.19
514.642	458.19
514.858	483.19
515.074	502.19
515.29	563.19
515.506	796.19
515.721	680.19
515.937	513.19
516.153	457.19
516.369	440.19
516.585	442.19
516.801	420.19
517.016	425.19
517.232	439.19
517.448	445.19
517.664	455.19
517.879	415.19
518.095	434.19
518.311	432.19
518.527	432.19
518.742	423.19
518.958	417.19
519.173	420.19
519.389	423.19
519.605	426.19
519.82	441.19
520.036	448.19
520.251	420.19
520.467	445.19
520.682	444.19
520.898	447.19
521.113	479.19
521.329	493.19
521.544	522.19
521.76	648.19
521.975	974.19
522.19	1001.19
522.406	578.19
522.621	472.19
522.836	424.19
523.052	423.19
523.267	417.19
523.482	412.19
523.698	401.19
523.913	394.19
524.128	402.19
524.343	402.19
524.559	388.19
524.774	392.19
524.989	388.19
525.204	381.19
525.419	394.19
525.634	372.19
525.849	368.19
526.064	377.19
526.28	359.19
526.495	370.19
526.71	353.19
526.925	346.19
527.14	357.19
527.355	382.19
527.57	361.19
527.785	378.19
527.999	352.19
528.214	352.19
528.429	364.19
528.644	360.19
528.859	355.19
529.074	363.19
529.289	355.19
529.503	411.19
529.718	406.19
529.933	394.19
530.148	385.19
530.363	364.19
530.577	359.19
530.792	347.19
531.007	373.19
531.221	354.19
531.436	355.19
531.651	340.19
531.865	374.19
532.08	350.19
532.295	345.19
532.509	344.19
532.724	339.19
532.938	338.19
533.153	359.19
533.367	340.19
533.582	346.19
533.796	346.19
534.011	336.19
534.225	337.19
534.44	341.19
534.654	333.19
534.868	344.19
535.083	345.19
535.297	347.19
535.511	329.19
535.726	337.19
535.94	352.19
536.154	345.19
536.369	338.19
536.583	329.19
536.797	317.19
537.011	346.19
537.225	335.19
537.44	334.19
537.654	338.19
537.868	327.19
538.082	330.19
538.296	345.19
538.51	352.19
538.724	327.19
538.938	322.19
539.153	338.19
539.367	342.19
539.581	345.19
539.795	318.19
540.009	353.19
540.222	326.19
540.436	334.19
540.65	324.19
540.864	333.19
541.078	344.19
541.292	336.19
541.506	345.19
541.72	337.19
541.934	323.19
542.147	332.19
542.361	354.19
542.575	329.19
542.789	318.19
543.002	321.19
543.216	342.19
543.43	349.19
543.644	326.19
543.857	336.19
544.071	307.19
544.285	339.19
544.498	343.19
544.712	337.19
544.925	347.19
545.139	322.19
545.352	332.19
545.566	347.19
545.779	331.19
545.993	331.19
546.206	328.19
546.42	326.19
546.633	348.19
546.847	320.19
547.06	321.19
547.274	338.19
547.487	339.19
547.7	318.19
547.914	331.19
548.127	311.19
548.34	320.19
548.554	324.19
548.767	324.19
548.98	324.19
549.193	320.19
549.407	324.19
549.62	302.19
549.833	322.19
550.046	325.19
550.259	305.19
550.473	325.19
550.686	333.19
550.899	324.19
551.112	326.19
551.325	325.19
551.538	308.19
551.751	332.19
551.964	308.19
552.177	327.19
552.39	316.19
552.603	314.19
552.816	340.19
553.029	337.19
553.242	299.19
553.455	318.19
553.667	322.19
553.88	344.19
554.093	326.19
554.306	339.19
554.519	307.19
554.732	325.19
554.944	306.19
555.157	313.19
555.37	308.19
555.583	308.19
555.795	298.19
556.008	304.19
556.221	296.19
556.433	326.19
556.646	314.19
556.859	313.19
557.071	292.19
557.284	295.19
557.496	301.19
557.709	284.19
557.921	312.19
558.134	307.19
558.346	289.19
558.559	290.19
558.771	284.19
558.984	292.19
559.196	307.19
559.409	294.19
559.621	284.19
559.833	276.19
560.046	291.19
560.258	295.19
560.47	279.19
560.683	299.19
560.895	296.19
561.107	296.19
561.32	278.19
561.532	306.19
561.744	287.19
561.956	309.19
562.168	289.19
562.381	305.19
562.593	294.19
562.805	283.19
563.017	290.19
563.229	307.19
563.441	288.19
563.653	292.19
563.865	292.19
564.077	300.19
564.289	301.19
564.501	300.19
564.713	290.19
564.925	292.19
565.137	312.19
565.349	306.19
565.561	299.19
565.773	298.19
565.985	329.19
566.197	334.19
566.408	330.19
566.62	330.19
566.832	328.19
567.044	358.19
567.255	366.19
567.467	334.19
567.679	342.19
567.891	357.19
568.102	343.19
568.314	333.19
568.526	334.19
568.737	310.19
568.949	298.19
569.161	322.19
569.372	299.19
569.584	296.19
569.795	300.19
570.007	280.19
570.218	312.19
570.43	303.19
570.641	281.19
570.853	296.19
571.064	289.19
571.276	282.19
571.487	283.19
571.698	276.19
571.91	276.19
572.121	278.19
572.333	268.19
572.544	271.19
572.755	266.19
572.966	258.19
573.178	261.19
573.389	277.19
573.6	273.19
573.811	278.19
574.023	259.19
574.234	264.19
574.445	258.19
574.656	255.19
574.867	267.19
575.078	250.19
575.289	256.19
575.501	252.19
575.712	256.19
575.923	258.19
576.134	246.19
576.345	245.19
576.556	252.19
576.767	246.19
576.978	246.19
577.188	249.19
577.399	240.19
577.61	261.19
577.821	233.19
578.032	272.19
578.243	270.19
578.454	390.19
578.665	315.19
578.875	239.19
579.086	256.19
579.297	242.19
579.508	257.19
579.718	248.19
579.929	226.19
580.14	254.19
580.35	244.19
580.561	228.19
580.772	227.19
580.982	241.19
581.193	233.19
581.403	258.19
581.614	250.19
581.825	222.19
582.035	237.19
582.246	245.19
582.456	231.19
582.667	257.19
582.877	215.19
583.087	246.19
583.298	231.19
583.508	219.19
583.719	235.19
583.929	228.19
584.139	231.19
584.35	226.19
584.56	228.19
584.77	235.19
584.981	243.19
585.191	244.19
585.401	242.19
585.611	215.19
585.821	228.19
586.032	230.19
586.242	235.19
586.452	229.19
586.662	222.19
586.872	216.19
587.082	236.19
587.292	231.19
587.502	241.19
587.713	226.19
587.923	226.19
588.133	224.19
588.343	228.19
588.553	233.19
588.762	237.19
588.972	234.19
589.182	252.19
589.392	245.19
589.602	234.19
589.812	244.19
590.022	245.19
590.232	216.19
590.441	227.19
590.651	221.19
590.861	233.19
591.071	227.19
591.281	234.19
591.49	236.19
591.7	249.19
591.91	234.19
592.119	229.19
592.329	221.19
592.539	222.19
592.748	234.19
592.958	226.19
593.167	240.19
593.377	242.19
593.587	244.19
593.796	220.19
594.006	233.19
594.215	233.19
594.424	239.19
594.634	245.19
594.843	238.19
595.053	225.19
595.262	235.19
595.472	233.19
595.681	234.19
595.89	221.19
596.1	208.19
596.309	208.19
596.518	214.19
596.727	232.19
596.937	223.19
597.146	231.19
597.355	220.19
597.564	210.19
597.774	206.19
597.983	209.19
598.192	210.19
598.401	210.19
598.61	219.19
598.819	200.19
599.028	227.19
599.237	213.19
599.446	197.19
599.655	217.19
599.864	198.19
600.073	219.19
600.282	208.19
600.491	220.19
600.7	220.19
600.909	207.19
601.118	200.19
601.327	204.19
601.536	203.19
601.745	204.19
601.953	206.19
602.162	196.19
602.371	197.19
602.58	199.19
602.789	195.19
602.997	208.19
603.206	222.19
603.415	210.19
603.623	210.19
603.832	196.19
604.041	210.19
604.249	193.19
604.458	196.19
604.666	200.19
604.875	200.19
605.084	195.19
605.292	212.19
605.501	194.19
605.709	187.19
605.918	204.19
606.126	191.19
606.334	192.19
606.543	199.19
606.751	199.19
606.96	202.19
607.168	179.19
607.376	184.19
607.585	214.19
607.793	200.19
608.001	212.19
608.21	195.19
608.418	194.19
608.626	167.19
608.834	204.19
609.043	191.19
609.251	202.19
609.459	199.19
609.667	195.19
609.875	201.19
610.083	193.19
610.291	194.19
610.499	181.19
610.707	206.19
610.916	192.19
611.124	202.19
611.332	193.19
611.54	189.19
611.748	201.19
611.955	187.19
612.163	199.19
612.371	189.19
612.579	181.19
612.787	178.19
612.995	192.19
613.203	192.19
613.411	192.19
613.618	185.19
613.826	197.19
614.034	172.19
614.242	187.19
614.449	192.19
614.657	197.19
614.865	208.19
615.072	188.19
615.28	198.19
615.488	198.19
615.695	197.19
615.903	196.19
616.111	195.19
616.318	191.19
616.526	198.19
616.733	187.19
616.941	187.19
617.148	196.19
617.356	176.19
617.563	187.19
617.771	189.19
617.978	197.19
618.185	196.19
618.393	175.19
618.6	189.19
618.807	199.19
619.015	187.19
619.222	189.19
619.429	186.19
619.637	184.19
619.844	194.19
620.051	161.19
620.258	183.19
620.466	190.19
620.673	188.19
620.88	195.19
621.087	160.19
621.294	169.19
621.501	194.19
621.708	173.19
621.915	188.19
622.122	189.19
622.329	164.19
622.536	170.19
622.743	165.19
622.95	182.19
623.157	186.19
623.364	182.19
623.571	187.19
623.778	196.19
623.985	184.19
624.192	184.19
624.399	178.19
624.606	174.19
624.812	189.19
625.019	162.19
625.226	161.19
625.433	177.19
625.639	164.19
625.846	178.19
626.053	155.19
626.259	165.19
626.466	189.19
626.673	169.19
626.879	183.19
627.086	173.19
627.293	163.19
627.499	177.19
627.706	177.19
627.912	173.19
628.119	180.19
628.325	170.19
628.532	166.19
628.738	175.19
628.945	167.19
629.151	176.19
629.357	172.19
629.564	163.19
629.77	161.19
629.976	153.19
630.183	166.19
630.389	158.19
630.595	158.19
630.802	169.19
631.008	167.19
631.214	166.19
631.42	162.19
631.627	174.19
631.833	170.19
632.039	166.19
632.245	169.19
632.451	154.19
632.657	164.19
632.863	144.19
633.069	158.19
633.275	158.19
633.481	156.19
633.688	160.19
633.893	146.19
634.099	150.19
634.305	157.19
634.511	155.19
634.717	163.19
634.923	164.19
635.129	141.19
635.335	154.19
635.541	158.19
635.747	161.19
635.952	166.19
636.158	134.19
636.364	155.19
636.57	162.19
636.775	145.19
636.981	157.19
637.187	162.19
637.392	151.19
637.598	154.19
637.804	145.19
638.009	153.19
638.215	157.19
638.421	149.19
638.626	146.19
638.832	149.19
639.037	147.19
639.243	158.19
639.448	152.19
639.654	148.19
639.859	148.19
640.065	149.19
640.27	155.19
640.475	158.19
640.681	153.19
640.886	162.19
641.091	157.19
641.297	136.19
641.502	148.19
641.707	146.19
641.913	152.19
642.118	142.19
642.323	155.19
642.528	153.19
642.733	149.19
642.939	148.19
643.144	141.19
643.349	141.19
643.554	154.19
643.759	146.19
643.964	140.19
644.169	128.19
644.374	139.19
644.579	117.19
644.784	151.19
644.989	155.19
645.194	152.19
645.399	147.19
645.604	125.19
645.809	141.19
646.014	139.19
646.219	142.19
646.423	158.19
646.628	157.19
646.833	154.19
647.038	155.19
647.243	154.19
647.447	138.19
647.652	144.19
647.857	154.19
648.062	141.19
648.266	131.19
648.471	134.19
648.676	131.19
648.88	138.19
649.085	148.19
649.289	152.19
649.494	140.19
649.698	156.19
649.903	150.19
650.107	145.19
650.312	161.19
650.516	154.19
650.721	145.19
650.925	130.19
651.13	151.19
651.334	133.19
651.539	138.19
651.743	140.19
651.947	145.19
652.152	132.19
652.356	129.19
652.56	122.19
652.764	133.19
652.969	130.19
653.173	124.19
653.377	151.19
653.581	131.19
653.785	128.19
653.99	132.19
654.194	122.19
654.398	118.19
654.602	124.19
654.806	122.19
655.01	114.19
655.214	132.19
655.418	119.19
655.622	123.19
655.826	116.19
656.03	112.19
656.234	120.19
656.438	120.19
656.642	129.19
656.846	106.19
657.049	128.19
657.253	118.19
657.457	112.19
657.661	101.19
657.865	100.19
658.068	108.19
658.272	113.19
658.476	107.19
658.68	109.19
658.883	91.19
659.087	101.19
659.291	93.19
659.494	115.19
659.698	102.19
659.901	102.19
660.105	91.19
660.309	94.19
660.512	81.19
660.716	100.19
660.919	101.19
661.123	96.19
661.326	92.19
661.53	101.19
661.733	98.19
661.936	88.19
662.14	93.19
662.343	80.19
662.546	88.19
662.75	85.19
662.953	83.19
663.156	86.19
663.36	90.19
663.563	84.19
663.766	82.19
663.969	84.19
664.173	70.19
664.376	86.19
664.579	76.19
664.782	91.19
664.985	98.19
665.188	82.19
665.391	79.19
665.594	85.19
665.797	82.19
666	84.19
666.203	79.19
666.406	88.19
666.609	92.19
666.812	75.19
667.015	69.19
667.218	77.19
667.421	90.19
667.624	85.19
667.827	89.19
668.03	84.19
668.232	86.19
668.435	84.19
668.638	90.19
668.841	75.19
669.043	95.19
669.246	86.19
669.449	78.19
669.651	77.19
669.854	77.19
670.057	96.19
670.259	76.19
670.462	104.19
670.665	95.19
670.867	82.19
671.07	89.19
671.272	85.19
671.475	81.19
671.677	91.19
671.88	67.19
672.082	82.19
672.284	77.19
672.487	89.19
672.689	80.19
672.892	80.19
