Data from 1975.PennyLincolnUp.Lamp.En5.5.200Scan.071719.P1.Changed Mount._HRD10591_15-58-03-860.txt Node
Date: Thu Jul 18 15:58:03 EDT 2019
User: cochatt
Spectrometer: HR+D1059
Trigger mode: 1
Integration Time (sec): 1.000000E-1
Scans to average: 1
Electric dark correction enabled: true
Nonlinearity correction enabled: false
Boxcar width: 0
XAxis mode: Wavelengths
Number of Pixels in Spectrum: 2048
>>>>>Begin Spectral Data<<<<<
223.165	-11
223.4	-11
223.635	-11
223.869	-14
224.104	-26
224.338	-23
224.573	-14
224.808	-8
225.042	-4
225.277	-14
225.511	11
225.746	5
225.98	-9
226.215	1
226.449	17
226.683	26
226.918	31
227.152	32
227.387	41
227.621	36
227.856	44
228.09	28
228.324	60
228.559	47
228.793	64
229.027	96
229.262	116
229.496	111
229.73	118
229.964	152
230.199	119
230.433	114
230.667	119
230.901	118
231.136	109
231.37	114
231.604	101
231.838	117
232.072	115
232.306	106
232.541	108
232.775	94
233.009	121
233.243	114
233.477	103
233.711	110
233.945	109
234.179	112
234.413	115
234.647	122
234.881	122
235.115	124
235.349	132
235.583	126
235.817	135
236.051	141
236.285	127
236.519	121
236.753	124
236.987	139
237.221	178
237.455	239
237.689	194
237.922	132
238.156	119
238.39	124
238.624	115
238.858	115
239.091	120
239.325	134
239.559	116
239.793	127
240.027	145
240.26	142
240.494	159
240.728	152
240.961	152
241.195	140
241.429	158
241.662	153
241.896	145
242.13	136
242.363	135
242.597	132
242.83	157
243.064	126
243.298	162
243.531	142
243.765	154
243.998	139
244.232	145
244.465	144
244.699	136
244.932	147
245.166	166
245.399	152
245.633	147
245.866	154
246.099	164
246.333	152
246.566	152
246.8	157
247.033	162
247.266	157
247.5	160
247.733	175
247.966	191
248.2	168
248.433	174
248.666	169
248.899	181
249.133	191
249.366	206
249.599	204
249.832	194
250.066	183
250.299	170
250.532	191
250.765	218
250.998	214
251.231	211
251.465	223
251.698	214
251.931	203
252.164	221
252.397	190
252.63	200
252.863	205
253.096	212
253.329	238
253.562	227
253.795	223
254.028	237
254.261	219
254.494	218
254.727	247
254.96	272
255.193	274
255.426	254
255.659	235
255.892	248
256.124	233
256.357	242
256.59	246
256.823	240
257.056	226
257.289	231
257.521	222
257.754	217
257.987	216
258.22	215
258.452	222
258.685	203
258.918	218
259.151	210
259.383	209
259.616	209
259.849	227
260.081	254
260.314	245
260.547	264
260.779	260
261.012	238
261.244	237
261.477	235
261.71	222
261.942	219
262.175	230
262.407	230
262.64	227
262.872	232
263.105	213
263.337	222
263.57	226
263.802	237
264.035	228
264.267	211
264.499	205
264.732	231
264.964	208
265.197	214
265.429	207
265.661	212
265.894	210
266.126	221
266.358	221
266.591	215
266.823	227
267.055	239
267.287	228
267.52	234
267.752	241
267.984	244
268.216	236
268.448	248
268.681	239
268.913	254
269.145	258
269.377	287
269.609	286
269.841	273
270.073	285
270.306	312
270.538	303
270.77	322
271.002	314
271.234	299
271.466	298
271.698	296
271.93	331
272.162	339
272.394	329
272.626	291
272.858	285
273.09	286
273.322	278
273.553	281
273.785	258
274.017	263
274.249	279
274.481	267
274.713	289
274.945	294
275.176	276
275.408	279
275.64	276
275.872	271
276.104	286
276.335	285
276.567	260
276.799	288
277.031	321
277.262	326
277.494	339
277.726	298
277.957	291
278.189	289
278.421	292
278.652	287
278.884	297
279.115	276
279.347	292
279.579	301
279.81	288
280.042	276
280.273	279
280.505	266
280.736	292
280.968	293
281.199	283
281.431	277
281.662	290
281.894	278
282.125	271
282.356	310
282.588	303
282.819	316
283.051	293
283.282	285
283.513	282
283.745	293
283.976	302
284.207	311
284.439	308
284.67	297
284.901	294
285.132	282
285.364	295
285.595	301
285.826	310
286.057	314
286.288	298
286.52	307
286.751	290
286.982	304
287.213	307
287.444	300
287.675	293
287.906	316
288.138	311
288.369	336
288.6	311
288.831	332
289.062	311
289.293	306
289.524	317
289.755	290
289.986	308
290.217	308
290.448	315
290.679	322
290.91	325
291.141	310
291.371	306
291.602	308
291.833	310
292.064	299
292.295	296
292.526	307
292.757	315
292.987	313
293.218	324
293.449	309
293.68	319
293.91	298
294.141	295
294.372	308
294.603	300
294.833	301
295.064	312
295.295	313
295.525	309
295.756	313
295.987	326
296.217	321
296.448	336
296.679	320
296.909	320
297.14	323
297.37	302
297.601	329
297.831	310
298.062	326
298.292	307
298.523	327
298.753	322
298.984	314
299.214	332
299.445	317
299.675	318
299.905	356
300.136	342
300.366	326
300.597	338
300.827	341
301.057	346
301.288	345
301.518	329
301.748	329
301.979	363
302.209	365
302.439	352
302.669	361
302.9	350
303.13	318
303.36	359
303.59	348
303.82	343
304.051	350
304.281	352
304.511	345
304.741	343
304.971	342
305.201	326
305.431	335
305.661	340
305.891	351
306.121	328
306.352	338
306.582	357
306.812	353
307.042	358
307.272	370
307.502	350
307.731	343
307.961	354
308.191	337
308.421	368
308.651	348
308.881	358
309.111	365
309.341	355
309.571	387
309.8	368
310.03	376
310.26	384
310.49	380
310.72	399
310.949	399
311.179	403
311.409	388
311.639	385
311.868	379
312.098	390
312.328	387
312.557	399
312.787	392
313.017	411
313.246	382
313.476	390
313.706	395
313.935	398
314.165	403
314.394	410
314.624	430
314.853	410
315.083	393
315.312	390
315.542	376
315.771	379
316.001	398
316.23	378
316.46	392
316.689	392
316.919	379
317.148	405
317.377	406
317.607	393
317.836	385
318.065	391
318.295	399
318.524	380
318.753	387
318.983	386
319.212	379
319.441	393
319.67	396
319.9	419
320.129	403
320.358	406
320.587	382
320.816	396
321.046	413
321.275	421
321.504	403
321.733	400
321.962	395
322.191	441
322.42	438
322.649	447
322.878	435
323.108	445
323.337	464
323.566	476
323.795	510
324.024	563
324.253	622
324.482	836
324.71	1284
324.939	1897
325.168	1704
325.397	848
325.626	602
325.855	520
326.084	491
326.313	490
326.542	490
326.77	525
326.999	587
327.228	788
327.457	1159
327.686	1460
327.914	986
328.143	669
328.372	578
328.6	545
328.829	525
329.058	535
329.287	556
329.515	542
329.744	499
329.972	502
330.201	531
330.43	563
330.658	564
330.887	583
331.115	572
331.344	515
331.572	489
331.801	506
332.03	525
332.258	488
332.486	456
332.715	467
332.943	471
333.172	495
333.4	484
333.629	506
333.857	522
334.085	533
334.314	548
334.542	580
334.771	588
334.999	526
335.227	502
335.455	485
335.684	460
335.912	466
336.14	460
336.369	476
336.597	461
336.825	491
337.053	456
337.281	454
337.51	467
337.738	438
337.966	458
338.194	456
338.422	472
338.65	464
338.878	460
339.106	466
339.334	464
339.562	444
339.79	451
340.018	451
340.246	462
340.474	444
340.702	455
340.93	448
341.158	434
341.386	450
341.614	432
341.842	435
342.07	445
342.298	450
342.526	443
342.754	423
342.981	440
343.209	443
343.437	452
343.665	457
343.893	474
344.12	485
344.348	462
344.576	467
344.804	479
345.031	460
345.259	451
345.487	454
345.714	446
345.942	424
346.17	440
346.397	423
346.625	426
346.853	442
347.08	431
347.308	425
347.535	439
347.763	430
347.99	436
348.218	437
348.445	455
348.673	440
348.9	451
349.128	416
349.355	416
349.583	429
349.81	423
350.037	425
350.265	426
350.492	429
350.72	435
350.947	423
351.174	431
351.402	408
351.629	425
351.856	421
352.083	444
352.311	459
352.538	441
352.765	445
352.992	439
353.22	432
353.447	442
353.674	438
353.901	423
354.128	411
354.355	397
354.583	422
354.81	420
355.037	400
355.264	404
355.491	408
355.718	399
355.945	415
356.172	422
356.399	402
356.626	406
356.853	413
357.08	427
357.307	390
357.534	415
357.761	399
357.988	428
358.215	408
358.441	420
358.668	416
358.895	402
359.122	436
359.349	422
359.576	446
359.802	444
360.029	460
360.256	482
360.483	460
360.709	439
360.936	419
361.163	431
361.39	434
361.616	434
361.843	447
362.07	406
362.296	439
362.523	436
362.749	431
362.976	418
363.203	435
363.429	410
363.656	444
363.882	408
364.109	445
364.335	431
364.562	414
364.788	431
365.015	408
365.241	436
365.468	408
365.694	418
365.92	410
366.147	416
366.373	419
366.599	417
366.826	435
367.052	395
367.278	422
367.505	417
367.731	429
367.957	425
368.184	435
368.41	402
368.636	429
368.862	430
369.089	429
369.315	424
369.541	438
369.767	414
369.993	439
370.219	423
370.445	410
370.672	412
370.898	439
371.124	430
371.35	414
371.576	436
371.802	440
372.028	439
372.254	423
372.48	424
372.706	416
372.932	439
373.158	438
373.384	443
373.61	435
373.835	430
374.061	442
374.287	436
374.513	437
374.739	444
374.965	425
375.191	451
375.416	434
375.642	427
375.868	416
376.094	442
376.319	429
376.545	416
376.771	456
376.997	418
377.222	441
377.448	431
377.674	420
377.899	435
378.125	427
378.35	418
378.576	434
378.802	429
379.027	441
379.253	413
379.478	426
379.704	436
379.929	427
380.155	430
380.38	419
380.606	431
380.831	423
381.057	438
381.282	434
381.507	450
381.733	458
381.958	447
382.184	428
382.409	466
382.634	438
382.86	443
383.085	451
383.31	462
383.535	463
383.761	489
383.986	458
384.211	445
384.436	475
384.662	464
384.887	490
385.112	460
385.337	468
385.562	477
385.787	480
386.013	477
386.238	496
386.463	481
386.688	484
386.913	483
387.138	477
387.363	492
387.588	477
387.813	472
388.038	486
388.263	487
388.488	480
388.713	469
388.938	470
389.163	501
389.387	498
389.612	454
389.837	479
390.062	490
390.287	493
390.512	478
390.736	473
390.961	488
391.186	506
391.411	486
391.636	478
391.86	480
392.085	515
392.31	512
392.534	519
392.759	529
392.984	497
393.208	472
393.433	484
393.658	486
393.882	478
394.107	469
394.331	477
394.556	497
394.78	494
395.005	485
395.229	502
395.454	508
395.678	484
395.903	518
396.127	548
396.352	532
396.576	515
396.801	516
397.025	489
397.249	515
397.474	535
397.698	514
397.922	540
398.147	538
398.371	564
398.595	555
398.82	551
399.044	584
399.268	614
399.492	646
399.717	679
399.941	724
400.165	733
400.389	693
400.613	642
400.837	603
401.062	601
401.286	582
401.51	558
401.734	562
401.958	564
402.182	568
402.406	587
402.63	575
402.854	585
403.078	592
403.302	569
403.526	579
403.75	593
403.974	579
404.198	588
404.422	601
404.645	604
404.869	606
405.093	618
405.317	676
405.541	716
405.765	635
405.988	644
406.212	627
406.436	635
406.66	647
406.883	645
407.107	654
407.331	688
407.555	769
407.778	776
408.002	682
408.226	653
408.449	631
408.673	643
408.896	677
409.12	702
409.344	665
409.567	608
409.791	591
410.014	606
410.238	584
410.461	582
410.685	574
410.908	593
411.132	620
411.355	666
411.578	632
411.802	600
412.025	589
412.249	611
412.472	614
412.695	638
412.919	656
413.142	594
413.365	586
413.589	580
413.812	568
414.035	553
414.258	556
414.482	564
414.705	560
414.928	556
415.151	569
415.374	538
415.597	547
415.821	560
416.044	555
416.267	554
416.49	572
416.713	549
416.936	550
417.159	533
417.382	535
417.605	545
417.828	565
418.051	574
418.274	563
418.497	555
418.72	570
418.943	536
419.166	568
419.389	610
419.611	600
419.834	597
420.057	592
420.28	616
420.503	555
420.726	588
420.948	609
421.171	627
421.394	660
421.617	606
421.839	576
422.062	565
422.285	586
422.507	634
422.73	754
422.953	691
423.175	620
423.398	590
423.621	630
423.843	632
424.066	636
424.288	629
424.511	634
424.733	682
424.956	757
425.178	720
425.401	722
425.623	772
425.846	651
426.068	632
426.291	598
426.513	604
426.735	638
426.958	658
427.18	714
427.402	851
427.625	961
427.847	850
428.069	726
428.292	632
428.514	600
428.736	553
428.958	575
429.181	562
429.403	548
429.625	553
429.847	589
430.069	672
430.292	668
430.514	567
430.736	572
430.958	555
431.18	548
431.402	560
431.624	541
431.846	542
432.068	548
432.29	531
432.512	542
432.734	551
432.956	541
433.178	550
433.4	548
433.622	554
433.844	543
434.066	534
434.287	524
434.509	537
434.731	573
434.953	580
435.175	578
435.397	603
435.618	604
435.84	629
436.062	736
436.284	818
436.505	683
436.727	608
436.949	582
437.17	568
437.392	556
437.614	570
437.835	600
438.057	694
438.278	807
438.5	822
438.721	875
438.943	860
439.165	688
439.386	614
439.608	603
439.829	580
440.05	626
440.272	667
440.493	631
440.715	632
440.936	584
441.158	568
441.379	570
441.6	567
441.822	613
442.043	638
442.264	716
442.486	793
442.707	670
442.928	618
443.149	637
443.371	651
443.592	684
443.813	794
444.034	856
444.255	705
444.476	678
444.698	654
444.919	630
445.14	746
445.361	682
445.582	652
445.803	713
446.024	825
446.245	830
446.466	741
446.687	670
446.908	610
447.129	570
447.35	556
447.571	559
447.792	548
448.013	565
448.234	570
448.455	618
448.675	707
448.896	853
449.117	712
449.338	662
449.559	790
449.779	910
450	730
450.221	623
450.442	550
450.662	534
450.883	536
451.104	548
451.324	535
451.545	525
451.766	502
451.986	489
452.207	500
452.428	474
452.648	494
452.869	503
453.089	468
453.31	527
453.53	511
453.751	498
453.971	496
454.192	514
454.412	497
454.633	498
454.853	515
455.073	475
455.294	511
455.514	598
455.734	559
455.955	500
456.175	471
456.395	477
456.616	466
456.836	454
457.056	470
457.276	461
457.497	475
457.717	477
457.937	494
458.157	485
458.377	491
458.598	511
458.818	548
459.038	616
459.258	648
459.478	556
459.698	532
459.918	547
460.138	540
460.358	553
460.578	565
460.798	547
461.018	587
461.238	556
461.458	553
461.678	537
461.898	563
462.118	536
462.338	578
462.558	578
462.777	603
462.997	597
463.217	642
463.437	631
463.657	615
463.876	594
464.096	590
464.316	596
464.536	588
464.755	611
464.975	580
465.195	608
465.414	678
465.634	596
465.854	559
466.073	548
466.293	532
466.512	501
466.732	531
466.951	524
467.171	507
467.391	521
467.61	523
467.829	533
468.049	532
468.268	500
468.488	512
468.707	489
468.927	500
469.146	487
469.365	491
469.585	499
469.804	514
470.023	533
470.243	524
470.462	525
470.681	540
470.901	538
471.12	519
471.339	551
471.558	515
471.777	536
471.997	525
472.216	512
472.435	547
472.654	537
472.873	525
473.092	491
473.311	516
473.53	510
473.749	542
473.968	590
474.187	660
474.406	674
474.625	572
474.844	552
475.063	518
475.282	521
475.501	507
475.72	521
475.939	533
476.158	533
476.377	550
476.596	513
476.814	522
477.033	551
477.252	550
477.471	550
477.69	562
477.908	553
478.127	596
478.346	577
478.564	590
478.783	596
479.002	583
479.22	598
479.439	601
479.658	614
479.876	612
480.095	654
480.313	670
480.532	668
480.751	661
480.969	651
481.188	716
481.406	724
481.624	664
481.843	635
482.061	616
482.28	592
482.498	614
482.717	611
482.935	585
483.153	627
483.372	602
483.59	608
483.808	628
484.027	610
484.245	605
484.463	614
484.681	640
484.9	656
485.118	639
485.336	626
485.554	647
485.772	637
485.99	624
486.209	624
486.427	623
486.645	653
486.863	669
487.081	638
487.299	654
487.517	645
487.735	623
487.953	627
488.171	644
488.389	649
488.607	648
488.825	640
489.043	654
489.261	647
489.479	643
489.696	667
489.914	671
490.132	692
490.35	685
490.568	694
490.786	710
491.003	699
491.221	716
491.439	725
491.657	735
491.874	731
492.092	754
492.31	763
492.527	760
492.745	758
492.963	769
493.18	783
493.398	775
493.615	748
493.833	774
494.05	766
494.268	794
494.485	756
494.703	751
494.92	778
495.138	750
495.355	788
495.573	743
495.79	770
496.008	798
496.225	781
496.442	763
496.66	774
496.877	759
497.094	806
497.312	799
497.529	804
497.746	806
497.963	810
498.181	832
498.398	855
498.615	845
498.832	908
499.049	923
499.267	939
499.484	982
499.701	1053
499.918	1086
500.135	1146
500.352	1198
500.569	1223
500.786	1254
501.003	1208
501.22	1159
501.437	1093
501.654	1058
501.871	1019
502.088	1001
502.305	938
502.522	936
502.739	870
502.956	874
503.172	824
503.389	822
503.606	822
503.823	834
504.04	807
504.256	782
504.473	765
504.69	774
504.907	776
505.123	752
505.34	765
505.557	755
505.773	734
505.99	730
506.207	735
506.423	724
506.64	721
506.856	695
507.073	722
507.289	700
507.506	703
507.722	714
507.939	723
508.155	698
508.372	670
508.588	679
508.805	699
509.021	668
509.238	687
509.454	678
509.67	695
509.887	685
510.103	677
510.319	672
510.536	728
510.752	1064
510.968	933
511.184	676
511.401	671
511.617	645
511.833	669
512.049	646
512.265	667
512.481	639
512.698	634
512.914	656
513.13	622
513.346	636
513.562	635
513.778	639
513.994	647
514.21	645
514.426	652
514.642	682
514.858	707
515.074	735
515.29	805
515.506	1069
515.721	970
515.937	719
516.153	696
516.369	684
516.585	638
516.801	672
517.016	680
517.232	660
517.448	692
517.664	702
517.879	692
518.095	716
518.311	672
518.527	688
518.742	679
518.958	658
519.173	646
519.389	652
519.605	660
519.82	652
520.036	655
520.251	656
520.467	668
520.682	668
520.898	649
521.113	677
521.329	693
521.544	738
521.76	904
521.975	1301
522.19	1321
522.406	825
522.621	675
522.836	634
523.052	614
523.267	604
523.482	556
523.698	571
523.913	606
524.128	596
524.343	565
524.559	544
524.774	556
524.989	559
525.204	574
525.419	559
525.634	555
525.849	556
526.064	559
526.28	550
526.495	562
526.71	536
526.925	510
527.14	544
527.355	565
527.57	532
527.785	508
527.999	517
528.214	534
528.429	525
528.644	541
528.859	510
529.074	532
529.289	551
529.503	610
529.718	595
529.933	555
530.148	527
530.363	523
530.577	506
530.792	522
531.007	540
531.221	521
531.436	518
531.651	521
531.865	497
532.08	524
532.295	516
532.509	511
532.724	507
532.938	527
533.153	526
533.367	514
533.582	525
533.796	502
534.011	505
534.225	520
534.44	507
534.654	539
534.868	503
535.083	502
535.297	514
535.511	515
535.726	506
535.94	521
536.154	511
536.369	528
536.583	496
536.797	495
537.011	486
537.225	504
537.44	478
537.654	477
537.868	470
538.082	491
538.296	482
538.51	486
538.724	507
538.938	495
539.153	490
539.367	522
539.581	504
539.795	487
540.009	492
540.222	502
540.436	501
540.65	492
540.864	518
541.078	514
541.292	514
541.506	507
541.72	459
541.934	502
542.147	502
542.361	488
542.575	468
542.789	499
543.002	470
543.216	491
543.43	479
543.644	479
543.857	488
544.071	514
544.285	486
544.498	492
544.712	485
544.925	470
545.139	487
545.352	488
545.566	472
545.779	491
545.993	496
546.206	475
546.42	473
546.633	480
546.847	470
547.06	471
547.274	471
547.487	490
547.7	475
547.914	474
548.127	502
548.34	480
548.554	477
548.767	500
548.98	476
549.193	473
549.407	475
549.62	476
549.833	478
550.046	460
550.259	468
550.473	478
550.686	498
550.899	470
551.112	454
551.325	463
551.538	474
551.751	485
551.964	478
552.177	473
552.39	471
552.603	465
552.816	475
553.029	472
553.242	492
553.455	499
553.667	506
553.88	496
554.093	502
554.306	525
554.519	492
554.732	486
554.944	479
555.157	459
555.37	473
555.583	452
555.795	454
556.008	466
556.221	453
556.433	450
556.646	422
556.859	431
557.071	434
557.284	448
557.496	417
557.709	438
557.921	423
558.134	439
558.346	439
558.559	419
558.771	442
558.984	415
559.196	422
559.409	418
559.621	407
559.833	422
560.046	408
560.258	396
560.47	406
560.683	423
560.895	436
561.107	410
561.32	416
561.532	417
561.744	412
561.956	424
562.168	417
562.381	424
562.593	427
562.805	426
563.017	427
563.229	443
563.441	434
563.653	442
563.865	425
564.077	434
564.289	430
564.501	428
564.713	458
564.925	443
565.137	480
565.349	483
565.561	491
565.773	485
565.985	487
566.197	491
566.408	510
566.62	530
566.832	537
567.044	588
567.255	558
567.467	552
567.679	573
567.891	579
568.102	585
568.314	566
568.526	541
568.737	521
568.949	506
569.161	477
569.372	475
569.584	473
569.795	445
570.007	440
570.218	466
570.43	448
570.641	434
570.853	412
571.064	424
571.276	414
571.487	421
571.698	435
571.91	394
572.121	387
572.333	404
572.544	402
572.755	403
572.966	384
573.178	371
573.389	389
573.6	381
573.811	390
574.023	375
574.234	386
574.445	380
574.656	351
574.867	368
575.078	355
575.289	370
575.501	340
575.712	358
575.923	352
576.134	359
576.345	359
576.556	371
576.767	356
576.978	349
577.188	350
577.399	335
577.61	338
577.821	334
578.032	362
578.243	380
578.454	524
578.665	418
578.875	366
579.086	340
579.297	354
579.508	348
579.718	339
579.929	336
580.14	324
580.35	340
580.561	336
580.772	322
580.982	326
581.193	322
581.403	334
581.614	354
581.825	327
582.035	323
582.246	337
582.456	331
582.667	324
582.877	324
583.087	318
583.298	311
583.508	339
583.719	331
583.929	332
584.139	329
584.35	321
584.56	322
584.77	316
584.981	324
585.191	327
585.401	308
585.611	333
585.821	326
586.032	317
586.242	332
586.452	326
586.662	322
586.872	323
587.082	311
587.292	295
587.502	303
587.713	309
587.923	307
588.133	296
588.343	306
588.553	330
588.762	318
588.972	303
589.182	307
589.392	320
589.602	306
589.812	310
590.022	301
590.232	319
590.441	314
590.651	316
590.861	313
591.071	323
591.281	330
591.49	324
591.7	341
591.91	322
592.119	327
592.329	339
592.539	332
592.748	347
592.958	355
593.167	346
593.377	350
593.587	363
593.796	363
594.006	354
594.215	356
594.424	346
594.634	348
594.843	348
595.053	317
595.262	355
595.472	344
595.681	311
595.89	327
596.1	321
596.309	317
596.518	308
596.727	319
596.937	308
597.146	297
597.355	275
597.564	268
597.774	296
597.983	287
598.192	300
598.401	295
598.61	283
598.819	298
599.028	291
599.237	295
599.446	282
599.655	278
599.864	284
600.073	290
600.282	285
600.491	294
600.7	268
600.909	284
601.118	293
601.327	301
601.536	278
601.745	296
601.953	287
602.162	274
602.371	258
602.58	264
602.789	268
602.997	264
603.206	281
603.415	278
603.623	269
603.832	280
604.041	262
604.249	265
604.458	283
604.666	264
604.875	270
605.084	261
605.292	269
605.501	266
605.709	269
605.918	268
606.126	260
606.334	263
606.543	250
606.751	275
606.96	255
607.168	245
607.376	271
607.585	278
607.793	260
608.001	262
608.21	262
608.418	265
608.626	264
608.834	273
609.043	246
609.251	260
609.459	246
609.667	255
609.875	260
610.083	274
610.291	251
610.499	267
610.707	256
610.916	270
611.124	264
611.332	263
611.54	259
611.748	252
611.955	263
612.163	251
612.371	255
612.579	243
612.787	246
612.995	246
613.203	275
613.411	277
613.618	250
613.826	247
614.034	254
614.242	258
614.449	263
614.657	244
614.865	260
615.072	267
615.28	252
615.488	254
615.695	256
615.903	271
616.111	265
616.318	261
616.526	254
616.733	260
616.941	256
617.148	246
617.356	275
617.563	235
617.771	248
617.978	254
618.185	250
618.393	256
618.6	258
618.807	244
619.015	259
619.222	267
619.429	232
619.637	242
619.844	238
620.051	265
620.258	245
620.466	241
620.673	238
620.88	234
621.087	236
621.294	237
621.501	254
621.708	240
621.915	247
622.122	229
622.329	240
622.536	237
622.743	232
622.95	231
623.157	239
623.364	245
623.571	245
623.778	222
623.985	249
624.192	233
624.399	233
624.606	233
624.812	234
625.019	226
625.226	231
625.433	232
625.639	210
625.846	232
626.053	223
626.259	204
626.466	224
626.673	222
626.879	228
627.086	227
627.293	219
627.499	208
627.706	212
627.912	230
628.119	210
628.325	209
628.532	197
628.738	220
628.945	231
629.151	223
629.357	207
629.564	214
629.77	214
629.976	195
630.183	190
630.389	205
630.595	205
630.802	195
631.008	204
631.214	210
631.42	216
631.627	222
631.833	215
632.039	190
632.245	191
632.451	200
632.657	202
632.863	203
633.069	220
633.275	194
633.481	195
633.688	194
633.893	202
634.099	209
634.305	198
634.511	197
634.717	208
634.923	175
635.129	188
635.335	200
635.541	184
635.747	189
635.952	199
636.158	197
636.364	212
636.57	195
636.775	179
636.981	183
637.187	200
637.392	195
637.598	190
637.804	191
638.009	198
638.215	196
638.421	178
638.626	184
638.832	210
639.037	175
639.243	185
639.448	184
639.654	183
639.859	188
640.065	188
640.27	193
640.475	172
640.681	180
640.886	204
641.091	212
641.297	194
641.502	172
641.707	191
641.913	174
642.118	172
642.323	175
642.528	185
642.733	175
642.939	177
643.144	174
643.349	170
643.554	174
643.759	185
643.964	178
644.169	167
644.374	189
644.579	180
644.784	175
644.989	188
645.194	172
645.399	179
645.604	192
645.809	190
646.014	172
646.219	166
646.423	180
646.628	159
646.833	182
647.038	189
647.243	183
647.447	187
647.652	183
647.857	174
648.062	190
648.266	195
648.471	194
648.676	188
648.88	170
649.085	188
649.289	176
649.494	175
649.698	197
649.903	197
650.107	178
650.312	168
650.516	174
650.721	171
650.925	151
651.13	175
651.334	167
651.539	159
651.743	158
651.947	150
652.152	152
652.356	148
652.56	149
652.764	160
652.969	150
653.173	147
653.377	144
653.581	150
653.785	138
653.99	151
654.194	167
654.398	146
654.602	145
654.806	151
655.01	136
655.214	141
655.418	160
655.622	148
655.826	150
656.03	137
656.234	134
656.438	158
656.642	156
656.846	151
657.049	158
657.253	134
657.457	126
657.661	115
657.865	125
658.068	119
658.272	104
658.476	127
658.68	108
658.883	111
659.087	106
659.291	101
659.494	111
659.698	116
659.901	110
660.105	84
660.309	101
660.512	95
660.716	95
660.919	97
661.123	107
661.326	101
661.53	101
661.733	95
661.936	95
662.14	98
662.343	87
662.546	91
662.75	99
662.953	95
663.156	85
663.36	78
663.563	86
663.766	102
663.969	87
664.173	71
664.376	80
664.579	78
664.782	67
664.985	90
665.188	70
665.391	83
665.594	86
665.797	86
666	76
666.203	82
666.406	86
666.609	79
666.812	83
667.015	79
667.218	69
667.421	90
667.624	77
667.827	83
668.03	76
668.232	78
668.435	76
668.638	76
668.841	83
669.043	71
669.246	87
669.449	79
669.651	82
669.854	91
670.057	78
670.259	84
670.462	71
670.665	87
670.867	86
671.07	67
671.272	86
671.475	95
671.677	75
671.88	79
672.082	76
672.284	89
672.487	83
672.689	87
672.892	95
