Data from 1977.PennyLincolnUp.Lamp.En5.5.200Scan.071719.P1_HRD10591_16-05-33-866.txt Node
Date: Thu Jul 18 16:05:33 EDT 2019
User: cochatt
Spectrometer: HR+D1059
Trigger mode: 1
Integration Time (sec): 1.000000E-1
Scans to average: 1
Electric dark correction enabled: true
Nonlinearity correction enabled: false
Boxcar width: 0
XAxis mode: Wavelengths
Number of Pixels in Spectrum: 2048
>>>>>Begin Spectral Data<<<<<
223.165	-10.81
223.4	-10.81
223.635	-10.81
223.869	-22.81
224.104	-21.81
224.338	-8.81
224.573	-20.81
224.808	-12.81
225.042	1.19
225.277	-4.81
225.511	1.19
225.746	3.19
225.98	1.19
226.215	10.19
226.449	23.19
226.683	19.19
226.918	25.19
227.152	18.19
227.387	42.19
227.621	46.19
227.856	38.19
228.09	42.19
228.324	45.19
228.559	54.19
228.793	65.19
229.027	79.19
229.262	96.19
229.496	91.19
229.73	114.19
229.964	125.19
230.199	124.19
230.433	113.19
230.667	104.19
230.901	99.19
231.136	107.19
231.37	95.19
231.604	113.19
231.838	100.19
232.072	108.19
232.306	106.19
232.541	126.19
232.775	109.19
233.009	115.19
233.243	120.19
233.477	100.19
233.711	117.19
233.945	113.19
234.179	118.19
234.413	102.19
234.647	102.19
234.881	118.19
235.115	121.19
235.349	115.19
235.583	130.19
235.817	111.19
236.051	111.19
236.285	126.19
236.519	109.19
236.753	104.19
236.987	142.19
237.221	152.19
237.455	183.19
237.689	167.19
237.922	123.19
238.156	135.19
238.39	118.19
238.624	124.19
238.858	111.19
239.091	123.19
239.325	119.19
239.559	118.19
239.793	103.19
240.027	121.19
240.26	117.19
240.494	139.19
240.728	133.19
240.961	124.19
241.195	141.19
241.429	124.19
241.662	132.19
241.896	111.19
242.13	117.19
242.363	131.19
242.597	122.19
242.83	147.19
243.064	115.19
243.298	120.19
243.531	119.19
243.765	127.19
243.998	149.19
244.232	140.19
244.465	141.19
244.699	136.19
244.932	156.19
245.166	140.19
245.399	154.19
245.633	141.19
245.866	137.19
246.099	147.19
246.333	149.19
246.566	137.19
246.8	147.19
247.033	147.19
247.266	154.19
247.5	144.19
247.733	171.19
247.966	153.19
248.2	186.19
248.433	151.19
248.666	163.19
248.899	179.19
249.133	189.19
249.366	173.19
249.599	156.19
249.832	163.19
250.066	159.19
250.299	171.19
250.532	173.19
250.765	175.19
250.998	171.19
251.231	193.19
251.465	185.19
251.698	181.19
251.931	175.19
252.164	179.19
252.397	181.19
252.63	178.19
252.863	189.19
253.096	190.19
253.329	203.19
253.562	229.19
253.795	214.19
254.028	201.19
254.261	200.19
254.494	217.19
254.727	229.19
254.96	229.19
255.193	239.19
255.426	209.19
255.659	197.19
255.892	210.19
256.124	221.19
256.357	216.19
256.59	203.19
256.823	198.19
257.056	199.19
257.289	190.19
257.521	195.19
257.754	201.19
257.987	196.19
258.22	196.19
258.452	194.19
258.685	192.19
258.918	203.19
259.151	208.19
259.383	215.19
259.616	203.19
259.849	199.19
260.081	212.19
260.314	207.19
260.547	213.19
260.779	217.19
261.012	214.19
261.244	200.19
261.477	210.19
261.71	218.19
261.942	203.19
262.175	213.19
262.407	203.19
262.64	191.19
262.872	206.19
263.105	210.19
263.337	213.19
263.57	207.19
263.802	196.19
264.035	181.19
264.267	197.19
264.499	209.19
264.732	202.19
264.964	230.19
265.197	212.19
265.429	225.19
265.661	231.19
265.894	212.19
266.126	217.19
266.358	218.19
266.591	218.19
266.823	214.19
267.055	221.19
267.287	214.19
267.52	227.19
267.752	222.19
267.984	226.19
268.216	211.19
268.448	245.19
268.681	216.19
268.913	217.19
269.145	243.19
269.377	235.19
269.609	262.19
269.841	260.19
270.073	265.19
270.306	251.19
270.538	276.19
270.77	296.19
271.002	277.19
271.234	283.19
271.466	284.19
271.698	280.19
271.93	296.19
272.162	276.19
272.394	284.19
272.626	280.19
272.858	288.19
273.09	258.19
273.322	269.19
273.553	257.19
273.785	253.19
274.017	252.19
274.249	262.19
274.481	265.19
274.713	245.19
274.945	271.19
275.176	272.19
275.408	261.19
275.64	275.19
275.872	248.19
276.104	270.19
276.335	273.19
276.567	269.19
276.799	268.19
277.031	291.19
277.262	281.19
277.494	297.19
277.726	295.19
277.957	276.19
278.189	277.19
278.421	268.19
278.652	275.19
278.884	241.19
279.115	288.19
279.347	253.19
279.579	262.19
279.81	241.19
280.042	242.19
280.273	277.19
280.505	237.19
280.736	274.19
280.968	251.19
281.199	276.19
281.431	273.19
281.662	271.19
281.894	267.19
282.125	269.19
282.356	282.19
282.588	289.19
282.819	299.19
283.051	284.19
283.282	290.19
283.513	276.19
283.745	269.19
283.976	291.19
284.207	285.19
284.439	290.19
284.67	282.19
284.901	292.19
285.132	288.19
285.364	266.19
285.595	289.19
285.826	282.19
286.057	287.19
286.288	298.19
286.52	301.19
286.751	268.19
286.982	273.19
287.213	278.19
287.444	274.19
287.675	296.19
287.906	302.19
288.138	310.19
288.369	316.19
288.6	309.19
288.831	311.19
289.062	301.19
289.293	307.19
289.524	307.19
289.755	315.19
289.986	311.19
290.217	297.19
290.448	269.19
290.679	285.19
290.91	283.19
291.141	283.19
291.371	292.19
291.602	298.19
291.833	305.19
292.064	287.19
292.295	309.19
292.526	300.19
292.757	305.19
292.987	295.19
293.218	294.19
293.449	286.19
293.68	295.19
293.91	296.19
294.141	286.19
294.372	293.19
294.603	282.19
294.833	323.19
295.064	304.19
295.295	290.19
295.525	303.19
295.756	309.19
295.987	295.19
296.217	323.19
296.448	305.19
296.679	302.19
296.909	296.19
297.14	314.19
297.37	296.19
297.601	307.19
297.831	324.19
298.062	319.19
298.292	307.19
298.523	293.19
298.753	326.19
298.984	325.19
299.214	308.19
299.445	300.19
299.675	316.19
299.905	313.19
300.136	325.19
300.366	326.19
300.597	322.19
300.827	324.19
301.057	319.19
301.288	303.19
301.518	326.19
301.748	320.19
301.979	329.19
302.209	330.19
302.439	329.19
302.669	314.19
302.9	333.19
303.13	317.19
303.36	334.19
303.59	334.19
303.82	334.19
304.051	327.19
304.281	330.19
304.511	333.19
304.741	338.19
304.971	337.19
305.201	329.19
305.431	327.19
305.661	334.19
305.891	336.19
306.121	329.19
306.352	315.19
306.582	322.19
306.812	335.19
307.042	346.19
307.272	340.19
307.502	318.19
307.731	338.19
307.961	342.19
308.191	334.19
308.421	334.19
308.651	335.19
308.881	346.19
309.111	339.19
309.341	338.19
309.571	328.19
309.8	339.19
310.03	356.19
310.26	342.19
310.49	358.19
310.72	363.19
310.949	377.19
311.179	361.19
311.409	360.19
311.639	380.19
311.868	365.19
312.098	373.19
312.328	359.19
312.557	373.19
312.787	357.19
313.017	387.19
313.246	368.19
313.476	374.19
313.706	357.19
313.935	373.19
314.165	374.19
314.394	391.19
314.624	377.19
314.853	365.19
315.083	370.19
315.312	355.19
315.542	359.19
315.771	349.19
316.001	356.19
316.23	371.19
316.46	374.19
316.689	372.19
316.919	348.19
317.148	384.19
317.377	377.19
317.607	375.19
317.836	389.19
318.065	365.19
318.295	379.19
318.524	376.19
318.753	354.19
318.983	358.19
319.212	364.19
319.441	387.19
319.67	371.19
319.9	383.19
320.129	393.19
320.358	367.19
320.587	377.19
320.816	380.19
321.046	389.19
321.275	374.19
321.504	384.19
321.733	389.19
321.962	383.19
322.191	422.19
322.42	433.19
322.649	416.19
322.878	410.19
323.108	430.19
323.337	419.19
323.566	430.19
323.795	451.19
324.024	493.19
324.253	546.19
324.482	750.19
324.71	1063.19
324.939	1440.19
325.168	1240.19
325.397	683.19
325.626	513.19
325.855	488.19
326.084	433.19
326.313	444.19
326.542	447.19
326.77	484.19
326.999	548.19
327.228	679.19
327.457	971.19
327.686	1116.19
327.914	771.19
328.143	586.19
328.372	515.19
328.6	492.19
328.829	456.19
329.058	489.19
329.287	463.19
329.515	462.19
329.744	470.19
329.972	471.19
330.201	455.19
330.43	498.19
330.658	492.19
330.887	525.19
331.115	505.19
331.344	426.19
331.572	456.19
331.801	476.19
332.03	456.19
332.258	447.19
332.486	445.19
332.715	442.19
332.943	433.19
333.172	446.19
333.4	444.19
333.629	461.19
333.857	477.19
334.085	461.19
334.314	476.19
334.542	481.19
334.771	483.19
334.999	467.19
335.227	453.19
335.455	457.19
335.684	438.19
335.912	443.19
336.14	438.19
336.369	437.19
336.597	454.19
336.825	448.19
337.053	412.19
337.281	426.19
337.51	447.19
337.738	439.19
337.966	399.19
338.194	423.19
338.422	417.19
338.65	422.19
338.878	439.19
339.106	421.19
339.334	410.19
339.562	426.19
339.79	419.19
340.018	394.19
340.246	409.19
340.474	405.19
340.702	412.19
340.93	415.19
341.158	432.19
341.386	403.19
341.614	415.19
341.842	404.19
342.07	410.19
342.298	417.19
342.526	403.19
342.754	403.19
342.981	393.19
343.209	410.19
343.437	421.19
343.665	413.19
343.893	426.19
344.12	453.19
344.348	427.19
344.576	416.19
344.804	426.19
345.031	428.19
345.259	432.19
345.487	404.19
345.714	403.19
345.942	405.19
346.17	406.19
346.397	385.19
346.625	383.19
346.853	385.19
347.08	374.19
347.308	401.19
347.535	399.19
347.763	386.19
347.99	410.19
348.218	408.19
348.445	420.19
348.673	393.19
348.9	380.19
349.128	400.19
349.355	372.19
349.583	394.19
349.81	388.19
350.037	397.19
350.265	394.19
350.492	381.19
350.72	392.19
350.947	379.19
351.174	374.19
351.402	402.19
351.629	381.19
351.856	399.19
352.083	398.19
352.311	403.19
352.538	391.19
352.765	406.19
352.992	396.19
353.22	386.19
353.447	393.19
353.674	368.19
353.901	384.19
354.128	395.19
354.355	378.19
354.583	376.19
354.81	371.19
355.037	364.19
355.264	358.19
355.491	380.19
355.718	383.19
355.945	370.19
356.172	379.19
356.399	357.19
356.626	371.19
356.853	379.19
357.08	362.19
357.307	367.19
357.534	362.19
357.761	363.19
357.988	377.19
358.215	389.19
358.441	380.19
358.668	387.19
358.895	367.19
359.122	385.19
359.349	389.19
359.576	361.19
359.802	394.19
360.029	393.19
360.256	403.19
360.483	397.19
360.709	390.19
360.936	389.19
361.163	383.19
361.39	395.19
361.616	374.19
361.843	377.19
362.07	389.19
362.296	389.19
362.523	372.19
362.749	397.19
362.976	380.19
363.203	356.19
363.429	361.19
363.656	363.19
363.882	374.19
364.109	385.19
364.335	365.19
364.562	359.19
364.788	366.19
365.015	362.19
365.241	361.19
365.468	363.19
365.694	370.19
365.92	364.19
366.147	373.19
366.373	374.19
366.599	370.19
366.826	363.19
367.052	373.19
367.278	369.19
367.505	373.19
367.731	357.19
367.957	379.19
368.184	371.19
368.41	377.19
368.636	393.19
368.862	390.19
369.089	376.19
369.315	366.19
369.541	387.19
369.767	377.19
369.993	362.19
370.219	369.19
370.445	371.19
370.672	372.19
370.898	367.19
371.124	375.19
371.35	367.19
371.576	373.19
371.802	350.19
372.028	371.19
372.254	365.19
372.48	375.19
372.706	397.19
372.932	383.19
373.158	381.19
373.384	389.19
373.61	395.19
373.835	354.19
374.061	366.19
374.287	375.19
374.513	374.19
374.739	390.19
374.965	377.19
375.191	377.19
375.416	396.19
375.642	392.19
375.868	378.19
376.094	391.19
376.319	367.19
376.545	368.19
376.771	379.19
376.997	387.19
377.222	373.19
377.448	366.19
377.674	357.19
377.899	374.19
378.125	370.19
378.35	364.19
378.576	381.19
378.802	361.19
379.027	366.19
379.253	378.19
379.478	380.19
379.704	353.19
379.929	358.19
380.155	381.19
380.38	353.19
380.606	377.19
380.831	387.19
381.057	372.19
381.282	374.19
381.507	375.19
381.733	374.19
381.958	354.19
382.184	373.19
382.409	361.19
382.634	377.19
382.86	367.19
383.085	393.19
383.31	381.19
383.535	394.19
383.761	401.19
383.986	396.19
384.211	395.19
384.436	398.19
384.662	396.19
384.887	381.19
385.112	391.19
385.337	410.19
385.562	400.19
385.787	405.19
386.013	410.19
386.238	427.19
386.463	397.19
386.688	401.19
386.913	396.19
387.138	425.19
387.363	393.19
387.588	422.19
387.813	408.19
388.038	420.19
388.263	417.19
388.488	401.19
388.713	423.19
388.938	427.19
389.163	410.19
389.387	387.19
389.612	422.19
389.837	407.19
390.062	398.19
390.287	391.19
390.512	415.19
390.736	394.19
390.961	419.19
391.186	407.19
391.411	410.19
391.636	430.19
391.86	412.19
392.085	433.19
392.31	414.19
392.534	407.19
392.759	439.19
392.984	397.19
393.208	411.19
393.433	414.19
393.658	412.19
393.882	409.19
394.107	415.19
394.331	416.19
394.556	409.19
394.78	417.19
395.005	418.19
395.229	407.19
395.454	421.19
395.678	426.19
395.903	433.19
396.127	457.19
396.352	427.19
396.576	437.19
396.801	423.19
397.025	422.19
397.249	429.19
397.474	411.19
397.698	435.19
397.922	462.19
398.147	467.19
398.371	483.19
398.595	477.19
398.82	473.19
399.044	470.19
399.268	497.19
399.492	547.19
399.717	539.19
399.941	552.19
400.165	574.19
400.389	556.19
400.613	513.19
400.837	482.19
401.062	469.19
401.286	476.19
401.51	466.19
401.734	453.19
401.958	472.19
402.182	461.19
402.406	473.19
402.63	478.19
402.854	489.19
403.078	487.19
403.302	498.19
403.526	496.19
403.75	475.19
403.974	469.19
404.198	479.19
404.422	489.19
404.645	490.19
404.869	489.19
405.093	501.19
405.317	541.19
405.541	552.19
405.765	516.19
405.988	483.19
406.212	499.19
406.436	499.19
406.66	526.19
406.883	511.19
407.107	554.19
407.331	568.19
407.555	598.19
407.778	601.19
408.002	596.19
408.226	544.19
408.449	508.19
408.673	519.19
408.896	541.19
409.12	567.19
409.344	533.19
409.567	476.19
409.791	474.19
410.014	473.19
410.238	499.19
410.461	487.19
410.685	482.19
410.908	481.19
411.132	510.19
411.355	525.19
411.578	507.19
411.802	483.19
412.025	467.19
412.249	470.19
412.472	502.19
412.695	508.19
412.919	513.19
413.142	473.19
413.365	472.19
413.589	457.19
413.812	457.19
414.035	426.19
414.258	473.19
414.482	445.19
414.705	440.19
414.928	455.19
415.151	470.19
415.374	429.19
415.597	427.19
415.821	465.19
416.044	450.19
416.267	447.19
416.49	438.19
416.713	439.19
416.936	421.19
417.159	430.19
417.382	443.19
417.605	451.19
417.828	442.19
418.051	450.19
418.274	463.19
418.497	438.19
418.72	468.19
418.943	441.19
419.166	453.19
419.389	466.19
419.611	464.19
419.834	490.19
420.057	467.19
420.28	464.19
420.503	461.19
420.726	449.19
420.948	479.19
421.171	486.19
421.394	516.19
421.617	463.19
421.839	450.19
422.062	469.19
422.285	457.19
422.507	534.19
422.73	553.19
422.953	522.19
423.175	489.19
423.398	476.19
423.621	472.19
423.843	477.19
424.066	452.19
424.288	511.19
424.511	490.19
424.733	535.19
424.956	565.19
425.178	554.19
425.401	578.19
425.623	605.19
425.846	489.19
426.068	478.19
426.291	480.19
426.513	488.19
426.735	475.19
426.958	519.19
427.18	561.19
427.402	661.19
427.625	697.19
427.847	613.19
428.069	553.19
428.292	498.19
428.514	469.19
428.736	455.19
428.958	446.19
429.181	417.19
429.403	438.19
429.625	423.19
429.847	465.19
430.069	536.19
430.292	505.19
430.514	475.19
430.736	445.19
430.958	439.19
431.18	420.19
431.402	431.19
431.624	425.19
431.846	437.19
432.068	416.19
432.29	443.19
432.512	416.19
432.734	446.19
432.956	441.19
433.178	444.19
433.4	422.19
433.622	439.19
433.844	427.19
434.066	430.19
434.287	426.19
434.509	445.19
434.731	435.19
434.953	446.19
435.175	432.19
435.397	462.19
435.618	487.19
435.84	484.19
436.062	555.19
436.284	621.19
436.505	535.19
436.727	476.19
436.949	456.19
437.17	446.19
437.392	449.19
437.614	442.19
437.835	486.19
438.057	534.19
438.278	602.19
438.5	585.19
438.721	650.19
438.943	636.19
439.165	517.19
439.386	467.19
439.608	477.19
439.829	454.19
440.05	490.19
440.272	507.19
440.493	473.19
440.715	443.19
440.936	451.19
441.158	431.19
441.379	439.19
441.6	459.19
441.822	468.19
442.043	492.19
442.264	540.19
442.486	585.19
442.707	501.19
442.928	465.19
443.149	506.19
443.371	503.19
443.592	539.19
443.813	585.19
444.034	642.19
444.255	541.19
444.476	503.19
444.698	483.19
444.919	484.19
445.14	559.19
445.361	549.19
445.582	501.19
445.803	569.19
446.024	598.19
446.245	616.19
446.466	566.19
446.687	494.19
446.908	459.19
447.129	441.19
447.35	445.19
447.571	438.19
447.792	421.19
448.013	419.19
448.234	437.19
448.455	485.19
448.675	549.19
448.896	653.19
449.117	552.19
449.338	529.19
449.559	598.19
449.779	677.19
450	541.19
450.221	451.19
450.442	423.19
450.662	407.19
450.883	403.19
451.104	433.19
451.324	398.19
451.545	425.19
451.766	385.19
451.986	370.19
452.207	403.19
452.428	381.19
452.648	379.19
452.869	373.19
453.089	385.19
453.31	397.19
453.53	376.19
453.751	386.19
453.971	393.19
454.192	391.19
454.412	381.19
454.633	368.19
454.853	373.19
455.073	381.19
455.294	406.19
455.514	436.19
455.734	415.19
455.955	394.19
456.175	356.19
456.395	358.19
456.616	363.19
456.836	362.19
457.056	374.19
457.276	369.19
457.497	371.19
457.717	367.19
457.937	364.19
458.157	367.19
458.377	383.19
458.598	413.19
458.818	430.19
459.038	461.19
459.258	485.19
459.478	441.19
459.698	420.19
459.918	421.19
460.138	430.19
460.358	417.19
460.578	452.19
460.798	431.19
461.018	448.19
461.238	451.19
461.458	452.19
461.678	424.19
461.898	442.19
462.118	445.19
462.338	457.19
462.558	430.19
462.777	438.19
462.997	500.19
463.217	492.19
463.437	478.19
463.657	459.19
463.876	471.19
464.096	483.19
464.316	471.19
464.536	470.19
464.755	451.19
464.975	476.19
465.195	499.19
465.414	494.19
465.634	462.19
465.854	430.19
466.073	409.19
466.293	409.19
466.512	415.19
466.732	401.19
466.951	394.19
467.171	412.19
467.391	400.19
467.61	407.19
467.829	395.19
468.049	385.19
468.268	380.19
468.488	381.19
468.707	394.19
468.927	390.19
469.146	390.19
469.365	379.19
469.585	364.19
469.804	413.19
470.023	398.19
470.243	387.19
470.462	401.19
470.681	425.19
470.901	405.19
471.12	402.19
471.339	379.19
471.558	384.19
471.777	401.19
471.997	405.19
472.216	397.19
472.435	435.19
472.654	417.19
472.873	388.19
473.092	383.19
473.311	397.19
473.53	393.19
473.749	398.19
473.968	435.19
474.187	502.19
474.406	511.19
474.625	439.19
474.844	412.19
475.063	397.19
475.282	396.19
475.501	397.19
475.72	414.19
475.939	421.19
476.158	411.19
476.377	402.19
476.596	426.19
476.814	405.19
477.033	433.19
477.252	418.19
477.471	443.19
477.69	431.19
477.908	424.19
478.127	431.19
478.346	435.19
478.564	438.19
478.783	458.19
479.002	449.19
479.22	467.19
479.439	497.19
479.658	476.19
479.876	493.19
480.095	472.19
480.313	491.19
480.532	494.19
480.751	471.19
480.969	470.19
481.188	509.19
481.406	515.19
481.624	488.19
481.843	467.19
482.061	472.19
482.28	476.19
482.498	465.19
482.717	462.19
482.935	458.19
483.153	461.19
483.372	469.19
483.59	475.19
483.808	488.19
484.027	449.19
484.245	453.19
484.463	444.19
484.681	451.19
484.9	490.19
485.118	475.19
485.336	458.19
485.554	468.19
485.772	461.19
485.99	491.19
486.209	488.19
486.427	488.19
486.645	493.19
486.863	487.19
487.081	487.19
487.299	494.19
487.517	485.19
487.735	478.19
487.953	477.19
488.171	477.19
488.389	476.19
488.607	496.19
488.825	491.19
489.043	492.19
489.261	519.19
489.479	490.19
489.696	507.19
489.914	485.19
490.132	491.19
490.35	500.19
490.568	499.19
490.786	539.19
491.003	517.19
491.221	507.19
491.439	525.19
491.657	532.19
491.874	533.19
492.092	563.19
492.31	547.19
492.527	540.19
492.745	528.19
492.963	537.19
493.18	554.19
493.398	550.19
493.615	573.19
493.833	555.19
494.05	556.19
494.268	553.19
494.485	543.19
494.703	539.19
494.92	558.19
495.138	558.19
495.355	573.19
495.573	575.19
495.79	545.19
496.008	567.19
496.225	563.19
496.442	593.19
496.66	573.19
496.877	565.19
497.094	577.19
497.312	564.19
497.529	587.19
497.746	599.19
497.963	607.19
498.181	630.19
498.398	627.19
498.615	643.19
498.832	676.19
499.049	681.19
499.267	681.19
499.484	738.19
499.701	790.19
499.918	811.19
500.135	837.19
500.352	894.19
500.569	902.19
500.786	897.19
501.003	885.19
501.22	869.19
501.437	809.19
501.654	784.19
501.871	757.19
502.088	708.19
502.305	707.19
502.522	663.19
502.739	662.19
502.956	640.19
503.172	641.19
503.389	599.19
503.606	578.19
503.823	596.19
504.04	590.19
504.256	610.19
504.473	592.19
504.69	586.19
504.907	603.19
505.123	591.19
505.34	566.19
505.557	557.19
505.773	567.19
505.99	555.19
506.207	571.19
506.423	567.19
506.64	528.19
506.856	527.19
507.073	517.19
507.289	506.19
507.506	530.19
507.722	518.19
507.939	539.19
508.155	494.19
508.372	503.19
508.588	494.19
508.805	504.19
509.021	509.19
509.238	519.19
509.454	525.19
509.67	523.19
509.887	511.19
510.103	498.19
510.319	499.19
510.536	570.19
510.752	785.19
510.968	633.19
511.184	516.19
511.401	468.19
511.617	478.19
511.833	473.19
512.049	467.19
512.265	464.19
512.481	479.19
512.698	471.19
512.914	470.19
513.13	460.19
513.346	465.19
513.562	470.19
513.778	481.19
513.994	481.19
514.21	499.19
514.426	497.19
514.642	521.19
514.858	538.19
515.074	542.19
515.29	609.19
515.506	771.19
515.721	682.19
515.937	533.19
516.153	499.19
516.369	503.19
516.585	504.19
516.801	495.19
517.016	503.19
517.232	521.19
517.448	504.19
517.664	511.19
517.879	533.19
518.095	519.19
518.311	532.19
518.527	507.19
518.742	513.19
518.958	511.19
519.173	486.19
519.389	467.19
519.605	471.19
519.82	485.19
520.036	504.19
520.251	497.19
520.467	500.19
520.682	498.19
520.898	467.19
521.113	505.19
521.329	515.19
521.544	574.19
521.76	679.19
521.975	925.19
522.19	916.19
522.406	584.19
522.621	523.19
522.836	459.19
523.052	465.19
523.267	459.19
523.482	441.19
523.698	441.19
523.913	439.19
524.128	425.19
524.343	411.19
524.559	428.19
524.774	421.19
524.989	409.19
525.204	420.19
525.419	416.19
525.634	422.19
525.849	413.19
526.064	423.19
526.28	406.19
526.495	393.19
526.71	404.19
526.925	403.19
527.14	399.19
527.355	404.19
527.57	396.19
527.785	384.19
527.999	404.19
528.214	389.19
528.429	419.19
528.644	391.19
528.859	407.19
529.074	408.19
529.289	403.19
529.503	468.19
529.718	439.19
529.933	412.19
530.148	401.19
530.363	398.19
530.577	407.19
530.792	392.19
531.007	381.19
531.221	410.19
531.436	401.19
531.651	400.19
531.865	403.19
532.08	385.19
532.295	402.19
532.509	383.19
532.724	384.19
532.938	389.19
533.153	392.19
533.367	387.19
533.582	387.19
533.796	402.19
534.011	391.19
534.225	400.19
534.44	387.19
534.654	355.19
534.868	365.19
535.083	380.19
535.297	374.19
535.511	385.19
535.726	380.19
535.94	405.19
536.154	383.19
536.369	382.19
536.583	382.19
536.797	378.19
537.011	367.19
537.225	359.19
537.44	371.19
537.654	377.19
537.868	385.19
538.082	374.19
538.296	369.19
538.51	364.19
538.724	379.19
538.938	387.19
539.153	378.19
539.367	390.19
539.581	382.19
539.795	359.19
540.009	354.19
540.222	390.19
540.436	364.19
540.65	357.19
540.864	375.19
541.078	381.19
541.292	391.19
541.506	358.19
541.72	377.19
541.934	364.19
542.147	377.19
542.361	378.19
542.575	374.19
542.789	371.19
543.002	361.19
543.216	375.19
543.43	373.19
543.644	380.19
543.857	373.19
544.071	365.19
544.285	372.19
544.498	369.19
544.712	383.19
544.925	360.19
545.139	357.19
545.352	376.19
545.566	381.19
545.779	370.19
545.993	388.19
546.206	393.19
546.42	381.19
546.633	364.19
546.847	362.19
547.06	365.19
547.274	393.19
547.487	353.19
547.7	350.19
547.914	374.19
548.127	362.19
548.34	360.19
548.554	353.19
548.767	366.19
548.98	366.19
549.193	374.19
549.407	360.19
549.62	371.19
549.833	375.19
550.046	349.19
550.259	356.19
550.473	345.19
550.686	359.19
550.899	358.19
551.112	358.19
551.325	379.19
551.538	364.19
551.751	378.19
551.964	353.19
552.177	372.19
552.39	354.19
552.603	346.19
552.816	366.19
553.029	354.19
553.242	377.19
553.455	369.19
553.667	357.19
553.88	385.19
554.093	364.19
554.306	363.19
554.519	360.19
554.732	361.19
554.944	386.19
555.157	348.19
555.37	326.19
555.583	347.19
555.795	362.19
556.008	346.19
556.221	338.19
556.433	340.19
556.646	339.19
556.859	307.19
557.071	326.19
557.284	320.19
557.496	324.19
557.709	319.19
557.921	317.19
558.134	323.19
558.346	317.19
558.559	323.19
558.771	327.19
558.984	330.19
559.196	335.19
559.409	325.19
559.621	328.19
559.833	321.19
560.046	326.19
560.258	312.19
560.47	318.19
560.683	326.19
560.895	315.19
561.107	313.19
561.32	305.19
561.532	313.19
561.744	311.19
561.956	310.19
562.168	324.19
562.381	331.19
562.593	317.19
562.805	330.19
563.017	297.19
563.229	339.19
563.441	335.19
563.653	324.19
563.865	323.19
564.077	319.19
564.289	334.19
564.501	316.19
564.713	332.19
564.925	336.19
565.137	350.19
565.349	350.19
565.561	350.19
565.773	377.19
565.985	365.19
566.197	377.19
566.408	391.19
566.62	394.19
566.832	414.19
567.044	421.19
567.255	421.19
567.467	417.19
567.679	418.19
567.891	451.19
568.102	433.19
568.314	428.19
568.526	425.19
568.737	398.19
568.949	379.19
569.161	355.19
569.372	360.19
569.584	370.19
569.795	348.19
570.007	353.19
570.218	350.19
570.43	337.19
570.641	324.19
570.853	333.19
571.064	340.19
571.276	327.19
571.487	324.19
571.698	309.19
571.91	310.19
572.121	306.19
572.333	306.19
572.544	298.19
572.755	307.19
572.966	300.19
573.178	287.19
573.389	288.19
573.6	305.19
573.811	273.19
574.023	290.19
574.234	292.19
574.445	298.19
574.656	284.19
574.867	280.19
575.078	277.19
575.289	276.19
575.501	279.19
575.712	278.19
575.923	291.19
576.134	291.19
576.345	269.19
576.556	292.19
576.767	266.19
576.978	281.19
577.188	286.19
577.399	279.19
577.61	279.19
577.821	272.19
578.032	246.19
578.243	302.19
578.454	382.19
578.665	328.19
578.875	283.19
579.086	271.19
579.297	255.19
579.508	253.19
579.718	268.19
579.929	257.19
580.14	260.19
580.35	250.19
580.561	252.19
580.772	234.19
580.982	252.19
581.193	249.19
581.403	243.19
581.614	254.19
581.825	237.19
582.035	262.19
582.246	249.19
582.456	253.19
582.667	262.19
582.877	267.19
583.087	243.19
583.298	254.19
583.508	254.19
583.719	257.19
583.929	254.19
584.139	250.19
584.35	230.19
584.56	267.19
584.77	253.19
584.981	259.19
585.191	259.19
585.401	244.19
585.611	244.19
585.821	245.19
586.032	245.19
586.242	249.19
586.452	264.19
586.662	248.19
586.872	249.19
587.082	247.19
587.292	265.19
587.502	243.19
587.713	234.19
587.923	243.19
588.133	235.19
588.343	241.19
588.553	249.19
588.762	268.19
588.972	262.19
589.182	253.19
589.392	242.19
589.602	225.19
589.812	228.19
590.022	242.19
590.232	243.19
590.441	258.19
590.651	249.19
590.861	236.19
591.071	238.19
591.281	257.19
591.49	240.19
591.7	244.19
591.91	254.19
592.119	248.19
592.329	258.19
592.539	275.19
592.748	265.19
592.958	274.19
593.167	271.19
593.377	265.19
593.587	278.19
593.796	273.19
594.006	279.19
594.215	265.19
594.424	277.19
594.634	271.19
594.843	255.19
595.053	266.19
595.262	261.19
595.472	261.19
595.681	260.19
595.89	236.19
596.1	241.19
596.309	249.19
596.518	252.19
596.727	248.19
596.937	245.19
597.146	257.19
597.355	227.19
597.564	229.19
597.774	230.19
597.983	235.19
598.192	221.19
598.401	226.19
598.61	231.19
598.819	218.19
599.028	221.19
599.237	221.19
599.446	217.19
599.655	219.19
599.864	200.19
600.073	217.19
600.282	219.19
600.491	233.19
600.7	228.19
600.909	217.19
601.118	233.19
601.327	236.19
601.536	207.19
601.745	223.19
601.953	221.19
602.162	218.19
602.371	208.19
602.58	204.19
602.789	209.19
602.997	210.19
603.206	210.19
603.415	201.19
603.623	220.19
603.832	210.19
604.041	205.19
604.249	219.19
604.458	205.19
604.666	189.19
604.875	218.19
605.084	220.19
605.292	207.19
605.501	217.19
605.709	210.19
605.918	206.19
606.126	213.19
606.334	211.19
606.543	198.19
606.751	191.19
606.96	196.19
607.168	209.19
607.376	195.19
607.585	204.19
607.793	216.19
608.001	196.19
608.21	212.19
608.418	207.19
608.626	205.19
608.834	205.19
609.043	193.19
609.251	199.19
609.459	204.19
609.667	193.19
609.875	198.19
610.083	189.19
610.291	212.19
610.499	207.19
610.707	187.19
610.916	194.19
611.124	207.19
611.332	209.19
611.54	202.19
611.748	201.19
611.955	210.19
612.163	199.19
612.371	187.19
612.579	196.19
612.787	193.19
612.995	195.19
613.203	193.19
613.411	199.19
613.618	200.19
613.826	202.19
614.034	206.19
614.242	204.19
614.449	196.19
614.657	192.19
614.865	191.19
615.072	202.19
615.28	198.19
615.488	205.19
615.695	194.19
615.903	195.19
616.111	206.19
616.318	195.19
616.526	204.19
616.733	202.19
616.941	200.19
617.148	199.19
617.356	183.19
617.563	191.19
617.771	216.19
617.978	193.19
618.185	185.19
618.393	179.19
618.6	191.19
618.807	190.19
619.015	201.19
619.222	198.19
619.429	201.19
619.637	182.19
619.844	193.19
620.051	201.19
620.258	187.19
620.466	172.19
620.673	175.19
620.88	183.19
621.087	195.19
621.294	186.19
621.501	187.19
621.708	180.19
621.915	183.19
622.122	194.19
622.329	173.19
622.536	185.19
622.743	188.19
622.95	180.19
623.157	177.19
623.364	194.19
623.571	162.19
623.778	198.19
623.985	178.19
624.192	196.19
624.399	178.19
624.606	169.19
624.812	155.19
625.019	194.19
625.226	197.19
625.433	185.19
625.639	177.19
625.846	189.19
626.053	177.19
626.259	178.19
626.466	189.19
626.673	172.19
626.879	172.19
627.086	165.19
627.293	180.19
627.499	188.19
627.706	185.19
627.912	161.19
628.119	173.19
628.325	180.19
628.532	169.19
628.738	169.19
628.945	179.19
629.151	177.19
629.357	179.19
629.564	181.19
629.77	181.19
629.976	161.19
630.183	145.19
630.389	156.19
630.595	161.19
630.802	162.19
631.008	177.19
631.214	169.19
631.42	165.19
631.627	159.19
631.833	170.19
632.039	174.19
632.245	171.19
632.451	165.19
632.657	161.19
632.863	160.19
633.069	170.19
633.275	166.19
633.481	156.19
633.688	149.19
633.893	181.19
634.099	163.19
634.305	152.19
634.511	172.19
634.717	159.19
634.923	156.19
635.129	159.19
635.335	141.19
635.541	149.19
635.747	169.19
635.952	157.19
636.158	159.19
636.364	160.19
636.57	163.19
636.775	158.19
636.981	157.19
637.187	173.19
637.392	162.19
637.598	161.19
637.804	164.19
638.009	170.19
638.215	181.19
638.421	160.19
638.626	147.19
638.832	158.19
639.037	142.19
639.243	170.19
639.448	149.19
639.654	163.19
639.859	169.19
640.065	149.19
640.27	158.19
640.475	143.19
640.681	153.19
640.886	162.19
641.091	137.19
641.297	137.19
641.502	151.19
641.707	154.19
641.913	147.19
642.118	144.19
642.323	133.19
642.528	156.19
642.733	151.19
642.939	142.19
643.144	141.19
643.349	128.19
643.554	156.19
643.759	139.19
643.964	138.19
644.169	155.19
644.374	149.19
644.579	137.19
644.784	143.19
644.989	138.19
645.194	163.19
645.399	146.19
645.604	144.19
645.809	154.19
646.014	148.19
646.219	147.19
646.423	142.19
646.628	143.19
646.833	144.19
647.038	149.19
647.243	153.19
647.447	142.19
647.652	139.19
647.857	149.19
648.062	153.19
648.266	151.19
648.471	141.19
648.676	144.19
648.88	153.19
649.085	157.19
649.289	135.19
649.494	145.19
649.698	156.19
649.903	161.19
650.107	149.19
650.312	150.19
650.516	144.19
650.721	149.19
650.925	123.19
651.13	142.19
651.334	150.19
651.539	142.19
651.743	138.19
651.947	138.19
652.152	131.19
652.356	128.19
652.56	121.19
652.764	138.19
652.969	119.19
653.173	130.19
653.377	134.19
653.581	116.19
653.785	126.19
653.99	146.19
654.194	123.19
654.398	119.19
654.602	119.19
654.806	130.19
655.01	124.19
655.214	133.19
655.418	121.19
655.622	108.19
655.826	121.19
656.03	125.19
656.234	122.19
656.438	122.19
656.642	138.19
656.846	121.19
657.049	120.19
657.253	117.19
657.457	118.19
657.661	114.19
657.865	111.19
658.068	102.19
658.272	102.19
658.476	94.19
658.68	111.19
658.883	88.19
659.087	107.19
659.291	106.19
659.494	94.19
659.698	91.19
659.901	106.19
660.105	82.19
660.309	100.19
660.512	95.19
660.716	90.19
660.919	94.19
661.123	101.19
661.326	85.19
661.53	106.19
661.733	102.19
661.936	98.19
662.14	97.19
662.343	90.19
662.546	79.19
662.75	91.19
662.953	79.19
663.156	70.19
663.36	87.19
663.563	78.19
663.766	84.19
663.969	89.19
664.173	89.19
664.376	90.19
664.579	77.19
664.782	93.19
664.985	82.19
665.188	89.19
665.391	89.19
665.594	83.19
665.797	80.19
666	85.19
666.203	75.19
666.406	75.19
666.609	83.19
666.812	77.19
667.015	81.19
667.218	74.19
667.421	67.19
667.624	75.19
667.827	77.19
668.03	90.19
668.232	80.19
668.435	71.19
668.638	78.19
668.841	86.19
669.043	96.19
669.246	84.19
669.449	83.19
669.651	89.19
669.854	89.19
670.057	81.19
670.259	65.19
670.462	88.19
670.665	83.19
670.867	73.19
671.07	70.19
671.272	73.19
671.475	81.19
671.677	77.19
671.88	83.19
672.082	80.19
672.284	80.19
672.487	91.19
672.689	78.19
672.892	86.19
