Data from 1977.PennyLincolnUp.Lamp.En5.5.200Scan.071719.P1_HRD10591_16-05-13-876.txt Node
Date: Thu Jul 18 16:05:13 EDT 2019
User: cochatt
Spectrometer: HR+D1059
Trigger mode: 1
Integration Time (sec): 1.000000E-1
Scans to average: 1
Electric dark correction enabled: true
Nonlinearity correction enabled: false
Boxcar width: 0
XAxis mode: Wavelengths
Number of Pixels in Spectrum: 2048
>>>>>Begin Spectral Data<<<<<
223.165	-12.81
223.4	-12.81
223.635	-12.81
223.869	-22.81
224.104	-7.81
224.338	-18.81
224.573	-12.81
224.808	1.19
225.042	-18.81
225.277	-8.81
225.511	7.19
225.746	-16.81
225.98	15.19
226.215	16.19
226.449	20.19
226.683	18.19
226.918	10.19
227.152	31.19
227.387	30.19
227.621	55.19
227.856	38.19
228.09	39.19
228.324	39.19
228.559	66.19
228.793	70.19
229.027	78.19
229.262	106.19
229.496	97.19
229.73	109.19
229.964	119.19
230.199	127.19
230.433	103.19
230.667	111.19
230.901	117.19
231.136	99.19
231.37	99.19
231.604	114.19
231.838	98.19
232.072	95.19
232.306	96.19
232.541	102.19
232.775	102.19
233.009	104.19
233.243	102.19
233.477	102.19
233.711	102.19
233.945	119.19
234.179	108.19
234.413	122.19
234.647	102.19
234.881	119.19
235.115	121.19
235.349	114.19
235.583	117.19
235.817	116.19
236.051	128.19
236.285	102.19
236.519	108.19
236.753	104.19
236.987	125.19
237.221	142.19
237.455	178.19
237.689	143.19
237.922	114.19
238.156	127.19
238.39	112.19
238.624	100.19
238.858	122.19
239.091	121.19
239.325	110.19
239.559	117.19
239.793	133.19
240.027	116.19
240.26	132.19
240.494	155.19
240.728	141.19
240.961	135.19
241.195	121.19
241.429	134.19
241.662	132.19
241.896	118.19
242.13	133.19
242.363	135.19
242.597	126.19
242.83	132.19
243.064	126.19
243.298	133.19
243.531	126.19
243.765	124.19
243.998	137.19
244.232	137.19
244.465	125.19
244.699	135.19
244.932	132.19
245.166	132.19
245.399	133.19
245.633	132.19
245.866	155.19
246.099	142.19
246.333	145.19
246.566	155.19
246.8	142.19
247.033	134.19
247.266	151.19
247.5	154.19
247.733	170.19
247.966	157.19
248.2	146.19
248.433	157.19
248.666	149.19
248.899	151.19
249.133	159.19
249.366	181.19
249.599	173.19
249.832	172.19
250.066	173.19
250.299	163.19
250.532	175.19
250.765	180.19
250.998	184.19
251.231	179.19
251.465	194.19
251.698	167.19
251.931	178.19
252.164	172.19
252.397	188.19
252.63	175.19
252.863	188.19
253.096	188.19
253.329	205.19
253.562	185.19
253.795	201.19
254.028	192.19
254.261	187.19
254.494	216.19
254.727	228.19
254.96	221.19
255.193	228.19
255.426	216.19
255.659	204.19
255.892	190.19
256.124	199.19
256.357	210.19
256.59	196.19
256.823	203.19
257.056	183.19
257.289	191.19
257.521	190.19
257.754	191.19
257.987	210.19
258.22	192.19
258.452	190.19
258.685	191.19
258.918	189.19
259.151	184.19
259.383	206.19
259.616	191.19
259.849	210.19
260.081	212.19
260.314	210.19
260.547	212.19
260.779	204.19
261.012	216.19
261.244	212.19
261.477	225.19
261.71	203.19
261.942	207.19
262.175	204.19
262.407	217.19
262.64	219.19
262.872	213.19
263.105	200.19
263.337	216.19
263.57	222.19
263.802	204.19
264.035	203.19
264.267	194.19
264.499	198.19
264.732	198.19
264.964	213.19
265.197	215.19
265.429	208.19
265.661	201.19
265.894	218.19
266.126	236.19
266.358	220.19
266.591	221.19
266.823	230.19
267.055	213.19
267.287	219.19
267.52	216.19
267.752	222.19
267.984	221.19
268.216	215.19
268.448	231.19
268.681	235.19
268.913	231.19
269.145	230.19
269.377	258.19
269.609	250.19
269.841	266.19
270.073	256.19
270.306	244.19
270.538	272.19
270.77	274.19
271.002	243.19
271.234	248.19
271.466	283.19
271.698	278.19
271.93	272.19
272.162	291.19
272.394	267.19
272.626	247.19
272.858	258.19
273.09	258.19
273.322	246.19
273.553	262.19
273.785	239.19
274.017	256.19
274.249	239.19
274.481	247.19
274.713	258.19
274.945	272.19
275.176	265.19
275.408	260.19
275.64	263.19
275.872	262.19
276.104	260.19
276.335	261.19
276.567	249.19
276.799	253.19
277.031	272.19
277.262	303.19
277.494	294.19
277.726	259.19
277.957	278.19
278.189	278.19
278.421	267.19
278.652	250.19
278.884	246.19
279.115	260.19
279.347	262.19
279.579	261.19
279.81	274.19
280.042	265.19
280.273	272.19
280.505	263.19
280.736	275.19
280.968	262.19
281.199	277.19
281.431	261.19
281.662	283.19
281.894	288.19
282.125	259.19
282.356	265.19
282.588	297.19
282.819	292.19
283.051	251.19
283.282	256.19
283.513	275.19
283.745	263.19
283.976	268.19
284.207	293.19
284.439	291.19
284.67	295.19
284.901	290.19
285.132	280.19
285.364	281.19
285.595	258.19
285.826	268.19
286.057	283.19
286.288	286.19
286.52	262.19
286.751	291.19
286.982	282.19
287.213	286.19
287.444	276.19
287.675	289.19
287.906	296.19
288.138	302.19
288.369	289.19
288.6	306.19
288.831	295.19
289.062	302.19
289.293	303.19
289.524	286.19
289.755	295.19
289.986	298.19
290.217	316.19
290.448	300.19
290.679	302.19
290.91	291.19
291.141	293.19
291.371	306.19
291.602	292.19
291.833	302.19
292.064	306.19
292.295	291.19
292.526	294.19
292.757	273.19
292.987	290.19
293.218	275.19
293.449	283.19
293.68	290.19
293.91	298.19
294.141	298.19
294.372	289.19
294.603	291.19
294.833	256.19
295.064	300.19
295.295	306.19
295.525	321.19
295.756	327.19
295.987	293.19
296.217	298.19
296.448	300.19
296.679	302.19
296.909	309.19
297.14	289.19
297.37	308.19
297.601	299.19
297.831	296.19
298.062	290.19
298.292	314.19
298.523	308.19
298.753	320.19
298.984	301.19
299.214	316.19
299.445	322.19
299.675	298.19
299.905	289.19
300.136	313.19
300.366	308.19
300.597	318.19
300.827	327.19
301.057	342.19
301.288	316.19
301.518	332.19
301.748	323.19
301.979	333.19
302.209	328.19
302.439	332.19
302.669	330.19
302.9	333.19
303.13	319.19
303.36	325.19
303.59	336.19
303.82	332.19
304.051	343.19
304.281	344.19
304.511	331.19
304.741	326.19
304.971	332.19
305.201	322.19
305.431	322.19
305.661	333.19
305.891	330.19
306.121	315.19
306.352	324.19
306.582	303.19
306.812	322.19
307.042	323.19
307.272	325.19
307.502	334.19
307.731	318.19
307.961	318.19
308.191	320.19
308.421	330.19
308.651	325.19
308.881	339.19
309.111	323.19
309.341	340.19
309.571	338.19
309.8	333.19
310.03	351.19
310.26	350.19
310.49	344.19
310.72	358.19
310.949	363.19
311.179	363.19
311.409	350.19
311.639	354.19
311.868	368.19
312.098	365.19
312.328	358.19
312.557	363.19
312.787	390.19
313.017	382.19
313.246	355.19
313.476	358.19
313.706	353.19
313.935	360.19
314.165	370.19
314.394	374.19
314.624	366.19
314.853	363.19
315.083	370.19
315.312	366.19
315.542	362.19
315.771	375.19
316.001	355.19
316.23	349.19
316.46	374.19
316.689	384.19
316.919	362.19
317.148	353.19
317.377	380.19
317.607	373.19
317.836	348.19
318.065	349.19
318.295	362.19
318.524	364.19
318.753	357.19
318.983	367.19
319.212	344.19
319.441	362.19
319.67	386.19
319.9	376.19
320.129	379.19
320.358	358.19
320.587	370.19
320.816	355.19
321.046	361.19
321.275	381.19
321.504	371.19
321.733	372.19
321.962	360.19
322.191	392.19
322.42	389.19
322.649	401.19
322.878	403.19
323.108	409.19
323.337	416.19
323.566	438.19
323.795	432.19
324.024	451.19
324.253	523.19
324.482	674.19
324.71	998.19
324.939	1325.19
325.168	1170.19
325.397	641.19
325.626	492.19
325.855	441.19
326.084	397.19
326.313	419.19
326.542	428.19
326.77	472.19
326.999	519.19
327.228	648.19
327.457	892.19
327.686	997.19
327.914	718.19
328.143	542.19
328.372	487.19
328.6	452.19
328.829	457.19
329.058	429.19
329.287	462.19
329.515	436.19
329.744	408.19
329.972	437.19
330.201	453.19
330.43	453.19
330.658	449.19
330.887	472.19
331.115	461.19
331.344	434.19
331.572	436.19
331.801	426.19
332.03	445.19
332.258	432.19
332.486	429.19
332.715	430.19
332.943	439.19
333.172	428.19
333.4	431.19
333.629	436.19
333.857	459.19
334.085	444.19
334.314	451.19
334.542	461.19
334.771	472.19
334.999	466.19
335.227	454.19
335.455	432.19
335.684	447.19
335.912	434.19
336.14	432.19
336.369	453.19
336.597	434.19
336.825	420.19
337.053	418.19
337.281	443.19
337.51	432.19
337.738	441.19
337.966	415.19
338.194	416.19
338.422	416.19
338.65	434.19
338.878	423.19
339.106	406.19
339.334	418.19
339.562	408.19
339.79	416.19
340.018	435.19
340.246	390.19
340.474	408.19
340.702	404.19
340.93	411.19
341.158	409.19
341.386	406.19
341.614	412.19
341.842	404.19
342.07	398.19
342.298	400.19
342.526	405.19
342.754	409.19
342.981	393.19
343.209	396.19
343.437	390.19
343.665	407.19
343.893	417.19
344.12	426.19
344.348	436.19
344.576	394.19
344.804	406.19
345.031	412.19
345.259	416.19
345.487	381.19
345.714	403.19
345.942	407.19
346.17	399.19
346.397	397.19
346.625	405.19
346.853	393.19
347.08	390.19
347.308	388.19
347.535	404.19
347.763	394.19
347.99	380.19
348.218	378.19
348.445	368.19
348.673	403.19
348.9	382.19
349.128	405.19
349.355	383.19
349.583	368.19
349.81	364.19
350.037	361.19
350.265	395.19
350.492	386.19
350.72	402.19
350.947	375.19
351.174	373.19
351.402	382.19
351.629	400.19
351.856	367.19
352.083	380.19
352.311	396.19
352.538	398.19
352.765	375.19
352.992	370.19
353.22	380.19
353.447	371.19
353.674	367.19
353.901	355.19
354.128	376.19
354.355	358.19
354.583	347.19
354.81	353.19
355.037	347.19
355.264	350.19
355.491	352.19
355.718	379.19
355.945	378.19
356.172	373.19
356.399	357.19
356.626	365.19
356.853	344.19
357.08	358.19
357.307	380.19
357.534	374.19
357.761	355.19
357.988	388.19
358.215	363.19
358.441	374.19
358.668	360.19
358.895	367.19
359.122	387.19
359.349	378.19
359.576	386.19
359.802	389.19
360.029	403.19
360.256	402.19
360.483	371.19
360.709	394.19
360.936	395.19
361.163	365.19
361.39	380.19
361.616	363.19
361.843	394.19
362.07	368.19
362.296	388.19
362.523	370.19
362.749	382.19
362.976	382.19
363.203	357.19
363.429	348.19
363.656	376.19
363.882	365.19
364.109	378.19
364.335	379.19
364.562	378.19
364.788	376.19
365.015	371.19
365.241	382.19
365.468	379.19
365.694	352.19
365.92	378.19
366.147	372.19
366.373	367.19
366.599	358.19
366.826	347.19
367.052	376.19
367.278	363.19
367.505	370.19
367.731	365.19
367.957	367.19
368.184	360.19
368.41	366.19
368.636	387.19
368.862	371.19
369.089	358.19
369.315	374.19
369.541	354.19
369.767	366.19
369.993	376.19
370.219	378.19
370.445	373.19
370.672	359.19
370.898	358.19
371.124	400.19
371.35	351.19
371.576	358.19
371.802	359.19
372.028	376.19
372.254	351.19
372.48	358.19
372.706	367.19
372.932	386.19
373.158	366.19
373.384	394.19
373.61	366.19
373.835	396.19
374.061	374.19
374.287	373.19
374.513	371.19
374.739	383.19
374.965	359.19
375.191	376.19
375.416	393.19
375.642	377.19
375.868	367.19
376.094	379.19
376.319	364.19
376.545	344.19
376.771	361.19
376.997	354.19
377.222	377.19
377.448	363.19
377.674	353.19
377.899	361.19
378.125	370.19
378.35	350.19
378.576	350.19
378.802	357.19
379.027	376.19
379.253	390.19
379.478	373.19
379.704	379.19
379.929	367.19
380.155	357.19
380.38	363.19
380.606	362.19
380.831	374.19
381.057	363.19
381.282	362.19
381.507	372.19
381.733	372.19
381.958	371.19
382.184	370.19
382.409	392.19
382.634	359.19
382.86	395.19
383.085	382.19
383.31	383.19
383.535	406.19
383.761	380.19
383.986	388.19
384.211	388.19
384.436	381.19
384.662	394.19
384.887	410.19
385.112	419.19
385.337	396.19
385.562	396.19
385.787	400.19
386.013	406.19
386.238	398.19
386.463	402.19
386.688	406.19
386.913	396.19
387.138	388.19
387.363	379.19
387.588	396.19
387.813	394.19
388.038	389.19
388.263	389.19
388.488	404.19
388.713	412.19
388.938	421.19
389.163	416.19
389.387	403.19
389.612	390.19
389.837	400.19
390.062	418.19
390.287	399.19
390.512	400.19
390.736	382.19
390.961	383.19
391.186	391.19
391.411	415.19
391.636	408.19
391.86	413.19
392.085	398.19
392.31	437.19
392.534	408.19
392.759	393.19
392.984	414.19
393.208	410.19
393.433	417.19
393.658	414.19
393.882	407.19
394.107	387.19
394.331	425.19
394.556	410.19
394.78	409.19
395.005	409.19
395.229	409.19
395.454	407.19
395.678	425.19
395.903	440.19
396.127	450.19
396.352	420.19
396.576	409.19
396.801	445.19
397.025	405.19
397.249	417.19
397.474	416.19
397.698	432.19
397.922	444.19
398.147	430.19
398.371	440.19
398.595	450.19
398.82	450.19
399.044	467.19
399.268	492.19
399.492	511.19
399.717	547.19
399.941	583.19
400.165	568.19
400.389	552.19
400.613	508.19
400.837	482.19
401.062	460.19
401.286	477.19
401.51	460.19
401.734	458.19
401.958	472.19
402.182	466.19
402.406	438.19
402.63	475.19
402.854	459.19
403.078	491.19
403.302	464.19
403.526	470.19
403.75	452.19
403.974	448.19
404.198	472.19
404.422	482.19
404.645	475.19
404.869	478.19
405.093	512.19
405.317	518.19
405.541	527.19
405.765	515.19
405.988	508.19
406.212	507.19
406.436	506.19
406.66	521.19
406.883	502.19
407.107	532.19
407.331	534.19
407.555	589.19
407.778	602.19
408.002	547.19
408.226	519.19
408.449	524.19
408.673	535.19
408.896	532.19
409.12	542.19
409.344	529.19
409.567	487.19
409.791	477.19
410.014	461.19
410.238	463.19
410.461	472.19
410.685	470.19
410.908	482.19
411.132	499.19
411.355	514.19
411.578	501.19
411.802	465.19
412.025	476.19
412.249	460.19
412.472	496.19
412.695	508.19
412.919	497.19
413.142	473.19
413.365	450.19
413.589	456.19
413.812	438.19
414.035	444.19
414.258	446.19
414.482	444.19
414.705	443.19
414.928	456.19
415.151	441.19
415.374	444.19
415.597	446.19
415.821	446.19
416.044	433.19
416.267	411.19
416.49	430.19
416.713	440.19
416.936	459.19
417.159	439.19
417.382	443.19
417.605	435.19
417.828	430.19
418.051	447.19
418.274	436.19
418.497	428.19
418.72	443.19
418.943	447.19
419.166	461.19
419.389	480.19
419.611	462.19
419.834	450.19
420.057	462.19
420.28	467.19
420.503	438.19
420.726	450.19
420.948	449.19
421.171	495.19
421.394	499.19
421.617	459.19
421.839	453.19
422.062	444.19
422.285	459.19
422.507	506.19
422.73	562.19
422.953	518.19
423.175	498.19
423.398	452.19
423.621	445.19
423.843	483.19
424.066	500.19
424.288	486.19
424.511	487.19
424.733	494.19
424.956	570.19
425.178	564.19
425.401	536.19
425.623	558.19
425.846	513.19
426.068	459.19
426.291	454.19
426.513	463.19
426.735	465.19
426.958	503.19
427.18	544.19
427.402	650.19
427.625	693.19
427.847	589.19
428.069	516.19
428.292	483.19
428.514	461.19
428.736	421.19
428.958	438.19
429.181	426.19
429.403	410.19
429.625	439.19
429.847	442.19
430.069	511.19
430.292	485.19
430.514	429.19
430.736	431.19
430.958	427.19
431.18	412.19
431.402	423.19
431.624	398.19
431.846	408.19
432.068	417.19
432.29	415.19
432.512	410.19
432.734	412.19
432.956	425.19
433.178	431.19
433.4	419.19
433.622	428.19
433.844	414.19
434.066	428.19
434.287	414.19
434.509	413.19
434.731	414.19
434.953	412.19
435.175	443.19
435.397	488.19
435.618	478.19
435.84	499.19
436.062	552.19
436.284	582.19
436.505	506.19
436.727	450.19
436.949	426.19
437.17	441.19
437.392	428.19
437.614	445.19
437.835	440.19
438.057	499.19
438.278	568.19
438.5	577.19
438.721	626.19
438.943	597.19
439.165	515.19
439.386	448.19
439.608	450.19
439.829	449.19
440.05	463.19
440.272	489.19
440.493	454.19
440.715	455.19
440.936	440.19
441.158	435.19
441.379	437.19
441.6	455.19
441.822	462.19
442.043	464.19
442.264	550.19
442.486	568.19
442.707	472.19
442.928	462.19
443.149	466.19
443.371	500.19
443.592	518.19
443.813	587.19
444.034	620.19
444.255	533.19
444.476	495.19
444.698	488.19
444.919	481.19
445.14	576.19
445.361	536.19
445.582	511.19
445.803	531.19
446.024	610.19
446.245	589.19
446.466	555.19
446.687	467.19
446.908	456.19
447.129	416.19
447.35	408.19
447.571	411.19
447.792	408.19
448.013	413.19
448.234	433.19
448.455	459.19
448.675	545.19
448.896	623.19
449.117	522.19
449.338	510.19
449.559	598.19
449.779	668.19
450	520.19
450.221	462.19
450.442	440.19
450.662	396.19
450.883	406.19
451.104	423.19
451.324	390.19
451.545	370.19
451.766	387.19
451.986	397.19
452.207	378.19
452.428	399.19
452.648	379.19
452.869	374.19
453.089	386.19
453.31	400.19
453.53	374.19
453.751	377.19
453.971	393.19
454.192	389.19
454.412	376.19
454.633	367.19
454.853	365.19
455.073	376.19
455.294	387.19
455.514	435.19
455.734	421.19
455.955	376.19
456.175	386.19
456.395	365.19
456.616	364.19
456.836	371.19
457.056	367.19
457.276	361.19
457.497	360.19
457.717	350.19
457.937	363.19
458.157	378.19
458.377	376.19
458.598	378.19
458.818	417.19
459.038	465.19
459.258	477.19
459.478	434.19
459.698	408.19
459.918	406.19
460.138	414.19
460.358	392.19
460.578	416.19
460.798	427.19
461.018	425.19
461.238	433.19
461.458	422.19
461.678	433.19
461.898	425.19
462.118	459.19
462.338	438.19
462.558	435.19
462.777	459.19
462.997	462.19
463.217	500.19
463.437	499.19
463.657	477.19
463.876	464.19
464.096	450.19
464.316	446.19
464.536	456.19
464.755	448.19
464.975	439.19
465.195	454.19
465.414	477.19
465.634	440.19
465.854	431.19
466.073	401.19
466.293	418.19
466.512	397.19
466.732	386.19
466.951	379.19
467.171	406.19
467.391	414.19
467.61	388.19
467.829	421.19
468.049	389.19
468.268	378.19
468.488	382.19
468.707	382.19
468.927	391.19
469.146	379.19
469.365	380.19
469.585	382.19
469.804	389.19
470.023	398.19
470.243	411.19
470.462	391.19
470.681	406.19
470.901	398.19
471.12	398.19
471.339	384.19
471.558	408.19
471.777	399.19
471.997	390.19
472.216	404.19
472.435	386.19
472.654	399.19
472.873	388.19
473.092	384.19
473.311	384.19
473.53	399.19
473.749	408.19
473.968	416.19
474.187	494.19
474.406	500.19
474.625	431.19
474.844	394.19
475.063	400.19
475.282	382.19
475.501	374.19
475.72	401.19
475.939	412.19
476.158	414.19
476.377	398.19
476.596	407.19
476.814	412.19
477.033	406.19
477.252	399.19
477.471	411.19
477.69	430.19
477.908	416.19
478.127	426.19
478.346	430.19
478.564	427.19
478.783	436.19
479.002	453.19
479.22	459.19
479.439	470.19
479.658	446.19
479.876	480.19
480.095	467.19
480.313	507.19
480.532	487.19
480.751	476.19
480.969	502.19
481.188	494.19
481.406	489.19
481.624	478.19
481.843	460.19
482.061	468.19
482.28	440.19
482.498	431.19
482.717	456.19
482.935	460.19
483.153	475.19
483.372	446.19
483.59	454.19
483.808	443.19
484.027	444.19
484.245	447.19
484.463	453.19
484.681	473.19
484.9	448.19
485.118	454.19
485.336	462.19
485.554	472.19
485.772	485.19
485.99	453.19
486.209	458.19
486.427	495.19
486.645	455.19
486.863	460.19
487.081	462.19
487.299	488.19
487.517	473.19
487.735	476.19
487.953	462.19
488.171	491.19
488.389	474.19
488.607	469.19
488.825	466.19
489.043	487.19
489.261	463.19
489.479	510.19
489.696	497.19
489.914	470.19
490.132	482.19
490.35	500.19
490.568	474.19
490.786	503.19
491.003	508.19
491.221	529.19
491.439	508.19
491.657	527.19
491.874	520.19
492.092	540.19
492.31	533.19
492.527	535.19
492.745	554.19
492.963	543.19
493.18	535.19
493.398	533.19
493.615	537.19
493.833	551.19
494.05	543.19
494.268	559.19
494.485	546.19
494.703	550.19
494.92	547.19
495.138	533.19
495.355	567.19
495.573	548.19
495.79	554.19
496.008	560.19
496.225	551.19
496.442	575.19
496.66	531.19
496.877	564.19
497.094	577.19
497.312	579.19
497.529	592.19
497.746	601.19
497.963	606.19
498.181	619.19
498.398	616.19
498.615	634.19
498.832	650.19
499.049	672.19
499.267	704.19
499.484	718.19
499.701	759.19
499.918	782.19
500.135	844.19
500.352	882.19
500.569	908.19
500.786	888.19
501.003	887.19
501.22	845.19
501.437	785.19
501.654	795.19
501.871	727.19
502.088	715.19
502.305	690.19
502.522	680.19
502.739	645.19
502.956	605.19
503.172	611.19
503.389	614.19
503.606	575.19
503.823	596.19
504.04	584.19
504.256	595.19
504.473	597.19
504.69	582.19
504.907	563.19
505.123	573.19
505.34	554.19
505.557	546.19
505.773	544.19
505.99	529.19
506.207	548.19
506.423	538.19
506.64	512.19
506.856	507.19
507.073	505.19
507.289	517.19
507.506	504.19
507.722	496.19
507.939	493.19
508.155	515.19
508.372	498.19
508.588	483.19
508.805	484.19
509.021	487.19
509.238	494.19
509.454	487.19
509.67	491.19
509.887	493.19
510.103	470.19
510.319	498.19
510.536	534.19
510.752	706.19
510.968	586.19
511.184	472.19
511.401	463.19
511.617	463.19
511.833	464.19
512.049	464.19
512.265	460.19
512.481	467.19
512.698	450.19
512.914	447.19
513.13	453.19
513.346	449.19
513.562	454.19
513.778	456.19
513.994	463.19
514.21	439.19
514.426	471.19
514.642	477.19
514.858	500.19
515.074	516.19
515.29	558.19
515.506	702.19
515.721	607.19
515.937	514.19
516.153	485.19
516.369	487.19
516.585	487.19
516.801	473.19
517.016	500.19
517.232	504.19
517.448	532.19
517.664	491.19
517.879	522.19
518.095	497.19
518.311	499.19
518.527	504.19
518.742	494.19
518.958	459.19
519.173	456.19
519.389	475.19
519.605	486.19
519.82	474.19
520.036	468.19
520.251	464.19
520.467	471.19
520.682	496.19
520.898	489.19
521.113	491.19
521.329	487.19
521.544	531.19
521.76	592.19
521.975	836.19
522.19	794.19
522.406	534.19
522.621	469.19
522.836	451.19
523.052	451.19
523.267	443.19
523.482	438.19
523.698	435.19
523.913	417.19
524.128	418.19
524.343	426.19
524.559	418.19
524.774	419.19
524.989	415.19
525.204	411.19
525.419	409.19
525.634	407.19
525.849	421.19
526.064	409.19
526.28	395.19
526.495	397.19
526.71	399.19
526.925	392.19
527.14	393.19
527.355	406.19
527.57	406.19
527.785	393.19
527.999	413.19
528.214	391.19
528.429	392.19
528.644	396.19
528.859	391.19
529.074	394.19
529.289	392.19
529.503	438.19
529.718	428.19
529.933	414.19
530.148	406.19
530.363	397.19
530.577	385.19
530.792	408.19
531.007	386.19
531.221	394.19
531.436	359.19
531.651	388.19
531.865	373.19
532.08	396.19
532.295	406.19
532.509	397.19
532.724	386.19
532.938	376.19
533.153	392.19
533.367	366.19
533.582	385.19
533.796	362.19
534.011	383.19
534.225	384.19
534.44	397.19
534.654	382.19
534.868	388.19
535.083	373.19
535.297	377.19
535.511	373.19
535.726	370.19
535.94	382.19
536.154	387.19
536.369	384.19
536.583	376.19
536.797	360.19
537.011	384.19
537.225	370.19
537.44	364.19
537.654	349.19
537.868	373.19
538.082	372.19
538.296	376.19
538.51	375.19
538.724	365.19
538.938	359.19
539.153	368.19
539.367	363.19
539.581	361.19
539.795	335.19
540.009	342.19
540.222	352.19
540.436	364.19
540.65	364.19
540.864	368.19
541.078	371.19
541.292	375.19
541.506	360.19
541.72	370.19
541.934	358.19
542.147	388.19
542.361	378.19
542.575	372.19
542.789	376.19
543.002	352.19
543.216	366.19
543.43	356.19
543.644	356.19
543.857	373.19
544.071	388.19
544.285	360.19
544.498	371.19
544.712	371.19
544.925	368.19
545.139	366.19
545.352	351.19
545.566	354.19
545.779	351.19
545.993	347.19
546.206	366.19
546.42	352.19
546.633	350.19
546.847	367.19
547.06	349.19
547.274	349.19
547.487	363.19
547.7	356.19
547.914	346.19
548.127	341.19
548.34	366.19
548.554	354.19
548.767	370.19
548.98	348.19
549.193	361.19
549.407	367.19
549.62	374.19
549.833	357.19
550.046	365.19
550.259	365.19
550.473	356.19
550.686	350.19
550.899	367.19
551.112	357.19
551.325	368.19
551.538	355.19
551.751	353.19
551.964	350.19
552.177	332.19
552.39	372.19
552.603	367.19
552.816	380.19
553.029	342.19
553.242	368.19
553.455	364.19
553.667	361.19
553.88	375.19
554.093	360.19
554.306	362.19
554.519	360.19
554.732	350.19
554.944	342.19
555.157	356.19
555.37	318.19
555.583	357.19
555.795	331.19
556.008	318.19
556.221	326.19
556.433	329.19
556.646	331.19
556.859	312.19
557.071	333.19
557.284	340.19
557.496	337.19
557.709	321.19
557.921	330.19
558.134	316.19
558.346	323.19
558.559	304.19
558.771	314.19
558.984	320.19
559.196	327.19
559.409	317.19
559.621	309.19
559.833	314.19
560.046	312.19
560.258	306.19
560.47	311.19
560.683	316.19
560.895	322.19
561.107	312.19
561.32	309.19
561.532	310.19
561.744	331.19
561.956	322.19
562.168	330.19
562.381	317.19
562.593	324.19
562.805	317.19
563.017	303.19
563.229	312.19
563.441	326.19
563.653	313.19
563.865	326.19
564.077	344.19
564.289	328.19
564.501	333.19
564.713	326.19
564.925	347.19
565.137	341.19
565.349	350.19
565.561	351.19
565.773	358.19
565.985	376.19
566.197	370.19
566.408	406.19
566.62	387.19
566.832	407.19
567.044	415.19
567.255	428.19
567.467	420.19
567.679	419.19
567.891	438.19
568.102	437.19
568.314	418.19
568.526	411.19
568.737	399.19
568.949	394.19
569.161	371.19
569.372	357.19
569.584	342.19
569.795	336.19
570.007	347.19
570.218	376.19
570.43	331.19
570.641	325.19
570.853	314.19
571.064	312.19
571.276	314.19
571.487	297.19
571.698	303.19
571.91	303.19
572.121	329.19
572.333	303.19
572.544	291.19
572.755	310.19
572.966	282.19
573.178	294.19
573.389	291.19
573.6	279.19
573.811	294.19
574.023	284.19
574.234	291.19
574.445	298.19
574.656	288.19
574.867	290.19
575.078	284.19
575.289	254.19
575.501	278.19
575.712	280.19
575.923	279.19
576.134	272.19
576.345	268.19
576.556	266.19
576.767	280.19
576.978	275.19
577.188	289.19
577.399	265.19
577.61	260.19
577.821	251.19
578.032	278.19
578.243	284.19
578.454	347.19
578.665	293.19
578.875	276.19
579.086	255.19
579.297	256.19
579.508	237.19
579.718	254.19
579.929	261.19
580.14	262.19
580.35	274.19
580.561	254.19
580.772	276.19
580.982	247.19
581.193	265.19
581.403	258.19
581.614	260.19
581.825	263.19
582.035	241.19
582.246	247.19
582.456	270.19
582.667	282.19
582.877	259.19
583.087	235.19
583.298	235.19
583.508	262.19
583.719	266.19
583.929	250.19
584.139	261.19
584.35	238.19
584.56	253.19
584.77	243.19
584.981	248.19
585.191	252.19
585.401	244.19
585.611	249.19
585.821	248.19
586.032	258.19
586.242	239.19
586.452	260.19
586.662	249.19
586.872	244.19
587.082	243.19
587.292	228.19
587.502	248.19
587.713	238.19
587.923	244.19
588.133	266.19
588.343	243.19
588.553	265.19
588.762	263.19
588.972	244.19
589.182	228.19
589.392	234.19
589.602	239.19
589.812	233.19
590.022	234.19
590.232	258.19
590.441	230.19
590.651	240.19
590.861	238.19
591.071	248.19
591.281	257.19
591.49	242.19
591.7	263.19
591.91	278.19
592.119	250.19
592.329	245.19
592.539	248.19
592.748	250.19
592.958	267.19
593.167	256.19
593.377	282.19
593.587	271.19
593.796	282.19
594.006	268.19
594.215	286.19
594.424	277.19
594.634	277.19
594.843	267.19
595.053	246.19
595.262	262.19
595.472	259.19
595.681	256.19
595.89	243.19
596.1	263.19
596.309	251.19
596.518	223.19
596.727	226.19
596.937	242.19
597.146	244.19
597.355	232.19
597.564	252.19
597.774	239.19
597.983	238.19
598.192	233.19
598.401	220.19
598.61	230.19
598.819	231.19
599.028	224.19
599.237	232.19
599.446	226.19
599.655	229.19
599.864	214.19
600.073	210.19
600.282	224.19
600.491	231.19
600.7	220.19
600.909	223.19
601.118	205.19
601.327	206.19
601.536	222.19
601.745	214.19
601.953	188.19
602.162	220.19
602.371	214.19
602.58	214.19
602.789	221.19
602.997	215.19
603.206	223.19
603.415	194.19
603.623	210.19
603.832	214.19
604.041	205.19
604.249	198.19
604.458	222.19
604.666	198.19
604.875	222.19
605.084	198.19
605.292	210.19
605.501	217.19
605.709	206.19
605.918	206.19
606.126	229.19
606.334	200.19
606.543	210.19
606.751	205.19
606.96	189.19
607.168	206.19
607.376	187.19
607.585	204.19
607.793	184.19
608.001	217.19
608.21	213.19
608.418	197.19
608.626	215.19
608.834	216.19
609.043	190.19
609.251	199.19
609.459	206.19
609.667	202.19
609.875	211.19
610.083	183.19
610.291	211.19
610.499	204.19
610.707	198.19
610.916	191.19
611.124	205.19
611.332	198.19
611.54	200.19
611.748	193.19
611.955	221.19
612.163	214.19
612.371	216.19
612.579	215.19
612.787	201.19
612.995	207.19
613.203	216.19
613.411	199.19
613.618	211.19
613.826	200.19
614.034	196.19
614.242	197.19
614.449	206.19
614.657	209.19
614.865	184.19
615.072	180.19
615.28	205.19
615.488	191.19
615.695	187.19
615.903	201.19
616.111	204.19
616.318	194.19
616.526	213.19
616.733	210.19
616.941	206.19
617.148	192.19
617.356	203.19
617.563	201.19
617.771	203.19
617.978	196.19
618.185	209.19
618.393	196.19
618.6	198.19
618.807	185.19
619.015	193.19
619.222	175.19
619.429	201.19
619.637	201.19
619.844	204.19
620.051	205.19
620.258	191.19
620.466	190.19
620.673	184.19
620.88	180.19
621.087	182.19
621.294	179.19
621.501	182.19
621.708	176.19
621.915	195.19
622.122	192.19
622.329	171.19
622.536	186.19
622.743	200.19
622.95	202.19
623.157	209.19
623.364	192.19
623.571	182.19
623.778	191.19
623.985	184.19
624.192	180.19
624.399	186.19
624.606	178.19
624.812	196.19
625.019	189.19
625.226	180.19
625.433	186.19
625.639	163.19
625.846	195.19
626.053	184.19
626.259	186.19
626.466	191.19
626.673	172.19
626.879	169.19
627.086	178.19
627.293	157.19
627.499	173.19
627.706	168.19
627.912	177.19
628.119	179.19
628.325	172.19
628.532	180.19
628.738	188.19
628.945	180.19
629.151	171.19
629.357	160.19
629.564	160.19
629.77	149.19
629.976	171.19
630.183	157.19
630.389	165.19
630.595	174.19
630.802	182.19
631.008	164.19
631.214	173.19
631.42	178.19
631.627	179.19
631.833	185.19
632.039	170.19
632.245	168.19
632.451	169.19
632.657	171.19
632.863	154.19
633.069	154.19
633.275	175.19
633.481	166.19
633.688	166.19
633.893	167.19
634.099	159.19
634.305	182.19
634.511	158.19
634.717	169.19
634.923	160.19
635.129	150.19
635.335	155.19
635.541	138.19
635.747	153.19
635.952	156.19
636.158	152.19
636.364	161.19
636.57	148.19
636.775	175.19
636.981	157.19
637.187	143.19
637.392	147.19
637.598	151.19
637.804	163.19
638.009	153.19
638.215	175.19
638.421	158.19
638.626	153.19
638.832	145.19
639.037	176.19
639.243	161.19
639.448	165.19
639.654	160.19
639.859	156.19
640.065	147.19
640.27	147.19
640.475	156.19
640.681	154.19
640.886	150.19
641.091	157.19
641.297	136.19
641.502	142.19
641.707	153.19
641.913	158.19
642.118	146.19
642.323	161.19
642.528	158.19
642.733	153.19
642.939	149.19
643.144	156.19
643.349	152.19
643.554	136.19
643.759	146.19
643.964	141.19
644.169	149.19
644.374	148.19
644.579	141.19
644.784	147.19
644.989	162.19
645.194	158.19
645.399	147.19
645.604	156.19
645.809	144.19
646.014	158.19
646.219	162.19
646.423	163.19
646.628	155.19
646.833	150.19
647.038	138.19
647.243	142.19
647.447	149.19
647.652	150.19
647.857	147.19
648.062	152.19
648.266	152.19
648.471	164.19
648.676	150.19
648.88	143.19
649.085	150.19
649.289	142.19
649.494	156.19
649.698	162.19
649.903	163.19
650.107	147.19
650.312	162.19
650.516	140.19
650.721	153.19
650.925	144.19
651.13	144.19
651.334	141.19
651.539	133.19
651.743	132.19
651.947	137.19
652.152	143.19
652.356	129.19
652.56	135.19
652.764	131.19
652.969	126.19
653.173	136.19
653.377	138.19
653.581	136.19
653.785	130.19
653.99	112.19
654.194	126.19
654.398	127.19
654.602	124.19
654.806	120.19
655.01	127.19
655.214	132.19
655.418	135.19
655.622	140.19
655.826	140.19
656.03	135.19
656.234	141.19
656.438	130.19
656.642	135.19
656.846	132.19
657.049	125.19
657.253	126.19
657.457	117.19
657.661	110.19
657.865	109.19
658.068	107.19
658.272	104.19
658.476	120.19
658.68	112.19
658.883	105.19
659.087	102.19
659.291	105.19
659.494	98.19
659.698	94.19
659.901	101.19
660.105	106.19
660.309	86.19
660.512	99.19
660.716	88.19
660.919	91.19
661.123	86.19
661.326	91.19
661.53	91.19
661.733	90.19
661.936	86.19
662.14	98.19
662.343	82.19
662.546	79.19
662.75	87.19
662.953	79.19
663.156	107.19
663.36	74.19
663.563	79.19
663.766	75.19
663.969	82.19
664.173	85.19
664.376	96.19
664.579	92.19
664.782	94.19
664.985	85.19
665.188	94.19
665.391	79.19
665.594	82.19
665.797	80.19
666	94.19
666.203	76.19
666.406	86.19
666.609	86.19
666.812	93.19
667.015	78.19
667.218	95.19
667.421	95.19
667.624	85.19
667.827	83.19
668.03	83.19
668.232	79.19
668.435	90.19
668.638	84.19
668.841	84.19
669.043	87.19
669.246	84.19
669.449	95.19
669.651	89.19
669.854	96.19
670.057	90.19
670.259	77.19
670.462	76.19
670.665	76.19
670.867	88.19
671.07	87.19
671.272	99.19
671.475	83.19
671.677	77.19
671.88	76.19
672.082	87.19
672.284	90.19
672.487	79.19
672.689	75.19
672.892	87.19
