Data from Location5.07152019.Energy5.Lamp.07192019.3%Agarose_HRD10591_15-36-49-387.txt Node
Date: Fri Jul 19 15:36:49 EDT 2019
User: cochatt
Spectrometer: HR+D1059
Trigger mode: 1
Integration Time (sec): 1.000000E-1
Scans to average: 1
Electric dark correction enabled: true
Nonlinearity correction enabled: false
Boxcar width: 0
XAxis mode: Wavelengths
Number of Pixels in Spectrum: 2048
>>>>>Begin Spectral Data<<<<<
223.165	-1
223.4	-1
223.635	-1
223.869	-17
224.104	-11
224.338	-15
224.573	-15
224.808	-9
225.042	-14
225.277	-15
225.511	-7
225.746	2
225.98	5
226.215	0
226.449	24
226.683	24
226.918	25
227.152	24
227.387	31
227.621	45
227.856	48
228.09	43
228.324	55
228.559	61
228.793	64
229.027	50
229.262	70
229.496	78
229.73	65
229.964	85
230.199	84
230.433	70
230.667	70
230.901	82
231.136	66
231.37	76
231.604	69
231.838	85
232.072	95
232.306	85
232.541	78
232.775	102
233.009	72
233.243	95
233.477	76
233.711	86
233.945	90
234.179	91
234.413	92
234.647	85
234.881	71
235.115	67
235.349	73
235.583	80
235.817	82
236.051	79
236.285	77
236.519	81
236.753	71
236.987	83
237.221	68
237.455	87
237.689	81
237.922	95
238.156	67
238.39	91
238.624	82
238.858	84
239.091	79
239.325	75
239.559	67
239.793	62
240.027	79
240.26	87
240.494	88
240.728	79
240.961	74
241.195	76
241.429	78
241.662	85
241.896	84
242.13	75
242.363	73
242.597	81
242.83	86
243.064	74
243.298	68
243.531	68
243.765	68
243.998	94
244.232	81
244.465	78
244.699	76
244.932	81
245.166	72
245.399	93
245.633	88
245.866	80
246.099	89
246.333	77
246.566	70
246.8	76
247.033	74
247.266	75
247.5	78
247.733	86
247.966	85
248.2	75
248.433	67
248.666	87
248.899	83
249.133	84
249.366	78
249.599	80
249.832	62
250.066	87
250.299	72
250.532	85
250.765	73
250.998	80
251.231	84
251.465	91
251.698	94
251.931	80
252.164	78
252.397	81
252.63	74
252.863	91
253.096	78
253.329	79
253.562	82
253.795	79
254.028	72
254.261	82
254.494	75
254.727	82
254.96	79
255.193	83
255.426	98
255.659	82
255.892	85
256.124	84
256.357	82
256.59	85
256.823	66
257.056	86
257.289	82
257.521	81
257.754	98
257.987	80
258.22	75
258.452	85
258.685	67
258.918	74
259.151	73
259.383	82
259.616	86
259.849	88
260.081	80
260.314	80
260.547	91
260.779	80
261.012	79
261.244	86
261.477	82
261.71	80
261.942	80
262.175	94
262.407	78
262.64	72
262.872	83
263.105	79
263.337	78
263.57	81
263.802	86
264.035	75
264.267	71
264.499	85
264.732	82
264.964	89
265.197	78
265.429	80
265.661	69
265.894	74
266.126	85
266.358	72
266.591	73
266.823	92
267.055	74
267.287	92
267.52	78
267.752	81
267.984	74
268.216	89
268.448	95
268.681	79
268.913	75
269.145	85
269.377	88
269.609	79
269.841	95
270.073	84
270.306	81
270.538	94
270.77	88
271.002	80
271.234	87
271.466	89
271.698	72
271.93	89
272.162	93
272.394	96
272.626	80
272.858	73
273.09	76
273.322	71
273.553	92
273.785	97
274.017	79
274.249	97
274.481	88
274.713	88
274.945	82
275.176	74
275.408	84
275.64	86
275.872	99
276.104	96
276.335	81
276.567	86
276.799	83
277.031	91
277.262	91
277.494	82
277.726	94
277.957	85
278.189	73
278.421	80
278.652	79
278.884	83
279.115	87
279.347	82
279.579	78
279.81	74
280.042	80
280.273	90
280.505	84
280.736	69
280.968	86
281.199	87
281.431	89
281.662	81
281.894	80
282.125	90
282.356	74
282.588	86
282.819	79
283.051	85
283.282	78
283.513	81
283.745	88
283.976	74
284.207	85
284.439	79
284.67	74
284.901	75
285.132	91
285.364	109
285.595	83
285.826	66
286.057	79
286.288	81
286.52	93
286.751	95
286.982	81
287.213	81
287.444	80
287.675	86
287.906	99
288.138	90
288.369	88
288.6	81
288.831	87
289.062	78
289.293	73
289.524	76
289.755	97
289.986	81
290.217	94
290.448	91
290.679	90
290.91	70
291.141	81
291.371	89
291.602	85
291.833	88
292.064	90
292.295	93
292.526	98
292.757	94
292.987	78
293.218	80
293.449	87
293.68	82
293.91	87
294.141	83
294.372	77
294.603	81
294.833	84
295.064	90
295.295	78
295.525	73
295.756	82
295.987	84
296.217	84
296.448	95
296.679	87
296.909	70
297.14	76
297.37	89
297.601	92
297.831	82
298.062	83
298.292	81
298.523	81
298.753	81
298.984	83
299.214	74
299.445	87
299.675	83
299.905	77
300.136	84
300.366	71
300.597	79
300.827	81
301.057	91
301.288	73
301.518	79
301.748	83
301.979	82
302.209	92
302.439	71
302.669	83
302.9	77
303.13	78
303.36	66
303.59	81
303.82	93
304.051	87
304.281	83
304.511	80
304.741	94
304.971	96
305.201	91
305.431	88
305.661	94
305.891	93
306.121	107
306.352	68
306.582	86
306.812	93
307.042	71
307.272	82
307.502	81
307.731	95
307.961	90
308.191	82
308.421	78
308.651	85
308.881	90
309.111	77
309.341	86
309.571	90
309.8	79
310.03	87
310.26	83
310.49	88
310.72	92
310.949	73
311.179	87
311.409	83
311.639	72
311.868	87
312.098	67
312.328	88
312.557	86
312.787	75
313.017	94
313.246	89
313.476	81
313.706	73
313.935	93
314.165	72
314.394	91
314.624	86
314.853	77
315.083	89
315.312	91
315.542	79
315.771	81
316.001	95
316.23	88
316.46	73
316.689	80
316.919	89
317.148	89
317.377	89
317.607	96
317.836	90
318.065	75
318.295	72
318.524	89
318.753	81
318.983	70
319.212	93
319.441	92
319.67	100
319.9	80
320.129	86
320.358	79
320.587	80
320.816	89
321.046	84
321.275	96
321.504	83
321.733	92
321.962	82
322.191	79
322.42	84
322.649	90
322.878	101
323.108	91
323.337	83
323.566	102
323.795	103
324.024	79
324.253	77
324.482	95
324.71	74
324.939	97
325.168	93
325.397	70
325.626	83
325.855	80
326.084	89
326.313	71
326.542	85
326.77	70
326.999	70
327.228	87
327.457	88
327.686	82
327.914	99
328.143	91
328.372	85
328.6	85
328.829	78
329.058	66
329.287	78
329.515	80
329.744	89
329.972	82
330.201	87
330.43	92
330.658	89
330.887	77
331.115	83
331.344	87
331.572	69
331.801	71
332.03	91
332.258	91
332.486	90
332.715	86
332.943	91
333.172	85
333.4	72
333.629	82
333.857	75
334.085	88
334.314	90
334.542	96
334.771	82
334.999	88
335.227	86
335.455	86
335.684	103
335.912	88
336.14	76
336.369	73
336.597	74
336.825	97
337.053	94
337.281	82
337.51	82
337.738	79
337.966	87
338.194	83
338.422	86
338.65	92
338.878	94
339.106	83
339.334	86
339.562	98
339.79	77
340.018	72
340.246	81
340.474	79
340.702	88
340.93	82
341.158	66
341.386	86
341.614	78
341.842	84
342.07	89
342.298	79
342.526	92
342.754	79
342.981	73
343.209	85
343.437	82
343.665	87
343.893	90
344.12	95
344.348	76
344.576	78
344.804	95
345.031	74
345.259	96
345.487	89
345.714	93
345.942	85
346.17	91
346.397	82
346.625	85
346.853	70
347.08	92
347.308	103
347.535	87
347.763	75
347.99	77
348.218	81
348.445	64
348.673	83
348.9	92
349.128	86
349.355	83
349.583	89
349.81	88
350.037	82
350.265	85
350.492	66
350.72	73
350.947	81
351.174	98
351.402	101
351.629	86
351.856	82
352.083	74
352.311	81
352.538	76
352.765	72
352.992	87
353.22	85
353.447	93
353.674	88
353.901	81
354.128	76
354.355	86
354.583	81
354.81	81
355.037	94
355.264	97
355.491	90
355.718	87
355.945	81
356.172	86
356.399	91
356.626	68
356.853	79
357.08	84
357.307	81
357.534	81
357.761	87
357.988	70
358.215	84
358.441	86
358.668	79
358.895	75
359.122	87
359.349	74
359.576	78
359.802	93
360.029	78
360.256	77
360.483	86
360.709	76
360.936	97
361.163	85
361.39	79
361.616	91
361.843	69
362.07	88
362.296	92
362.523	90
362.749	87
362.976	89
363.203	80
363.429	79
363.656	90
363.882	81
364.109	97
364.335	76
364.562	79
364.788	67
365.015	81
365.241	82
365.468	85
365.694	88
365.92	74
366.147	79
366.373	82
366.599	79
366.826	85
367.052	78
367.278	92
367.505	81
367.731	81
367.957	81
368.184	86
368.41	81
368.636	76
368.862	82
369.089	83
369.315	83
369.541	105
369.767	81
369.993	85
370.219	79
370.445	65
370.672	74
370.898	87
371.124	84
371.35	71
371.576	88
371.802	82
372.028	85
372.254	90
372.48	71
372.706	81
372.932	77
373.158	81
373.384	80
373.61	86
373.835	77
374.061	85
374.287	84
374.513	83
374.739	86
374.965	89
375.191	81
375.416	78
375.642	85
375.868	90
376.094	82
376.319	77
376.545	104
376.771	91
376.997	71
377.222	86
377.448	88
377.674	84
377.899	79
378.125	91
378.35	88
378.576	77
378.802	84
379.027	79
379.253	89
379.478	93
379.704	76
379.929	77
380.155	77
380.38	83
380.606	78
380.831	90
381.057	95
381.282	91
381.507	87
381.733	83
381.958	73
382.184	88
382.409	97
382.634	85
382.86	78
383.085	84
383.31	89
383.535	85
383.761	80
383.986	93
384.211	71
384.436	91
384.662	80
384.887	78
385.112	103
385.337	82
385.562	87
385.787	87
386.013	92
386.238	75
386.463	61
386.688	80
386.913	78
387.138	88
387.363	85
387.588	91
387.813	81
388.038	89
388.263	94
388.488	91
388.713	102
388.938	78
389.163	85
389.387	72
389.612	96
389.837	83
390.062	85
390.287	98
390.512	85
390.736	66
390.961	86
391.186	79
391.411	78
391.636	91
391.86	77
392.085	74
392.31	83
392.534	90
392.759	81
392.984	90
393.208	93
393.433	106
393.658	90
393.882	87
394.107	91
394.331	80
394.556	79
394.78	84
395.005	84
395.229	75
395.454	90
395.678	85
395.903	97
396.127	85
396.352	84
396.576	74
396.801	96
397.025	73
397.249	83
397.474	89
397.698	86
397.922	88
398.147	85
398.371	80
398.595	90
398.82	97
399.044	83
399.268	89
399.492	76
399.717	74
399.941	74
400.165	89
400.389	87
400.613	96
400.837	81
401.062	90
401.286	87
401.51	73
401.734	70
401.958	81
402.182	83
402.406	100
402.63	67
402.854	90
403.078	83
403.302	91
403.526	75
403.75	97
403.974	99
404.198	93
404.422	86
404.645	87
404.869	93
405.093	74
405.317	89
405.541	90
405.765	98
405.988	89
406.212	87
406.436	75
406.66	97
406.883	84
407.107	90
407.331	88
407.555	104
407.778	86
408.002	97
408.226	85
408.449	87
408.673	89
408.896	96
409.12	92
409.344	94
409.567	92
409.791	88
410.014	94
410.238	81
410.461	95
410.685	87
410.908	88
411.132	70
411.355	90
411.578	88
411.802	89
412.025	84
412.249	81
412.472	81
412.695	99
412.919	90
413.142	82
413.365	97
413.589	85
413.812	78
414.035	96
414.258	76
414.482	89
414.705	87
414.928	88
415.151	94
415.374	84
415.597	90
415.821	102
416.044	95
416.267	85
416.49	102
416.713	98
416.936	83
417.159	90
417.382	88
417.605	99
417.828	95
418.051	93
418.274	97
418.497	90
418.72	92
418.943	93
419.166	88
419.389	89
419.611	91
419.834	88
420.057	90
420.28	85
420.503	101
420.726	93
420.948	93
421.171	97
421.394	99
421.617	83
421.839	96
422.062	93
422.285	93
422.507	78
422.73	88
422.953	85
423.175	92
423.398	98
423.621	102
423.843	98
424.066	83
424.288	94
424.511	90
424.733	90
424.956	105
425.178	90
425.401	97
425.623	94
425.846	86
426.068	88
426.291	86
426.513	101
426.735	88
426.958	96
427.18	83
427.402	80
427.625	97
427.847	88
428.069	86
428.292	87
428.514	83
428.736	80
428.958	76
429.181	88
429.403	112
429.625	99
429.847	94
430.069	107
430.292	86
430.514	85
430.736	98
430.958	97
431.18	103
431.402	96
431.624	98
431.846	80
432.068	74
432.29	86
432.512	102
432.734	91
432.956	93
433.178	104
433.4	104
433.622	103
433.844	106
434.066	83
434.287	84
434.509	80
434.731	90
434.953	84
435.175	91
435.397	91
435.618	100
435.84	80
436.062	91
436.284	86
436.505	86
436.727	86
436.949	89
437.17	95
437.392	87
437.614	85
437.835	76
438.057	79
438.278	97
438.5	112
438.721	89
438.943	101
439.165	89
439.386	66
439.608	93
439.829	101
440.05	100
440.272	89
440.493	101
440.715	93
440.936	96
441.158	90
441.379	95
441.6	98
441.822	96
442.043	87
442.264	85
442.486	88
442.707	107
442.928	97
443.149	104
443.371	112
443.592	89
443.813	94
444.034	92
444.255	88
444.476	101
444.698	76
444.919	87
445.14	222
445.361	166
445.582	104
445.803	107
446.024	95
446.245	116
446.466	105
446.687	98
446.908	99
447.129	89
447.35	101
447.571	95
447.792	96
448.013	91
448.234	93
448.455	97
448.675	94
448.896	96
449.117	97
449.338	88
449.559	101
449.779	102
450	82
450.221	88
450.442	99
450.662	102
450.883	84
451.104	96
451.324	102
451.545	100
451.766	102
451.986	104
452.207	99
452.428	85
452.648	98
452.869	93
453.089	94
453.31	78
453.53	90
453.751	85
453.971	74
454.192	79
454.412	91
454.633	87
454.853	83
455.073	87
455.294	78
455.514	74
455.734	82
455.955	93
456.175	87
456.395	86
456.616	91
456.836	89
457.056	95
457.276	93
457.497	98
457.717	91
457.937	90
458.157	83
458.377	82
458.598	86
458.818	83
459.038	85
459.258	79
459.478	76
459.698	87
459.918	84
460.138	82
460.358	88
460.578	88
460.798	76
461.018	93
461.238	78
461.458	93
461.678	78
461.898	105
462.118	80
462.338	101
462.558	96
462.777	94
462.997	87
463.217	80
463.437	84
463.657	83
463.876	87
464.096	83
464.316	86
464.536	90
464.755	93
464.975	86
465.195	95
465.414	82
465.634	94
465.854	85
466.073	85
466.293	79
466.512	95
466.732	90
466.951	91
467.171	84
467.391	89
467.61	104
467.829	88
468.049	90
468.268	81
468.488	90
468.707	97
468.927	91
469.146	82
469.365	82
469.585	94
469.804	88
470.023	89
470.243	95
470.462	91
470.681	109
470.901	81
471.12	105
471.339	98
471.558	98
471.777	91
471.997	99
472.216	97
472.435	98
472.654	87
472.873	100
473.092	85
473.311	86
473.53	97
473.749	89
473.968	82
474.187	97
474.406	90
474.625	86
474.844	102
475.063	99
475.282	94
475.501	81
475.72	100
475.939	88
476.158	82
476.377	91
476.596	93
476.814	87
477.033	109
477.252	85
477.471	80
477.69	101
477.908	101
478.127	106
478.346	107
478.564	93
478.783	99
479.002	97
479.22	91
479.439	95
479.658	84
479.876	99
480.095	86
480.313	86
480.532	77
480.751	84
480.969	80
481.188	85
481.406	83
481.624	85
481.843	74
482.061	84
482.28	84
482.498	90
482.717	83
482.935	88
483.153	91
483.372	93
483.59	93
483.808	99
484.027	91
484.245	102
484.463	111
484.681	105
484.9	89
485.118	91
485.336	79
485.554	93
485.772	89
485.99	93
486.209	95
486.427	72
486.645	86
486.863	95
487.081	100
487.299	104
487.517	98
487.735	104
487.953	121
488.171	114
488.389	110
488.607	106
488.825	109
489.043	93
489.261	101
489.479	91
489.696	95
489.914	92
490.132	105
490.35	103
490.568	111
490.786	98
491.003	107
491.221	94
491.439	98
491.657	95
491.874	124
492.092	122
492.31	117
492.527	109
492.745	114
492.963	110
493.18	101
493.398	108
493.615	111
493.833	89
494.05	101
494.268	98
494.485	100
494.703	106
494.92	98
495.138	114
495.355	91
495.573	120
495.79	116
496.008	106
496.225	101
496.442	100
496.66	107
496.877	104
497.094	105
497.312	110
497.529	114
497.746	104
497.963	89
498.181	93
498.398	81
498.615	87
498.832	82
499.049	77
499.267	95
499.484	102
499.701	85
499.918	90
500.135	108
500.352	102
500.569	89
500.786	102
501.003	98
501.22	111
501.437	105
501.654	96
501.871	97
502.088	107
502.305	86
502.522	94
502.739	95
502.956	94
503.172	89
503.389	106
503.606	86
503.823	90
504.04	85
504.256	76
504.473	100
504.69	81
504.907	106
505.123	77
505.34	74
505.557	100
505.773	83
505.99	86
506.207	98
506.423	101
506.64	91
506.856	100
507.073	98
507.289	101
507.506	97
507.722	87
507.939	83
508.155	98
508.372	94
508.588	89
508.805	93
509.021	88
509.238	88
509.454	97
509.67	83
509.887	86
510.103	85
510.319	80
510.536	86
510.752	90
510.968	94
511.184	85
511.401	83
511.617	84
511.833	91
512.049	73
512.265	95
512.481	89
512.698	81
512.914	90
513.13	84
513.346	73
513.562	95
513.778	72
513.994	83
514.21	89
514.426	87
514.642	75
514.858	87
515.074	80
515.29	110
515.506	92
515.721	84
515.937	91
516.153	77
516.369	95
516.585	98
516.801	102
517.016	82
517.232	75
517.448	80
517.664	69
517.879	87
518.095	98
518.311	94
518.527	87
518.742	95
518.958	79
519.173	89
519.389	94
519.605	91
519.82	89
520.036	86
520.251	99
520.467	83
520.682	83
520.898	77
521.113	91
521.329	83
521.544	88
521.76	98
521.975	84
522.19	83
522.406	83
522.621	87
522.836	82
523.052	75
523.267	106
523.482	105
523.698	90
523.913	94
524.128	90
524.343	82
524.559	81
524.774	96
524.989	82
525.204	93
525.419	90
525.634	95
525.849	92
526.064	80
526.28	92
526.495	83
526.71	98
526.925	93
527.14	94
527.355	72
527.57	73
527.785	96
527.999	94
528.214	95
528.429	93
528.644	104
528.859	99
529.074	102
529.289	87
529.503	75
529.718	87
529.933	95
530.148	79
530.363	106
530.577	83
530.792	82
531.007	97
531.221	94
531.436	102
531.651	90
531.865	74
532.08	81
532.295	82
532.509	69
532.724	85
532.938	82
533.153	85
533.367	89
533.582	91
533.796	99
534.011	93
534.225	88
534.44	77
534.654	94
534.868	84
535.083	87
535.297	76
535.511	92
535.726	90
535.94	92
536.154	101
536.369	88
536.583	97
536.797	81
537.011	92
537.225	88
537.44	85
537.654	82
537.868	75
538.082	74
538.296	85
538.51	81
538.724	91
538.938	89
539.153	80
539.367	98
539.581	88
539.795	88
540.009	79
540.222	87
540.436	81
540.65	102
540.864	91
541.078	106
541.292	112
541.506	113
541.72	103
541.934	114
542.147	109
542.361	103
542.575	98
542.789	106
543.002	93
543.216	99
543.43	104
543.644	96
543.857	93
544.071	96
544.285	95
544.498	100
544.712	93
544.925	114
545.139	113
545.352	106
545.566	118
545.779	101
545.993	112
546.206	115
546.42	104
546.633	112
546.847	106
547.06	111
547.274	105
547.487	122
547.7	120
547.914	103
548.127	102
548.34	103
548.554	98
548.767	106
548.98	112
549.193	112
549.407	100
549.62	96
549.833	102
550.046	96
550.259	108
550.473	99
550.686	107
550.899	95
551.112	119
551.325	101
551.538	114
551.751	87
551.964	106
552.177	89
552.39	93
552.603	99
552.816	87
553.029	94
553.242	87
553.455	105
553.667	102
553.88	102
554.093	103
554.306	110
554.519	95
554.732	90
554.944	98
555.157	107
555.37	98
555.583	103
555.795	99
556.008	105
556.221	95
556.433	92
556.646	97
556.859	103
557.071	94
557.284	114
557.496	101
557.709	99
557.921	90
558.134	110
558.346	93
558.559	98
558.771	96
558.984	78
559.196	97
559.409	104
559.621	93
559.833	91
560.046	97
560.258	94
560.47	104
560.683	103
560.895	99
561.107	87
561.32	93
561.532	90
561.744	98
561.956	91
562.168	100
562.381	91
562.593	96
562.805	99
563.017	106
563.229	83
563.441	95
563.653	92
563.865	93
564.077	98
564.289	96
564.501	91
564.713	97
564.925	109
565.137	96
565.349	105
565.561	101
565.773	85
565.985	88
566.197	78
566.408	93
566.62	97
566.832	95
567.044	96
567.255	90
567.467	85
567.679	85
567.891	86
568.102	89
568.314	86
568.526	84
568.737	76
568.949	82
569.161	85
569.372	80
569.584	86
569.795	85
570.007	94
570.218	79
570.43	73
570.641	86
570.853	80
571.064	96
571.276	87
571.487	97
571.698	88
571.91	92
572.121	83
572.333	78
572.544	89
572.755	88
572.966	75
573.178	89
573.389	86
573.6	72
573.811	76
574.023	91
574.234	69
574.445	85
574.656	90
574.867	86
575.078	89
575.289	92
575.501	77
575.712	74
575.923	77
576.134	91
576.345	86
576.556	86
576.767	71
576.978	87
577.188	86
577.399	93
577.61	91
577.821	88
578.032	88
578.243	80
578.454	89
578.665	83
578.875	83
579.086	83
579.297	87
579.508	96
579.718	83
579.929	102
580.14	97
580.35	96
580.561	85
580.772	75
580.982	95
581.193	89
581.403	100
581.614	85
581.825	85
582.035	81
582.246	95
582.456	83
582.667	86
582.877	85
583.087	90
583.298	90
583.508	89
583.719	98
583.929	78
584.139	87
584.35	104
584.56	97
584.77	91
584.981	84
585.191	98
585.401	89
585.611	93
585.821	89
586.032	99
586.242	82
586.452	91
586.662	78
586.872	87
587.082	91
587.292	88
587.502	85
587.713	91
587.923	72
588.133	70
588.343	64
588.553	81
588.762	78
588.972	89
589.182	81
589.392	93
589.602	88
589.812	87
590.022	86
590.232	93
590.441	65
590.651	85
590.861	85
591.071	87
591.281	98
591.49	79
591.7	100
591.91	95
592.119	87
592.329	89
592.539	81
592.748	95
592.958	80
593.167	82
593.377	79
593.587	95
593.796	88
594.006	84
594.215	77
594.424	85
594.634	74
594.843	91
595.053	79
595.262	88
595.472	98
595.681	92
595.89	85
596.1	101
596.309	75
596.518	80
596.727	90
596.937	87
597.146	82
597.355	92
597.564	95
597.774	85
597.983	81
598.192	76
598.401	86
598.61	92
598.819	73
599.028	92
599.237	89
599.446	97
599.655	87
599.864	92
600.073	91
600.282	97
600.491	90
600.7	77
600.909	88
601.118	92
601.327	83
601.536	88
601.745	89
601.953	87
602.162	99
602.371	86
602.58	76
602.789	88
602.997	78
603.206	87
603.415	96
603.623	94
603.832	87
604.041	84
604.249	82
604.458	75
604.666	84
604.875	73
605.084	96
605.292	93
605.501	104
605.709	98
605.918	99
606.126	97
606.334	89
606.543	94
606.751	94
606.96	94
607.168	83
607.376	87
607.585	81
607.793	89
608.001	90
608.21	88
608.418	80
608.626	93
608.834	91
609.043	98
609.251	98
609.459	98
609.667	98
609.875	93
610.083	98
610.291	93
610.499	93
610.707	82
610.916	94
611.124	92
611.332	89
611.54	96
611.748	87
611.955	101
612.163	83
612.371	106
612.579	96
612.787	86
612.995	98
613.203	90
613.411	97
613.618	82
613.826	83
614.034	94
614.242	89
614.449	81
614.657	95
614.865	94
615.072	96
615.28	96
615.488	101
615.695	91
615.903	87
616.111	85
616.318	94
616.526	96
616.733	90
616.941	89
617.148	104
617.356	93
617.563	96
617.771	93
617.978	91
618.185	98
618.393	92
618.6	99
618.807	93
619.015	80
619.222	91
619.429	82
619.637	93
619.844	94
620.051	88
620.258	76
620.466	93
620.673	91
620.88	78
621.087	87
621.294	83
621.501	100
621.708	86
621.915	93
622.122	97
622.329	107
622.536	86
622.743	97
622.95	85
623.157	90
623.364	86
623.571	102
623.778	84
623.985	81
624.192	101
624.399	95
624.606	99
624.812	98
625.019	92
625.226	87
625.433	97
625.639	82
625.846	86
626.053	101
626.259	96
626.466	73
626.673	91
626.879	73
627.086	92
627.293	106
627.499	83
627.706	78
627.912	100
628.119	85
628.325	83
628.532	91
628.738	93
628.945	93
629.151	111
629.357	95
629.564	77
629.77	80
629.976	89
630.183	81
630.389	94
630.595	83
630.802	96
631.008	73
631.214	90
631.42	89
631.627	88
631.833	96
632.039	99
632.245	87
632.451	82
632.657	98
632.863	97
633.069	84
633.275	84
633.481	97
633.688	85
633.893	81
634.099	81
634.305	101
634.511	81
634.717	82
634.923	99
635.129	106
635.335	89
635.541	92
635.747	78
635.952	82
636.158	87
636.364	98
636.57	89
636.775	86
636.981	78
637.187	86
637.392	92
637.598	91
637.804	73
638.009	82
638.215	86
638.421	85
638.626	84
638.832	89
639.037	78
639.243	93
639.448	70
639.654	97
639.859	84
640.065	85
640.27	81
640.475	82
640.681	75
640.886	83
641.091	83
641.297	98
641.502	85
641.707	97
641.913	80
642.118	71
642.323	89
642.528	87
642.733	105
642.939	96
643.144	91
643.349	90
643.554	86
643.759	79
643.964	87
644.169	84
644.374	87
644.579	89
644.784	91
644.989	83
645.194	96
645.399	93
645.604	86
645.809	75
646.014	91
646.219	87
646.423	85
646.628	104
646.833	95
647.038	83
647.243	86
647.447	90
647.652	79
647.857	92
648.062	86
648.266	81
648.471	93
648.676	79
648.88	83
649.085	81
649.289	91
649.494	94
649.698	93
649.903	97
650.107	101
650.312	89
650.516	83
650.721	84
650.925	85
651.13	85
651.334	94
651.539	86
651.743	88
651.947	93
652.152	78
652.356	81
652.56	81
652.764	81
652.969	94
653.173	101
653.377	89
653.581	90
653.785	74
653.99	76
654.194	79
654.398	83
654.602	80
654.806	98
655.01	97
655.214	90
655.418	103
655.622	81
655.826	82
656.03	79
656.234	86
656.438	82
656.642	100
656.846	84
657.049	71
657.253	71
657.457	78
657.661	73
657.865	85
658.068	79
658.272	90
658.476	83
658.68	75
658.883	88
659.087	96
659.291	98
659.494	94
659.698	89
659.901	84
660.105	83
660.309	101
660.512	94
660.716	72
660.919	75
661.123	90
661.326	88
661.53	87
661.733	85
661.936	82
662.14	83
662.343	78
662.546	83
662.75	74
662.953	78
663.156	95
663.36	69
663.563	86
663.766	82
663.969	74
664.173	84
664.376	79
664.579	73
664.782	88
664.985	96
665.188	74
665.391	88
665.594	74
665.797	103
666	79
666.203	88
666.406	84
666.609	79
666.812	76
667.015	84
667.218	83
667.421	90
667.624	87
667.827	100
668.03	91
668.232	67
668.435	87
668.638	79
668.841	96
669.043	72
669.246	83
669.449	81
669.651	82
669.854	81
670.057	93
670.259	69
670.462	70
670.665	96
670.867	81
671.07	79
671.272	81
671.475	77
671.677	89
671.88	84
672.082	74
672.284	81
672.487	80
672.689	88
672.892	83
