Data from Location5.07152019.Energy5.Lamp.07192019.3%Agarose_HRD10591_16-05-31-629.txt Node
Date: Fri Jul 19 16:05:31 EDT 2019
User: cochatt
Spectrometer: HR+D1059
Trigger mode: 1
Integration Time (sec): 1.000000E-1
Scans to average: 1
Electric dark correction enabled: true
Nonlinearity correction enabled: false
Boxcar width: 0
XAxis mode: Wavelengths
Number of Pixels in Spectrum: 2048
>>>>>Begin Spectral Data<<<<<
223.165	-7
223.4	-7
223.635	-7
223.869	-25
224.104	-8
224.338	-21
224.573	-14
224.808	-22
225.042	-11
225.277	-12
225.511	8
225.746	-4
225.98	3
226.215	12
226.449	25
226.683	9
226.918	35
227.152	32
227.387	31
227.621	46
227.856	53
228.09	50
228.324	48
228.559	57
228.793	57
229.027	54
229.262	60
229.496	53
229.73	72
229.964	76
230.199	82
230.433	78
230.667	82
230.901	83
231.136	75
231.37	87
231.604	86
231.838	72
232.072	70
232.306	79
232.541	87
232.775	90
233.009	85
233.243	82
233.477	89
233.711	97
233.945	97
234.179	77
234.413	88
234.647	96
234.881	89
235.115	82
235.349	94
235.583	96
235.817	90
236.051	83
236.285	83
236.519	85
236.753	73
236.987	76
237.221	87
237.455	87
237.689	77
237.922	77
238.156	69
238.39	82
238.624	82
238.858	68
239.091	70
239.325	83
239.559	73
239.793	62
240.027	99
240.26	85
240.494	89
240.728	76
240.961	67
241.195	76
241.429	84
241.662	96
241.896	81
242.13	83
242.363	79
242.597	97
242.83	71
243.064	80
243.298	75
243.531	70
243.765	86
243.998	77
244.232	73
244.465	78
244.699	75
244.932	84
245.166	82
245.399	88
245.633	71
245.866	88
246.099	69
246.333	88
246.566	74
246.8	65
247.033	74
247.266	82
247.5	88
247.733	88
247.966	89
248.2	94
248.433	87
248.666	70
248.899	64
249.133	86
249.366	91
249.599	85
249.832	82
250.066	99
250.299	76
250.532	83
250.765	77
250.998	97
251.231	78
251.465	74
251.698	93
251.931	78
252.164	81
252.397	86
252.63	97
252.863	86
253.096	72
253.329	86
253.562	84
253.795	77
254.028	78
254.261	81
254.494	92
254.727	86
254.96	78
255.193	89
255.426	76
255.659	85
255.892	99
256.124	78
256.357	84
256.59	78
256.823	85
257.056	81
257.289	95
257.521	96
257.754	68
257.987	76
258.22	82
258.452	77
258.685	82
258.918	76
259.151	87
259.383	96
259.616	87
259.849	76
260.081	90
260.314	73
260.547	81
260.779	77
261.012	85
261.244	101
261.477	83
261.71	90
261.942	84
262.175	90
262.407	78
262.64	91
262.872	75
263.105	84
263.337	97
263.57	88
263.802	88
264.035	88
264.267	81
264.499	86
264.732	79
264.964	91
265.197	81
265.429	85
265.661	76
265.894	94
266.126	90
266.358	92
266.591	89
266.823	86
267.055	84
267.287	85
267.52	100
267.752	86
267.984	85
268.216	73
268.448	77
268.681	75
268.913	83
269.145	93
269.377	81
269.609	81
269.841	81
270.073	95
270.306	82
270.538	90
270.77	73
271.002	83
271.234	80
271.466	74
271.698	89
271.93	89
272.162	93
272.394	88
272.626	78
272.858	78
273.09	94
273.322	82
273.553	82
273.785	72
274.017	85
274.249	89
274.481	89
274.713	101
274.945	93
275.176	79
275.408	84
275.64	93
275.872	90
276.104	89
276.335	81
276.567	96
276.799	82
277.031	89
277.262	89
277.494	77
277.726	91
277.957	94
278.189	79
278.421	91
278.652	109
278.884	85
279.115	85
279.347	83
279.579	94
279.81	92
280.042	88
280.273	88
280.505	84
280.736	89
280.968	82
281.199	94
281.431	101
281.662	85
281.894	87
282.125	84
282.356	79
282.588	86
282.819	78
283.051	84
283.282	92
283.513	106
283.745	106
283.976	84
284.207	102
284.439	84
284.67	85
284.901	85
285.132	81
285.364	81
285.595	89
285.826	79
286.057	88
286.288	83
286.52	85
286.751	94
286.982	89
287.213	81
287.444	82
287.675	84
287.906	84
288.138	92
288.369	101
288.6	92
288.831	82
289.062	82
289.293	97
289.524	78
289.755	93
289.986	82
290.217	108
290.448	79
290.679	100
290.91	91
291.141	91
291.371	101
291.602	88
291.833	88
292.064	104
292.295	100
292.526	87
292.757	93
292.987	98
293.218	92
293.449	95
293.68	84
293.91	83
294.141	85
294.372	91
294.603	85
294.833	98
295.064	86
295.295	89
295.525	82
295.756	104
295.987	86
296.217	80
296.448	88
296.679	91
296.909	92
297.14	93
297.37	86
297.601	93
297.831	80
298.062	84
298.292	106
298.523	93
298.753	93
298.984	94
299.214	91
299.445	100
299.675	89
299.905	92
300.136	97
300.366	91
300.597	101
300.827	92
301.057	86
301.288	89
301.518	90
301.748	87
301.979	105
302.209	87
302.439	98
302.669	87
302.9	92
303.13	97
303.36	107
303.59	88
303.82	74
304.051	76
304.281	96
304.511	89
304.741	96
304.971	79
305.201	101
305.431	94
305.661	89
305.891	83
306.121	104
306.352	92
306.582	94
306.812	81
307.042	87
307.272	86
307.502	85
307.731	91
307.961	93
308.191	81
308.421	84
308.651	101
308.881	98
309.111	94
309.341	99
309.571	88
309.8	98
310.03	84
310.26	89
310.49	99
310.72	93
310.949	93
311.179	98
311.409	91
311.639	104
311.868	85
312.098	82
312.328	93
312.557	95
312.787	87
313.017	87
313.246	90
313.476	82
313.706	84
313.935	90
314.165	88
314.394	89
314.624	78
314.853	97
315.083	75
315.312	88
315.542	100
315.771	90
316.001	97
316.23	82
316.46	93
316.689	98
316.919	91
317.148	77
317.377	85
317.607	101
317.836	92
318.065	84
318.295	86
318.524	102
318.753	88
318.983	87
319.212	92
319.441	82
319.67	90
319.9	100
320.129	91
320.358	97
320.587	101
320.816	91
321.046	84
321.275	88
321.504	78
321.733	82
321.962	100
322.191	100
322.42	89
322.649	71
322.878	97
323.108	94
323.337	88
323.566	93
323.795	94
324.024	94
324.253	98
324.482	93
324.71	96
324.939	97
325.168	100
325.397	82
325.626	106
325.855	94
326.084	101
326.313	99
326.542	100
326.77	100
326.999	99
327.228	102
327.457	91
327.686	99
327.914	76
328.143	91
328.372	96
328.6	98
328.829	96
329.058	79
329.287	93
329.515	97
329.744	99
329.972	91
330.201	89
330.43	76
330.658	83
330.887	88
331.115	103
331.344	111
331.572	100
331.801	87
332.03	87
332.258	97
332.486	91
332.715	85
332.943	102
333.172	98
333.4	91
333.629	94
333.857	92
334.085	70
334.314	94
334.542	80
334.771	106
334.999	106
335.227	86
335.455	107
335.684	110
335.912	92
336.14	85
336.369	94
336.597	78
336.825	93
337.053	80
337.281	97
337.51	98
337.738	92
337.966	96
338.194	87
338.422	108
338.65	77
338.878	104
339.106	90
339.334	94
339.562	90
339.79	97
340.018	90
340.246	96
340.474	88
340.702	100
340.93	98
341.158	101
341.386	89
341.614	99
341.842	98
342.07	94
342.298	99
342.526	89
342.754	84
342.981	91
343.209	96
343.437	101
343.665	83
343.893	80
344.12	94
344.348	93
344.576	88
344.804	92
345.031	86
345.259	91
345.487	87
345.714	98
345.942	95
346.17	89
346.397	101
346.625	90
346.853	102
347.08	93
347.308	86
347.535	95
347.763	96
347.99	102
348.218	86
348.445	94
348.673	101
348.9	93
349.128	104
349.355	98
349.583	101
349.81	83
350.037	87
350.265	100
350.492	103
350.72	99
350.947	91
351.174	103
351.402	95
351.629	91
351.856	85
352.083	81
352.311	101
352.538	82
352.765	73
352.992	92
353.22	98
353.447	84
353.674	84
353.901	90
354.128	89
354.355	85
354.583	92
354.81	88
355.037	84
355.264	84
355.491	83
355.718	94
355.945	103
356.172	85
356.399	92
356.626	85
356.853	88
357.08	94
357.307	91
357.534	93
357.761	94
357.988	74
358.215	105
358.441	96
358.668	98
358.895	90
359.122	88
359.349	90
359.576	93
359.802	100
360.029	89
360.256	77
360.483	95
360.709	86
360.936	100
361.163	93
361.39	97
361.616	90
361.843	84
362.07	84
362.296	78
362.523	86
362.749	101
362.976	79
363.203	101
363.429	85
363.656	105
363.882	85
364.109	97
364.335	100
364.562	89
364.788	100
365.015	92
365.241	94
365.468	93
365.694	89
365.92	88
366.147	91
366.373	87
366.599	96
366.826	93
367.052	96
367.278	92
367.505	92
367.731	94
367.957	91
368.184	96
368.41	93
368.636	87
368.862	89
369.089	90
369.315	94
369.541	88
369.767	93
369.993	98
370.219	75
370.445	83
370.672	96
370.898	88
371.124	93
371.35	88
371.576	88
371.802	89
372.028	99
372.254	84
372.48	97
372.706	104
372.932	98
373.158	86
373.384	86
373.61	94
373.835	92
374.061	93
374.287	100
374.513	86
374.739	96
374.965	101
375.191	103
375.416	95
375.642	100
375.868	94
376.094	95
376.319	87
376.545	78
376.771	90
376.997	99
377.222	98
377.448	100
377.674	106
377.899	102
378.125	95
378.35	101
378.576	104
378.802	119
379.027	97
379.253	86
379.478	91
379.704	95
379.929	107
380.155	89
380.38	100
380.606	93
380.831	91
381.057	79
381.282	83
381.507	105
381.733	87
381.958	80
382.184	81
382.409	85
382.634	96
382.86	84
383.085	85
383.31	95
383.535	95
383.761	94
383.986	91
384.211	97
384.436	97
384.662	90
384.887	94
385.112	96
385.337	89
385.562	105
385.787	100
386.013	105
386.238	96
386.463	84
386.688	98
386.913	101
387.138	94
387.363	86
387.588	96
387.813	90
388.038	96
388.263	88
388.488	95
388.713	99
388.938	88
389.163	78
389.387	93
389.612	94
389.837	95
390.062	89
390.287	88
390.512	78
390.736	81
390.961	82
391.186	99
391.411	91
391.636	86
391.86	99
392.085	100
392.31	98
392.534	100
392.759	94
392.984	86
393.208	92
393.433	81
393.658	88
393.882	94
394.107	95
394.331	100
394.556	94
394.78	84
395.005	92
395.229	83
395.454	96
395.678	88
395.903	105
396.127	91
396.352	102
396.576	109
396.801	88
397.025	102
397.249	94
397.474	114
397.698	87
397.922	96
398.147	102
398.371	90
398.595	99
398.82	84
399.044	99
399.268	102
399.492	79
399.717	96
399.941	88
400.165	106
400.389	107
400.613	110
400.837	87
401.062	89
401.286	101
401.51	99
401.734	93
401.958	80
402.182	98
402.406	87
402.63	92
402.854	83
403.078	92
403.302	97
403.526	104
403.75	104
403.974	100
404.198	107
404.422	95
404.645	113
404.869	118
405.093	106
405.317	104
405.541	92
405.765	96
405.988	101
406.212	115
406.436	95
406.66	86
406.883	97
407.107	97
407.331	109
407.555	93
407.778	95
408.002	94
408.226	111
408.449	92
408.673	104
408.896	100
409.12	101
409.344	84
409.567	101
409.791	82
410.014	91
410.238	101
410.461	92
410.685	86
410.908	90
411.132	104
411.355	94
411.578	98
411.802	90
412.025	101
412.249	100
412.472	106
412.695	117
412.919	97
413.142	99
413.365	91
413.589	97
413.812	101
414.035	102
414.258	100
414.482	90
414.705	89
414.928	102
415.151	96
415.374	103
415.597	101
415.821	93
416.044	91
416.267	93
416.49	100
416.713	102
416.936	86
417.159	94
417.382	80
417.605	92
417.828	95
418.051	94
418.274	98
418.497	108
418.72	105
418.943	100
419.166	91
419.389	70
419.611	99
419.834	83
420.057	100
420.28	103
420.503	109
420.726	91
420.948	102
421.171	96
421.394	84
421.617	93
421.839	81
422.062	97
422.285	95
422.507	97
422.73	90
422.953	104
423.175	103
423.398	101
423.621	101
423.843	95
424.066	89
424.288	101
424.511	96
424.733	97
424.956	89
425.178	100
425.401	99
425.623	103
425.846	90
426.068	100
426.291	89
426.513	85
426.735	98
426.958	91
427.18	88
427.402	84
427.625	99
427.847	100
428.069	78
428.292	88
428.514	97
428.736	100
428.958	94
429.181	88
429.403	94
429.625	85
429.847	86
430.069	93
430.292	91
430.514	82
430.736	77
430.958	88
431.18	93
431.402	101
431.624	100
431.846	81
432.068	82
432.29	94
432.512	91
432.734	98
432.956	84
433.178	106
433.4	87
433.622	98
433.844	88
434.066	84
434.287	96
434.509	104
434.731	96
434.953	94
435.175	94
435.397	76
435.618	84
435.84	100
436.062	89
436.284	88
436.505	90
436.727	89
436.949	89
437.17	109
437.392	98
437.614	101
437.835	94
438.057	99
438.278	98
438.5	87
438.721	107
438.943	87
439.165	78
439.386	112
439.608	96
439.829	100
440.05	98
440.272	93
440.493	94
440.715	89
440.936	93
441.158	96
441.379	88
441.6	98
441.822	100
442.043	89
442.264	81
442.486	98
442.707	102
442.928	89
443.149	80
443.371	90
443.592	92
443.813	102
444.034	109
444.255	98
444.476	90
444.698	89
444.919	85
445.14	224
445.361	165
445.582	96
445.803	102
446.024	94
446.245	96
446.466	97
446.687	90
446.908	109
447.129	90
447.35	91
447.571	101
447.792	100
448.013	78
448.234	102
448.455	95
448.675	85
448.896	100
449.117	85
449.338	88
449.559	93
449.779	105
450	91
450.221	90
450.442	84
450.662	81
450.883	93
451.104	93
451.324	102
451.545	82
451.766	81
451.986	101
452.207	95
452.428	78
452.648	106
452.869	91
453.089	98
453.31	93
453.53	96
453.751	87
453.971	80
454.192	88
454.412	85
454.633	88
454.853	99
455.073	97
455.294	101
455.514	96
455.734	95
455.955	95
456.175	93
456.395	90
456.616	93
456.836	68
457.056	98
457.276	91
457.497	96
457.717	85
457.937	102
458.157	95
458.377	97
458.598	84
458.818	80
459.038	96
459.258	102
459.478	89
459.698	101
459.918	83
460.138	96
460.358	98
460.578	96
460.798	83
461.018	84
461.238	97
461.458	88
461.678	108
461.898	97
462.118	100
462.338	101
462.558	95
462.777	84
462.997	98
463.217	90
463.437	100
463.657	105
463.876	105
464.096	101
464.316	100
464.536	92
464.755	107
464.975	96
465.195	97
465.414	97
465.634	95
465.854	92
466.073	103
466.293	100
466.512	96
466.732	97
466.951	85
467.171	89
467.391	91
467.61	97
467.829	96
468.049	100
468.268	98
468.488	102
468.707	96
468.927	100
469.146	100
469.365	88
469.585	86
469.804	100
470.023	103
470.243	94
470.462	77
470.681	78
470.901	92
471.12	100
471.339	107
471.558	106
471.777	95
471.997	87
472.216	95
472.435	80
472.654	91
472.873	86
473.092	103
473.311	89
473.53	93
473.749	103
473.968	104
474.187	106
474.406	83
474.625	80
474.844	82
475.063	96
475.282	110
475.501	91
475.72	91
475.939	92
476.158	103
476.377	93
476.596	102
476.814	95
477.033	83
477.252	111
477.471	105
477.69	102
477.908	93
478.127	104
478.346	96
478.564	93
478.783	117
479.002	89
479.22	106
479.439	105
479.658	96
479.876	100
480.095	96
480.313	108
480.532	110
480.751	99
480.969	101
481.188	102
481.406	99
481.624	89
481.843	118
482.061	93
482.28	95
482.498	96
482.717	91
482.935	90
483.153	106
483.372	100
483.59	101
483.808	101
484.027	102
484.245	102
484.463	107
484.681	102
484.9	113
485.118	104
485.336	94
485.554	103
485.772	98
485.99	97
486.209	93
486.427	85
486.645	91
486.863	113
487.081	109
487.299	108
487.517	111
487.735	100
487.953	108
488.171	105
488.389	116
488.607	90
488.825	98
489.043	108
489.261	106
489.479	114
489.696	100
489.914	93
490.132	106
490.35	99
490.568	125
490.786	115
491.003	109
491.221	113
491.439	105
491.657	107
491.874	106
492.092	122
492.31	114
492.527	113
492.745	113
492.963	104
493.18	95
493.398	113
493.615	109
493.833	99
494.05	116
494.268	114
494.485	102
494.703	109
494.92	109
495.138	117
495.355	100
495.573	98
495.79	107
496.008	99
496.225	104
496.442	111
496.66	112
496.877	116
497.094	102
497.312	101
497.529	115
497.746	112
497.963	101
498.181	114
498.398	112
498.615	116
498.832	115
499.049	114
499.267	116
499.484	109
499.701	123
499.918	127
500.135	128
500.352	124
500.569	144
500.786	153
501.003	135
501.22	135
501.437	128
501.654	129
501.871	117
502.088	103
502.305	116
502.522	112
502.739	121
502.956	120
503.172	114
503.389	88
503.606	100
503.823	122
504.04	108
504.256	107
504.473	114
504.69	101
504.907	117
505.123	109
505.34	107
505.557	110
505.773	113
505.99	104
506.207	91
506.423	101
506.64	113
506.856	108
507.073	98
507.289	105
507.506	118
507.722	112
507.939	95
508.155	93
508.372	97
508.588	100
508.805	120
509.021	113
509.238	105
509.454	105
509.67	99
509.887	102
510.103	97
510.319	81
510.536	92
510.752	96
510.968	90
511.184	95
511.401	105
511.617	102
511.833	90
512.049	101
512.265	98
512.481	98
512.698	85
512.914	96
513.13	91
513.346	98
513.562	97
513.778	118
513.994	102
514.21	100
514.426	109
514.642	106
514.858	96
515.074	103
515.29	104
515.506	101
515.721	97
515.937	91
516.153	109
516.369	95
516.585	97
516.801	108
517.016	105
517.232	101
517.448	114
517.664	104
517.879	114
518.095	116
518.311	102
518.527	93
518.742	105
518.958	100
519.173	107
519.389	98
519.605	114
519.82	105
520.036	93
520.251	104
520.467	108
520.682	108
520.898	102
521.113	101
521.329	94
521.544	93
521.76	102
521.975	99
522.19	108
522.406	104
522.621	93
522.836	91
523.052	100
523.267	91
523.482	89
523.698	100
523.913	86
524.128	98
524.343	115
524.559	98
524.774	109
524.989	112
525.204	99
525.419	105
525.634	99
525.849	100
526.064	96
526.28	82
526.495	96
526.71	107
526.925	94
527.14	115
527.355	100
527.57	92
527.785	97
527.999	105
528.214	103
528.429	99
528.644	107
528.859	102
529.074	100
529.289	100
529.503	101
529.718	99
529.933	96
530.148	101
530.363	108
530.577	98
530.792	102
531.007	105
531.221	105
531.436	103
531.651	103
531.865	98
532.08	84
532.295	106
532.509	95
532.724	94
532.938	100
533.153	101
533.367	101
533.582	107
533.796	108
534.011	96
534.225	90
534.44	87
534.654	108
534.868	110
535.083	91
535.297	111
535.511	90
535.726	102
535.94	93
536.154	92
536.369	109
536.583	93
536.797	89
537.011	93
537.225	104
537.44	95
537.654	100
537.868	88
538.082	88
538.296	105
538.51	93
538.724	92
538.938	103
539.153	88
539.367	105
539.581	109
539.795	90
540.009	103
540.222	100
540.436	88
540.65	99
540.864	89
541.078	91
541.292	105
541.506	104
541.72	102
541.934	109
542.147	108
542.361	100
542.575	95
542.789	89
543.002	96
543.216	96
543.43	106
543.644	97
543.857	92
544.071	91
544.285	101
544.498	102
544.712	111
544.925	100
545.139	108
545.352	108
545.566	103
545.779	105
545.993	116
546.206	102
546.42	116
546.633	122
546.847	97
547.06	97
547.274	113
547.487	109
547.7	116
547.914	114
548.127	99
548.34	112
548.554	94
548.767	103
548.98	117
549.193	101
549.407	105
549.62	101
549.833	104
550.046	107
550.259	114
550.473	100
550.686	100
550.899	97
551.112	86
551.325	94
551.538	97
551.751	100
551.964	94
552.177	102
552.39	109
552.603	109
552.816	111
553.029	86
553.242	114
553.455	116
553.667	112
553.88	109
554.093	100
554.306	103
554.519	105
554.732	95
554.944	101
555.157	92
555.37	86
555.583	93
555.795	98
556.008	105
556.221	112
556.433	93
556.646	87
556.859	103
557.071	89
557.284	101
557.496	95
557.709	89
557.921	117
558.134	99
558.346	103
558.559	99
558.771	99
558.984	97
559.196	89
559.409	88
559.621	80
559.833	92
560.046	91
560.258	98
560.47	88
560.683	94
560.895	112
561.107	88
561.32	94
561.532	97
561.744	93
561.956	80
562.168	95
562.381	120
562.593	94
562.805	95
563.017	94
563.229	108
563.441	108
563.653	99
563.865	103
564.077	113
564.289	99
564.501	88
564.713	90
564.925	115
565.137	109
565.349	93
565.561	94
565.773	96
565.985	105
566.197	108
566.408	85
566.62	103
566.832	96
567.044	101
567.255	97
567.467	97
567.679	112
567.891	101
568.102	120
568.314	104
568.526	106
568.737	107
568.949	95
569.161	99
569.372	97
569.584	93
569.795	104
570.007	101
570.218	109
570.43	95
570.641	96
570.853	109
571.064	75
571.276	97
571.487	92
571.698	91
571.91	102
572.121	99
572.333	104
572.544	95
572.755	92
572.966	90
573.178	101
573.389	94
573.6	97
573.811	95
574.023	80
574.234	94
574.445	90
574.656	88
574.867	96
575.078	97
575.289	92
575.501	84
575.712	101
575.923	97
576.134	98
576.345	88
576.556	95
576.767	100
576.978	109
577.188	82
577.399	90
577.61	109
577.821	82
578.032	91
578.243	77
578.454	85
578.665	92
578.875	96
579.086	93
579.297	90
579.508	84
579.718	101
579.929	101
580.14	86
580.35	92
580.561	92
580.772	98
580.982	95
581.193	103
581.403	100
581.614	82
581.825	97
582.035	82
582.246	104
582.456	97
582.667	91
582.877	100
583.087	85
583.298	84
583.508	98
583.719	100
583.929	101
584.139	99
584.35	83
584.56	93
584.77	83
584.981	90
585.191	113
585.401	94
585.611	89
585.821	102
586.032	84
586.242	92
586.452	93
586.662	92
586.872	88
587.082	86
587.292	85
587.502	97
587.713	106
587.923	88
588.133	92
588.343	82
588.553	93
588.762	104
588.972	92
589.182	82
589.392	88
589.602	91
589.812	93
590.022	96
590.232	97
590.441	92
590.651	95
590.861	91
591.071	92
591.281	92
591.49	100
591.7	78
591.91	78
592.119	83
592.329	78
592.539	95
592.748	89
592.958	101
593.167	102
593.377	96
593.587	112
593.796	91
594.006	89
594.215	92
594.424	107
594.634	81
594.843	84
595.053	93
595.262	94
595.472	86
595.681	75
595.89	106
596.1	85
596.309	87
596.518	90
596.727	90
596.937	86
597.146	98
597.355	94
597.564	111
597.774	93
597.983	100
598.192	93
598.401	85
598.61	84
598.819	86
599.028	87
599.237	74
599.446	94
599.655	93
599.864	110
600.073	96
600.282	100
600.491	102
600.7	96
600.909	73
601.118	92
601.327	80
601.536	87
601.745	97
601.953	101
602.162	83
602.371	90
602.58	95
602.789	89
602.997	80
603.206	94
603.415	90
603.623	98
603.832	82
604.041	94
604.249	77
604.458	93
604.666	88
604.875	95
605.084	92
605.292	94
605.501	94
605.709	83
605.918	82
606.126	81
606.334	105
606.543	101
606.751	101
606.96	96
607.168	99
607.376	90
607.585	81
607.793	90
608.001	83
608.21	101
608.418	91
608.626	91
608.834	91
609.043	93
609.251	93
609.459	75
609.667	102
609.875	93
610.083	84
610.291	87
610.499	95
610.707	81
610.916	75
611.124	88
611.332	70
611.54	81
611.748	73
611.955	85
612.163	88
612.371	86
612.579	107
612.787	103
612.995	88
613.203	93
613.411	100
613.618	86
613.826	76
614.034	97
614.242	85
614.449	92
614.657	83
614.865	94
615.072	73
615.28	101
615.488	85
615.695	68
615.903	86
616.111	79
616.318	105
616.526	88
616.733	89
616.941	83
617.148	92
617.356	74
617.563	106
617.771	90
617.978	86
618.185	90
618.393	94
618.6	86
618.807	81
619.015	96
619.222	80
619.429	90
619.637	87
619.844	75
620.051	88
620.258	113
620.466	84
620.673	85
620.88	80
621.087	105
621.294	89
621.501	80
621.708	90
621.915	82
622.122	96
622.329	95
622.536	101
622.743	81
622.95	78
623.157	97
623.364	89
623.571	84
623.778	83
623.985	73
624.192	90
624.399	103
624.606	97
624.812	99
625.019	78
625.226	89
625.433	96
625.639	97
625.846	91
626.053	92
626.259	100
626.466	107
626.673	90
626.879	90
627.086	76
627.293	101
627.499	88
627.706	80
627.912	88
628.119	91
628.325	97
628.532	92
628.738	84
628.945	86
629.151	91
629.357	87
629.564	87
629.77	95
629.976	82
630.183	79
630.389	75
630.595	78
630.802	95
631.008	88
631.214	84
631.42	81
631.627	85
631.833	86
632.039	88
632.245	89
632.451	89
632.657	93
632.863	91
633.069	92
633.275	89
633.481	91
633.688	92
633.893	87
634.099	85
634.305	85
634.511	89
634.717	88
634.923	79
635.129	78
635.335	83
635.541	92
635.747	89
635.952	91
636.158	86
636.364	89
636.57	90
636.775	80
636.981	77
637.187	85
637.392	77
637.598	87
637.804	90
638.009	90
638.215	84
638.421	78
638.626	97
638.832	98
639.037	91
639.243	88
639.448	83
639.654	92
639.859	79
640.065	70
640.27	81
640.475	85
640.681	97
640.886	83
641.091	81
641.297	102
641.502	94
641.707	91
641.913	83
642.118	92
642.323	77
642.528	107
642.733	101
642.939	88
643.144	78
643.349	92
643.554	90
643.759	79
643.964	85
644.169	76
644.374	78
644.579	76
644.784	78
644.989	88
645.194	76
645.399	99
645.604	98
645.809	83
646.014	92
646.219	91
646.423	104
646.628	90
646.833	89
647.038	102
647.243	84
647.447	99
647.652	67
647.857	84
648.062	85
648.266	86
648.471	80
648.676	80
648.88	88
649.085	89
649.289	99
649.494	92
649.698	82
649.903	81
650.107	94
650.312	85
650.516	93
650.721	93
650.925	95
651.13	77
651.334	93
651.539	91
651.743	75
651.947	101
652.152	93
652.356	96
652.56	74
652.764	72
652.969	98
653.173	86
653.377	100
653.581	87
653.785	80
653.99	91
654.194	96
654.398	72
654.602	89
654.806	79
655.01	94
655.214	93
655.418	76
655.622	87
655.826	70
656.03	82
656.234	88
656.438	97
656.642	89
656.846	92
657.049	89
657.253	93
657.457	95
657.661	85
657.865	90
658.068	100
658.272	82
658.476	91
658.68	106
658.883	85
659.087	86
659.291	83
659.494	96
659.698	86
659.901	79
660.105	81
660.309	78
660.512	72
660.716	74
660.919	93
661.123	96
661.326	92
661.53	102
661.733	83
661.936	84
662.14	90
662.343	93
662.546	77
662.75	69
662.953	87
663.156	101
663.36	82
663.563	93
663.766	78
663.969	84
664.173	78
664.376	77
664.579	74
664.782	92
664.985	89
665.188	84
665.391	72
665.594	86
665.797	80
666	80
666.203	78
666.406	85
666.609	91
666.812	96
667.015	80
667.218	79
667.421	70
667.624	86
667.827	86
668.03	85
668.232	92
668.435	94
668.638	82
668.841	77
669.043	89
669.246	79
669.449	82
669.651	90
669.854	82
670.057	102
670.259	78
670.462	78
670.665	91
670.867	97
671.07	89
671.272	93
671.475	90
671.677	88
671.88	94
672.082	81
672.284	78
672.487	81
672.689	85
672.892	85
