Data from Location5.07152019.Energy5.Lamp.07192019.3%Agarose_HRD10591_16-03-32-628.txt Node
Date: Fri Jul 19 16:03:32 EDT 2019
User: cochatt
Spectrometer: HR+D1059
Trigger mode: 1
Integration Time (sec): 1.000000E-1
Scans to average: 1
Electric dark correction enabled: true
Nonlinearity correction enabled: false
Boxcar width: 0
XAxis mode: Wavelengths
Number of Pixels in Spectrum: 2048
>>>>>Begin Spectral Data<<<<<
223.165	2
223.4	2
223.635	2
223.869	-21
224.104	-21
224.338	-20
224.573	-16
224.808	-8
225.042	-12
225.277	-7
225.511	-1
225.746	-2
225.98	6
226.215	17
226.449	5
226.683	14
226.918	28
227.152	36
227.387	39
227.621	50
227.856	44
228.09	48
228.324	59
228.559	58
228.793	62
229.027	70
229.262	57
229.496	69
229.73	69
229.964	72
230.199	84
230.433	89
230.667	74
230.901	86
231.136	89
231.37	71
231.604	81
231.838	86
232.072	83
232.306	93
232.541	83
232.775	89
233.009	73
233.243	89
233.477	91
233.711	76
233.945	86
234.179	86
234.413	83
234.647	71
234.881	73
235.115	97
235.349	93
235.583	93
235.817	73
236.051	91
236.285	88
236.519	84
236.753	70
236.987	93
237.221	93
237.455	106
237.689	86
237.922	85
238.156	82
238.39	88
238.624	75
238.858	74
239.091	73
239.325	78
239.559	82
239.793	91
240.027	79
240.26	75
240.494	97
240.728	83
240.961	85
241.195	75
241.429	79
241.662	67
241.896	82
242.13	73
242.363	75
242.597	90
242.83	77
243.064	88
243.298	73
243.531	89
243.765	97
243.998	86
244.232	90
244.465	92
244.699	89
244.932	83
245.166	75
245.399	88
245.633	93
245.866	87
246.099	100
246.333	80
246.566	72
246.8	93
247.033	90
247.266	76
247.5	87
247.733	87
247.966	82
248.2	80
248.433	95
248.666	70
248.899	107
249.133	101
249.366	84
249.599	81
249.832	89
250.066	86
250.299	90
250.532	87
250.765	91
250.998	101
251.231	87
251.465	67
251.698	91
251.931	75
252.164	89
252.397	78
252.63	78
252.863	87
253.096	88
253.329	81
253.562	77
253.795	86
254.028	100
254.261	100
254.494	86
254.727	94
254.96	93
255.193	92
255.426	85
255.659	88
255.892	93
256.124	73
256.357	81
256.59	71
256.823	80
257.056	93
257.289	98
257.521	90
257.754	77
257.987	91
258.22	86
258.452	93
258.685	93
258.918	97
259.151	80
259.383	99
259.616	87
259.849	87
260.081	87
260.314	78
260.547	91
260.779	78
261.012	95
261.244	72
261.477	93
261.71	83
261.942	110
262.175	99
262.407	104
262.64	81
262.872	93
263.105	89
263.337	73
263.57	87
263.802	92
264.035	85
264.267	94
264.499	95
264.732	89
264.964	92
265.197	84
265.429	93
265.661	99
265.894	81
266.126	101
266.358	104
266.591	91
266.823	80
267.055	85
267.287	83
267.52	89
267.752	89
267.984	70
268.216	87
268.448	94
268.681	84
268.913	89
269.145	85
269.377	90
269.609	82
269.841	81
270.073	95
270.306	94
270.538	79
270.77	83
271.002	91
271.234	85
271.466	96
271.698	79
271.93	86
272.162	93
272.394	81
272.626	86
272.858	85
273.09	87
273.322	82
273.553	78
273.785	92
274.017	81
274.249	92
274.481	88
274.713	73
274.945	85
275.176	89
275.408	104
275.64	97
275.872	74
276.104	99
276.335	96
276.567	102
276.799	96
277.031	99
277.262	87
277.494	74
277.726	107
277.957	90
278.189	89
278.421	96
278.652	92
278.884	104
279.115	81
279.347	92
279.579	88
279.81	79
280.042	83
280.273	100
280.505	94
280.736	100
280.968	91
281.199	96
281.431	87
281.662	90
281.894	85
282.125	91
282.356	92
282.588	100
282.819	79
283.051	93
283.282	83
283.513	80
283.745	103
283.976	86
284.207	103
284.439	100
284.67	102
284.901	105
285.132	79
285.364	96
285.595	97
285.826	89
286.057	80
286.288	104
286.52	85
286.751	83
286.982	106
287.213	88
287.444	86
287.675	88
287.906	93
288.138	95
288.369	89
288.6	87
288.831	86
289.062	88
289.293	80
289.524	92
289.755	91
289.986	88
290.217	102
290.448	106
290.679	88
290.91	106
291.141	88
291.371	98
291.602	115
291.833	91
292.064	104
292.295	80
292.526	91
292.757	94
292.987	89
293.218	69
293.449	98
293.68	101
293.91	98
294.141	93
294.372	79
294.603	98
294.833	91
295.064	96
295.295	95
295.525	103
295.756	90
295.987	94
296.217	93
296.448	100
296.679	106
296.909	100
297.14	96
297.37	87
297.601	91
297.831	100
298.062	91
298.292	98
298.523	94
298.753	95
298.984	90
299.214	75
299.445	92
299.675	78
299.905	85
300.136	92
300.366	104
300.597	101
300.827	95
301.057	101
301.288	96
301.518	86
301.748	86
301.979	100
302.209	103
302.439	93
302.669	95
302.9	104
303.13	86
303.36	99
303.59	107
303.82	98
304.051	95
304.281	94
304.511	97
304.741	92
304.971	98
305.201	76
305.431	108
305.661	84
305.891	82
306.121	89
306.352	91
306.582	104
306.812	91
307.042	86
307.272	88
307.502	87
307.731	96
307.961	91
308.191	100
308.421	90
308.651	87
308.881	88
309.111	93
309.341	92
309.571	117
309.8	102
310.03	102
310.26	97
310.49	97
310.72	96
310.949	106
311.179	85
311.409	99
311.639	111
311.868	100
312.098	81
312.328	82
312.557	89
312.787	87
313.017	105
313.246	103
313.476	101
313.706	79
313.935	89
314.165	93
314.394	88
314.624	101
314.853	96
315.083	111
315.312	103
315.542	107
315.771	87
316.001	95
316.23	84
316.46	88
316.689	97
316.919	105
317.148	108
317.377	94
317.607	87
317.836	86
318.065	109
318.295	90
318.524	92
318.753	92
318.983	104
319.212	99
319.441	109
319.67	93
319.9	96
320.129	92
320.358	88
320.587	97
320.816	93
321.046	112
321.275	93
321.504	115
321.733	104
321.962	92
322.191	85
322.42	87
322.649	98
322.878	85
323.108	106
323.337	87
323.566	93
323.795	94
324.024	99
324.253	92
324.482	84
324.71	96
324.939	98
325.168	102
325.397	100
325.626	93
325.855	93
326.084	109
326.313	99
326.542	108
326.77	106
326.999	96
327.228	90
327.457	107
327.686	97
327.914	92
328.143	108
328.372	101
328.6	99
328.829	98
329.058	80
329.287	102
329.515	95
329.744	99
329.972	95
330.201	99
330.43	94
330.658	101
330.887	94
331.115	97
331.344	98
331.572	100
331.801	96
332.03	99
332.258	109
332.486	92
332.715	83
332.943	95
333.172	99
333.4	98
333.629	100
333.857	100
334.085	93
334.314	101
334.542	110
334.771	99
334.999	104
335.227	105
335.455	106
335.684	119
335.912	94
336.14	102
336.369	91
336.597	105
336.825	93
337.053	98
337.281	92
337.51	101
337.738	99
337.966	89
338.194	89
338.422	102
338.65	93
338.878	95
339.106	110
339.334	97
339.562	108
339.79	108
340.018	108
340.246	108
340.474	99
340.702	87
340.93	96
341.158	82
341.386	95
341.614	101
341.842	96
342.07	87
342.298	92
342.526	84
342.754	85
342.981	103
343.209	92
343.437	89
343.665	90
343.893	91
344.12	98
344.348	109
344.576	85
344.804	107
345.031	97
345.259	94
345.487	112
345.714	92
345.942	88
346.17	103
346.397	97
346.625	104
346.853	97
347.08	88
347.308	86
347.535	96
347.763	86
347.99	95
348.218	99
348.445	99
348.673	92
348.9	96
349.128	94
349.355	100
349.583	90
349.81	89
350.037	90
350.265	89
350.492	105
350.72	94
350.947	97
351.174	94
351.402	111
351.629	92
351.856	95
352.083	99
352.311	95
352.538	84
352.765	102
352.992	110
353.22	102
353.447	93
353.674	101
353.901	101
354.128	101
354.355	91
354.583	88
354.81	109
355.037	80
355.264	103
355.491	99
355.718	96
355.945	95
356.172	91
356.399	85
356.626	104
356.853	95
357.08	89
357.307	95
357.534	94
357.761	91
357.988	104
358.215	97
358.441	80
358.668	87
358.895	86
359.122	97
359.349	80
359.576	97
359.802	87
360.029	102
360.256	96
360.483	98
360.709	86
360.936	91
361.163	91
361.39	97
361.616	97
361.843	108
362.07	102
362.296	97
362.523	88
362.749	96
362.976	89
363.203	89
363.429	98
363.656	103
363.882	103
364.109	101
364.335	90
364.562	96
364.788	93
365.015	92
365.241	97
365.468	93
365.694	95
365.92	85
366.147	107
366.373	93
366.599	104
366.826	101
367.052	93
367.278	83
367.505	87
367.731	103
367.957	77
368.184	102
368.41	99
368.636	100
368.862	89
369.089	103
369.315	76
369.541	107
369.767	99
369.993	83
370.219	83
370.445	107
370.672	100
370.898	115
371.124	102
371.35	85
371.576	94
371.802	102
372.028	105
372.254	87
372.48	91
372.706	109
372.932	83
373.158	79
373.384	103
373.61	94
373.835	86
374.061	95
374.287	97
374.513	103
374.739	84
374.965	89
375.191	95
375.416	95
375.642	96
375.868	93
376.094	103
376.319	100
376.545	93
376.771	95
376.997	113
377.222	102
377.448	96
377.674	85
377.899	101
378.125	102
378.35	98
378.576	89
378.802	89
379.027	89
379.253	84
379.478	95
379.704	102
379.929	100
380.155	101
380.38	109
380.606	101
380.831	100
381.057	92
381.282	95
381.507	99
381.733	102
381.958	113
382.184	103
382.409	82
382.634	101
382.86	96
383.085	81
383.31	95
383.535	98
383.761	93
383.986	103
384.211	97
384.436	101
384.662	95
384.887	98
385.112	105
385.337	95
385.562	90
385.787	106
386.013	106
386.238	92
386.463	101
386.688	102
386.913	107
387.138	97
387.363	101
387.588	87
387.813	87
388.038	87
388.263	99
388.488	116
388.713	96
388.938	93
389.163	107
389.387	90
389.612	99
389.837	98
390.062	103
390.287	97
390.512	85
390.736	96
390.961	112
391.186	84
391.411	108
391.636	109
391.86	96
392.085	103
392.31	106
392.534	100
392.759	102
392.984	111
393.208	104
393.433	101
393.658	86
393.882	96
394.107	102
394.331	116
394.556	85
394.78	101
395.005	111
395.229	105
395.454	101
395.678	95
395.903	111
396.127	123
396.352	100
396.576	95
396.801	93
397.025	103
397.249	109
397.474	104
397.698	108
397.922	92
398.147	95
398.371	113
398.595	99
398.82	99
399.044	86
399.268	114
399.492	110
399.717	117
399.941	117
400.165	114
400.389	117
400.613	89
400.837	106
401.062	97
401.286	100
401.51	117
401.734	111
401.958	121
402.182	116
402.406	106
402.63	95
402.854	96
403.078	97
403.302	108
403.526	97
403.75	96
403.974	101
404.198	95
404.422	104
404.645	117
404.869	105
405.093	91
405.317	116
405.541	102
405.765	97
405.988	93
406.212	103
406.436	101
406.66	113
406.883	105
407.107	123
407.331	101
407.555	111
407.778	101
408.002	126
408.226	115
408.449	112
408.673	112
408.896	95
409.12	93
409.344	97
409.567	92
409.791	85
410.014	104
410.238	113
410.461	97
410.685	92
410.908	110
411.132	100
411.355	107
411.578	105
411.802	111
412.025	103
412.249	103
412.472	99
412.695	103
412.919	102
413.142	103
413.365	95
413.589	94
413.812	96
414.035	101
414.258	102
414.482	104
414.705	102
414.928	90
415.151	96
415.374	100
415.597	90
415.821	92
416.044	89
416.267	117
416.49	97
416.713	99
416.936	116
417.159	97
417.382	100
417.605	100
417.828	101
418.051	108
418.274	91
418.497	102
418.72	111
418.943	83
419.166	96
419.389	102
419.611	99
419.834	109
420.057	105
420.28	115
420.503	91
420.726	107
420.948	94
421.171	117
421.394	107
421.617	109
421.839	112
422.062	95
422.285	86
422.507	110
422.73	98
422.953	106
423.175	104
423.398	91
423.621	104
423.843	108
424.066	101
424.288	109
424.511	103
424.733	101
424.956	115
425.178	100
425.401	102
425.623	92
425.846	85
426.068	92
426.291	90
426.513	93
426.735	101
426.958	119
427.18	103
427.402	87
427.625	87
427.847	89
428.069	101
428.292	104
428.514	89
428.736	109
428.958	92
429.181	105
429.403	104
429.625	92
429.847	85
430.069	104
430.292	101
430.514	101
430.736	99
430.958	111
431.18	104
431.402	111
431.624	100
431.846	106
432.068	89
432.29	99
432.512	103
432.734	120
432.956	99
433.178	107
433.4	93
433.622	87
433.844	102
434.066	103
434.287	82
434.509	96
434.731	96
434.953	99
435.175	99
435.397	103
435.618	106
435.84	96
436.062	110
436.284	92
436.505	102
436.727	96
436.949	106
437.17	99
437.392	106
437.614	96
437.835	79
438.057	111
438.278	100
438.5	115
438.721	79
438.943	103
439.165	92
439.386	97
439.608	93
439.829	104
440.05	102
440.272	100
440.493	114
440.715	88
440.936	118
441.158	95
441.379	96
441.6	101
441.822	116
442.043	100
442.264	91
442.486	87
442.707	101
442.928	93
443.149	92
443.371	100
443.592	98
443.813	90
444.034	112
444.255	115
444.476	121
444.698	112
444.919	113
445.14	224
445.361	144
445.582	115
445.803	94
446.024	103
446.245	102
446.466	90
446.687	91
446.908	99
447.129	85
447.35	95
447.571	102
447.792	102
448.013	95
448.234	101
448.455	108
448.675	85
448.896	81
449.117	99
449.338	94
449.559	110
449.779	102
450	99
450.221	91
450.442	99
450.662	84
450.883	97
451.104	123
451.324	100
451.545	104
451.766	94
451.986	97
452.207	87
452.428	88
452.648	97
452.869	98
453.089	102
453.31	89
453.53	86
453.751	85
453.971	74
454.192	98
454.412	118
454.633	107
454.853	104
455.073	98
455.294	100
455.514	105
455.734	101
455.955	91
456.175	103
456.395	92
456.616	82
456.836	85
457.056	100
457.276	93
457.497	100
457.717	101
457.937	99
458.157	102
458.377	92
458.598	91
458.818	99
459.038	100
459.258	100
459.478	104
459.698	107
459.918	102
460.138	115
460.358	99
460.578	96
460.798	98
461.018	96
461.238	104
461.458	111
461.678	97
461.898	110
462.118	112
462.338	101
462.558	107
462.777	95
462.997	106
463.217	108
463.437	106
463.657	108
463.876	107
464.096	120
464.316	102
464.536	105
464.755	104
464.975	107
465.195	108
465.414	102
465.634	103
465.854	88
466.073	107
466.293	101
466.512	89
466.732	98
466.951	102
467.171	101
467.391	105
467.61	104
467.829	108
468.049	97
468.268	103
468.488	89
468.707	113
468.927	95
469.146	96
469.365	106
469.585	103
469.804	98
470.023	96
470.243	119
470.462	107
470.681	106
470.901	109
471.12	92
471.339	101
471.558	104
471.777	104
471.997	107
472.216	97
472.435	78
472.654	103
472.873	111
473.092	108
473.311	105
473.53	116
473.749	103
473.968	97
474.187	88
474.406	102
474.625	104
474.844	103
475.063	95
475.282	101
475.501	106
475.72	99
475.939	89
476.158	110
476.377	108
476.596	123
476.814	108
477.033	87
477.252	104
477.471	115
477.69	92
477.908	100
478.127	126
478.346	107
478.564	103
478.783	108
479.002	120
479.22	90
479.439	127
479.658	99
479.876	100
480.095	99
480.313	122
480.532	105
480.751	110
480.969	106
481.188	99
481.406	106
481.624	105
481.843	106
482.061	100
482.28	101
482.498	102
482.717	95
482.935	124
483.153	107
483.372	109
483.59	127
483.808	110
484.027	111
484.245	102
484.463	106
484.681	114
484.9	101
485.118	112
485.336	117
485.554	118
485.772	100
485.99	95
486.209	115
486.427	104
486.645	94
486.863	99
487.081	118
487.299	108
487.517	119
487.735	104
487.953	127
488.171	112
488.389	110
488.607	101
488.825	126
489.043	109
489.261	105
489.479	116
489.696	109
489.914	101
490.132	120
490.35	102
490.568	104
490.786	127
491.003	101
491.221	128
491.439	118
491.657	124
491.874	131
492.092	120
492.31	137
492.527	113
492.745	107
492.963	113
493.18	119
493.398	108
493.615	122
493.833	116
494.05	124
494.268	120
494.485	101
494.703	129
494.92	112
495.138	116
495.355	128
495.573	122
495.79	100
496.008	110
496.225	130
496.442	117
496.66	125
496.877	124
497.094	95
497.312	112
497.529	116
497.746	138
497.963	113
498.181	119
498.398	123
498.615	127
498.832	137
499.049	123
499.267	126
499.484	120
499.701	133
499.918	148
500.135	146
500.352	158
500.569	169
500.786	166
501.003	166
501.22	152
501.437	140
501.654	124
501.871	133
502.088	130
502.305	121
502.522	115
502.739	118
502.956	117
503.172	116
503.389	130
503.606	112
503.823	114
504.04	121
504.256	108
504.473	125
504.69	131
504.907	118
505.123	104
505.34	117
505.557	126
505.773	110
505.99	96
506.207	99
506.423	116
506.64	111
506.856	104
507.073	108
507.289	102
507.506	103
507.722	92
507.939	90
508.155	102
508.372	110
508.588	112
508.805	107
509.021	108
509.238	109
509.454	115
509.67	103
509.887	105
510.103	99
510.319	106
510.536	115
510.752	115
510.968	108
511.184	108
511.401	97
511.617	107
511.833	115
512.049	109
512.265	105
512.481	113
512.698	122
512.914	95
513.13	114
513.346	101
513.562	109
513.778	100
513.994	116
514.21	113
514.426	99
514.642	114
514.858	93
515.074	117
515.29	111
515.506	107
515.721	108
515.937	116
516.153	113
516.369	113
516.585	92
516.801	111
517.016	109
517.232	97
517.448	119
517.664	103
517.879	109
518.095	104
518.311	119
518.527	117
518.742	111
518.958	109
519.173	125
519.389	108
519.605	111
519.82	112
520.036	100
520.251	101
520.467	109
520.682	109
520.898	97
521.113	105
521.329	108
521.544	99
521.76	110
521.975	119
522.19	118
522.406	95
522.621	105
522.836	100
523.052	112
523.267	105
523.482	108
523.698	86
523.913	98
524.128	101
524.343	102
524.559	102
524.774	93
524.989	108
525.204	103
525.419	112
525.634	101
525.849	109
526.064	115
526.28	105
526.495	96
526.71	112
526.925	118
527.14	105
527.355	115
527.57	108
527.785	90
527.999	104
528.214	111
528.429	104
528.644	104
528.859	100
529.074	110
529.289	117
529.503	113
529.718	106
529.933	118
530.148	115
530.363	117
530.577	122
530.792	110
531.007	106
531.221	98
531.436	100
531.651	99
531.865	122
532.08	110
532.295	104
532.509	106
532.724	99
532.938	94
533.153	112
533.367	104
533.582	115
533.796	106
534.011	79
534.225	121
534.44	101
534.654	117
534.868	112
535.083	106
535.297	105
535.511	107
535.726	109
535.94	105
536.154	111
536.369	107
536.583	102
536.797	100
537.011	95
537.225	97
537.44	108
537.654	89
537.868	90
538.082	104
538.296	104
538.51	96
538.724	108
538.938	106
539.153	117
539.367	106
539.581	91
539.795	107
540.009	82
540.222	119
540.436	116
540.65	115
540.864	116
541.078	124
541.292	105
541.506	107
541.72	95
541.934	101
542.147	98
542.361	115
542.575	102
542.789	110
543.002	90
543.216	108
543.43	112
543.644	105
543.857	124
544.071	111
544.285	115
544.498	103
544.712	106
544.925	110
545.139	109
545.352	109
545.566	100
545.779	101
545.993	117
546.206	105
546.42	116
546.633	112
546.847	117
547.06	110
547.274	109
547.487	113
547.7	117
547.914	109
548.127	110
548.34	130
548.554	110
548.767	120
548.98	119
549.193	110
549.407	117
549.62	104
549.833	111
550.046	110
550.259	110
550.473	92
550.686	109
550.899	115
551.112	108
551.325	117
551.538	96
551.751	112
551.964	118
552.177	115
552.39	100
552.603	126
552.816	107
553.029	118
553.242	108
553.455	94
553.667	115
553.88	117
554.093	121
554.306	100
554.519	109
554.732	109
554.944	123
555.157	117
555.37	102
555.583	108
555.795	124
556.008	119
556.221	105
556.433	124
556.646	116
556.859	106
557.071	110
557.284	99
557.496	120
557.709	102
557.921	104
558.134	110
558.346	101
558.559	99
558.771	91
558.984	101
559.196	104
559.409	105
559.621	119
559.833	102
560.046	100
560.258	120
560.47	102
560.683	103
560.895	101
561.107	99
561.32	102
561.532	82
561.744	113
561.956	110
562.168	92
562.381	115
562.593	103
562.805	99
563.017	108
563.229	95
563.441	112
563.653	91
563.865	97
564.077	104
564.289	99
564.501	90
564.713	109
564.925	100
565.137	108
565.349	115
565.561	102
565.773	96
565.985	112
566.197	109
566.408	112
566.62	104
566.832	103
567.044	123
567.255	108
567.467	103
567.679	116
567.891	107
568.102	119
568.314	111
568.526	111
568.737	108
568.949	90
569.161	98
569.372	92
569.584	107
569.795	107
570.007	95
570.218	106
570.43	107
570.641	104
570.853	109
571.064	108
571.276	93
571.487	82
571.698	99
571.91	92
572.121	104
572.333	91
572.544	93
572.755	102
572.966	84
573.178	90
573.389	98
573.6	101
573.811	115
574.023	90
574.234	83
574.445	92
574.656	102
574.867	109
575.078	97
575.289	103
575.501	97
575.712	99
575.923	109
576.134	101
576.345	97
576.556	102
576.767	97
576.978	111
577.188	98
577.399	94
577.61	102
577.821	84
578.032	87
578.243	88
578.454	104
578.665	116
578.875	100
579.086	100
579.297	91
579.508	87
579.718	94
579.929	95
580.14	109
580.35	82
580.561	101
580.772	100
580.982	104
581.193	80
581.403	102
581.614	88
581.825	100
582.035	88
582.246	102
582.456	91
582.667	97
582.877	81
583.087	89
583.298	89
583.508	89
583.719	91
583.929	89
584.139	103
584.35	104
584.56	91
584.77	91
584.981	100
585.191	93
585.401	94
585.611	79
585.821	96
586.032	109
586.242	85
586.452	85
586.662	100
586.872	94
587.082	89
587.292	92
587.502	99
587.713	104
587.923	95
588.133	92
588.343	97
588.553	92
588.762	92
588.972	96
589.182	109
589.392	111
589.602	91
589.812	108
590.022	111
590.232	102
590.441	97
590.651	99
590.861	96
591.071	81
591.281	104
591.49	98
591.7	95
591.91	97
592.119	87
592.329	102
592.539	96
592.748	97
592.958	105
593.167	97
593.377	105
593.587	106
593.796	90
594.006	99
594.215	87
594.424	110
594.634	112
594.843	104
595.053	104
595.262	104
595.472	105
595.681	95
595.89	98
596.1	92
596.309	92
596.518	94
596.727	101
596.937	93
597.146	102
597.355	104
597.564	96
597.774	108
597.983	96
598.192	96
598.401	93
598.61	91
598.819	95
599.028	96
599.237	91
599.446	89
599.655	97
599.864	95
600.073	101
600.282	85
600.491	99
600.7	83
600.909	87
601.118	89
601.327	90
601.536	92
601.745	92
601.953	93
602.162	92
602.371	96
602.58	86
602.789	80
602.997	91
603.206	88
603.415	96
603.623	95
603.832	87
604.041	96
604.249	81
604.458	83
604.666	102
604.875	89
605.084	85
605.292	101
605.501	99
605.709	88
605.918	91
606.126	111
606.334	96
606.543	86
606.751	88
606.96	93
607.168	93
607.376	102
607.585	104
607.793	86
608.001	99
608.21	97
608.418	100
608.626	99
608.834	99
609.043	90
609.251	80
609.459	81
609.667	101
609.875	103
610.083	117
610.291	86
610.499	101
610.707	94
610.916	98
611.124	90
611.332	101
611.54	97
611.748	109
611.955	89
612.163	94
612.371	105
612.579	97
612.787	87
612.995	89
613.203	86
613.411	87
613.618	98
613.826	88
614.034	94
614.242	84
614.449	87
614.657	83
614.865	81
615.072	84
615.28	97
615.488	96
615.695	97
615.903	82
616.111	95
616.318	87
616.526	89
616.733	86
616.941	92
617.148	93
617.356	91
617.563	85
617.771	86
617.978	102
618.185	94
618.393	92
618.6	93
618.807	100
619.015	103
619.222	94
619.429	89
619.637	101
619.844	77
620.051	96
620.258	101
620.466	92
620.673	88
620.88	79
621.087	98
621.294	99
621.501	92
621.708	88
621.915	92
622.122	97
622.329	88
622.536	94
622.743	92
622.95	91
623.157	97
623.364	98
623.571	85
623.778	81
623.985	92
624.192	80
624.399	91
624.606	90
624.812	87
625.019	85
625.226	80
625.433	77
625.639	96
625.846	96
626.053	94
626.259	79
626.466	102
626.673	92
626.879	90
627.086	87
627.293	88
627.499	91
627.706	108
627.912	95
628.119	86
628.325	85
628.532	86
628.738	85
628.945	100
629.151	92
629.357	101
629.564	94
629.77	93
629.976	98
630.183	95
630.389	87
630.595	76
630.802	89
631.008	88
631.214	93
631.42	85
631.627	91
631.833	96
632.039	84
632.245	85
632.451	91
632.657	101
632.863	78
633.069	80
633.275	79
633.481	92
633.688	97
633.893	96
634.099	87
634.305	90
634.511	78
634.717	87
634.923	86
635.129	81
635.335	85
635.541	87
635.747	96
635.952	94
636.158	83
636.364	90
636.57	93
636.775	93
636.981	90
637.187	82
637.392	89
637.598	76
637.804	92
638.009	81
638.215	74
638.421	88
638.626	92
638.832	85
639.037	79
639.243	80
639.448	79
639.654	80
639.859	99
640.065	87
640.27	100
640.475	111
640.681	100
640.886	85
641.091	92
641.297	96
641.502	88
641.707	81
641.913	96
642.118	87
642.323	88
642.528	93
642.733	92
642.939	91
643.144	84
643.349	86
643.554	96
643.759	100
643.964	85
644.169	80
644.374	96
644.579	76
644.784	78
644.989	96
645.194	105
645.399	89
645.604	94
645.809	92
646.014	74
646.219	85
646.423	99
646.628	86
646.833	67
647.038	84
647.243	90
647.447	91
647.652	91
647.857	114
648.062	99
648.266	95
648.471	103
648.676	95
648.88	90
649.085	80
649.289	86
649.494	90
649.698	97
649.903	93
650.107	86
650.312	87
650.516	77
650.721	75
650.925	95
651.13	77
651.334	95
651.539	96
651.743	76
651.947	99
652.152	101
652.356	90
652.56	87
652.764	101
652.969	80
653.173	91
653.377	90
653.581	93
653.785	85
653.99	89
654.194	95
654.398	101
654.602	88
654.806	79
655.01	87
655.214	84
655.418	82
655.622	87
655.826	85
656.03	85
656.234	89
656.438	88
656.642	79
656.846	90
657.049	96
657.253	103
657.457	99
657.661	81
657.865	85
658.068	91
658.272	75
658.476	91
658.68	73
658.883	86
659.087	96
659.291	92
659.494	90
659.698	93
659.901	84
660.105	100
660.309	89
660.512	86
660.716	97
660.919	87
661.123	80
661.326	97
661.53	73
661.733	84
661.936	92
662.14	88
662.343	90
662.546	85
662.75	100
662.953	91
663.156	93
663.36	97
663.563	81
663.766	79
663.969	80
664.173	78
664.376	90
664.579	88
664.782	63
664.985	93
665.188	81
665.391	93
665.594	74
665.797	67
666	84
666.203	67
666.406	90
666.609	89
666.812	111
667.015	87
667.218	81
667.421	94
667.624	72
667.827	81
668.03	97
668.232	87
668.435	85
668.638	75
668.841	89
669.043	87
669.246	77
669.449	78
669.651	84
669.854	79
670.057	90
670.259	90
670.462	76
670.665	88
670.867	93
671.07	94
671.272	109
671.475	90
671.677	91
671.88	92
672.082	79
672.284	79
672.487	91
672.689	77
672.892	87
