Data from Location5.07152019.Energy5.Lamp.07192019.3%Agarose_HRD10591_16-05-07-630.txt Node
Date: Fri Jul 19 16:05:07 EDT 2019
User: cochatt
Spectrometer: HR+D1059
Trigger mode: 1
Integration Time (sec): 1.000000E-1
Scans to average: 1
Electric dark correction enabled: true
Nonlinearity correction enabled: false
Boxcar width: 0
XAxis mode: Wavelengths
Number of Pixels in Spectrum: 2048
>>>>>Begin Spectral Data<<<<<
223.165	-14
223.4	-14
223.635	-14
223.869	-32
224.104	-17
224.338	-10
224.573	-25
224.808	-7
225.042	-21
225.277	-12
225.511	-7
225.746	16
225.98	21
226.215	4
226.449	14
226.683	24
226.918	37
227.152	29
227.387	38
227.621	48
227.856	38
228.09	38
228.324	61
228.559	57
228.793	70
229.027	72
229.262	55
229.496	76
229.73	76
229.964	68
230.199	69
230.433	69
230.667	69
230.901	68
231.136	72
231.37	89
231.604	82
231.838	82
232.072	75
232.306	80
232.541	87
232.775	89
233.009	85
233.243	68
233.477	67
233.711	84
233.945	77
234.179	81
234.413	73
234.647	87
234.881	73
235.115	72
235.349	75
235.583	86
235.817	87
236.051	97
236.285	97
236.519	84
236.753	66
236.987	80
237.221	67
237.455	84
237.689	71
237.922	82
238.156	86
238.39	77
238.624	79
238.858	70
239.091	85
239.325	87
239.559	75
239.793	77
240.027	86
240.26	86
240.494	87
240.728	84
240.961	78
241.195	82
241.429	65
241.662	79
241.896	88
242.13	74
242.363	74
242.597	89
242.83	80
243.064	90
243.298	84
243.531	90
243.765	78
243.998	86
244.232	71
244.465	81
244.699	87
244.932	85
245.166	83
245.399	80
245.633	80
245.866	83
246.099	96
246.333	79
246.566	72
246.8	83
247.033	73
247.266	74
247.5	88
247.733	79
247.966	74
248.2	69
248.433	77
248.666	73
248.899	81
249.133	73
249.366	78
249.599	85
249.832	76
250.066	78
250.299	84
250.532	84
250.765	80
250.998	88
251.231	93
251.465	76
251.698	97
251.931	89
252.164	90
252.397	73
252.63	89
252.863	95
253.096	77
253.329	83
253.562	76
253.795	74
254.028	86
254.261	95
254.494	72
254.727	80
254.96	85
255.193	76
255.426	86
255.659	71
255.892	96
256.124	82
256.357	89
256.59	75
256.823	83
257.056	77
257.289	77
257.521	81
257.754	84
257.987	95
258.22	74
258.452	86
258.685	96
258.918	95
259.151	80
259.383	93
259.616	87
259.849	85
260.081	82
260.314	83
260.547	82
260.779	89
261.012	83
261.244	82
261.477	83
261.71	98
261.942	81
262.175	103
262.407	91
262.64	79
262.872	81
263.105	73
263.337	79
263.57	98
263.802	105
264.035	82
264.267	76
264.499	77
264.732	93
264.964	80
265.197	83
265.429	85
265.661	90
265.894	88
266.126	104
266.358	84
266.591	99
266.823	83
267.055	83
267.287	84
267.52	88
267.752	75
267.984	93
268.216	87
268.448	100
268.681	89
268.913	96
269.145	80
269.377	73
269.609	86
269.841	88
270.073	85
270.306	84
270.538	81
270.77	88
271.002	90
271.234	95
271.466	101
271.698	94
271.93	81
272.162	83
272.394	82
272.626	84
272.858	94
273.09	92
273.322	94
273.553	78
273.785	90
274.017	91
274.249	94
274.481	82
274.713	94
274.945	89
275.176	91
275.408	93
275.64	84
275.872	87
276.104	85
276.335	94
276.567	90
276.799	97
277.031	77
277.262	77
277.494	92
277.726	87
277.957	79
278.189	77
278.421	79
278.652	92
278.884	90
279.115	83
279.347	86
279.579	96
279.81	74
280.042	87
280.273	84
280.505	92
280.736	76
280.968	87
281.199	85
281.431	89
281.662	89
281.894	92
282.125	95
282.356	94
282.588	95
282.819	89
283.051	94
283.282	101
283.513	87
283.745	103
283.976	76
284.207	78
284.439	91
284.67	101
284.901	104
285.132	97
285.364	76
285.595	90
285.826	93
286.057	85
286.288	105
286.52	89
286.751	91
286.982	93
287.213	88
287.444	89
287.675	80
287.906	100
288.138	82
288.369	85
288.6	78
288.831	98
289.062	83
289.293	96
289.524	80
289.755	80
289.986	85
290.217	91
290.448	89
290.679	78
290.91	90
291.141	93
291.371	85
291.602	90
291.833	84
292.064	102
292.295	87
292.526	97
292.757	97
292.987	82
293.218	84
293.449	97
293.68	86
293.91	94
294.141	91
294.372	99
294.603	92
294.833	83
295.064	89
295.295	84
295.525	80
295.756	81
295.987	97
296.217	78
296.448	100
296.679	80
296.909	96
297.14	98
297.37	89
297.601	77
297.831	93
298.062	98
298.292	94
298.523	96
298.753	106
298.984	97
299.214	96
299.445	96
299.675	109
299.905	108
300.136	86
300.366	81
300.597	102
300.827	98
301.057	89
301.288	81
301.518	97
301.748	89
301.979	100
302.209	88
302.439	79
302.669	96
302.9	87
303.13	88
303.36	90
303.59	95
303.82	98
304.051	93
304.281	92
304.511	90
304.741	83
304.971	81
305.201	93
305.431	92
305.661	77
305.891	83
306.121	83
306.352	91
306.582	78
306.812	94
307.042	86
307.272	102
307.502	89
307.731	99
307.961	89
308.191	83
308.421	99
308.651	81
308.881	88
309.111	102
309.341	85
309.571	81
309.8	89
310.03	98
310.26	85
310.49	83
310.72	90
310.949	92
311.179	83
311.409	90
311.639	97
311.868	87
312.098	89
312.328	87
312.557	98
312.787	103
313.017	94
313.246	96
313.476	91
313.706	94
313.935	100
314.165	101
314.394	101
314.624	82
314.853	97
315.083	90
315.312	81
315.542	77
315.771	93
316.001	87
316.23	94
316.46	92
316.689	94
316.919	97
317.148	87
317.377	89
317.607	94
317.836	90
318.065	93
318.295	93
318.524	92
318.753	100
318.983	102
319.212	95
319.441	95
319.67	81
319.9	93
320.129	91
320.358	89
320.587	85
320.816	86
321.046	91
321.275	88
321.504	100
321.733	99
321.962	89
322.191	89
322.42	87
322.649	95
322.878	100
323.108	91
323.337	92
323.566	93
323.795	89
324.024	93
324.253	95
324.482	86
324.71	99
324.939	98
325.168	94
325.397	91
325.626	89
325.855	88
326.084	78
326.313	79
326.542	87
326.77	95
326.999	99
327.228	88
327.457	92
327.686	95
327.914	108
328.143	97
328.372	90
328.6	85
328.829	93
329.058	85
329.287	87
329.515	85
329.744	84
329.972	95
330.201	105
330.43	96
330.658	93
330.887	78
331.115	84
331.344	89
331.572	88
331.801	80
332.03	98
332.258	99
332.486	103
332.715	93
332.943	96
333.172	102
333.4	95
333.629	104
333.857	92
334.085	98
334.314	91
334.542	89
334.771	95
334.999	86
335.227	92
335.455	102
335.684	113
335.912	97
336.14	104
336.369	92
336.597	93
336.825	95
337.053	89
337.281	91
337.51	86
337.738	96
337.966	86
338.194	87
338.422	102
338.65	80
338.878	95
339.106	103
339.334	106
339.562	82
339.79	91
340.018	80
340.246	100
340.474	94
340.702	87
340.93	87
341.158	95
341.386	96
341.614	87
341.842	89
342.07	102
342.298	91
342.526	104
342.754	84
342.981	94
343.209	84
343.437	79
343.665	96
343.893	96
344.12	93
344.348	98
344.576	98
344.804	87
345.031	107
345.259	77
345.487	86
345.714	83
345.942	92
346.17	86
346.397	82
346.625	93
346.853	88
347.08	88
347.308	81
347.535	89
347.763	81
347.99	97
348.218	105
348.445	80
348.673	88
348.9	89
349.128	92
349.355	88
349.583	92
349.81	91
350.037	87
350.265	103
350.492	94
350.72	87
350.947	99
351.174	72
351.402	98
351.629	103
351.856	89
352.083	87
352.311	90
352.538	106
352.765	83
352.992	100
353.22	104
353.447	109
353.674	84
353.901	94
354.128	93
354.355	93
354.583	95
354.81	98
355.037	98
355.264	85
355.491	100
355.718	103
355.945	98
356.172	91
356.399	80
356.626	85
356.853	98
357.08	87
357.307	77
357.534	104
357.761	90
357.988	83
358.215	99
358.441	91
358.668	84
358.895	81
359.122	100
359.349	89
359.576	78
359.802	97
360.029	88
360.256	95
360.483	98
360.709	81
360.936	90
361.163	87
361.39	95
361.616	83
361.843	90
362.07	105
362.296	88
362.523	89
362.749	88
362.976	82
363.203	76
363.429	86
363.656	87
363.882	89
364.109	100
364.335	82
364.562	82
364.788	94
365.015	99
365.241	93
365.468	88
365.694	93
365.92	86
366.147	85
366.373	88
366.599	99
366.826	95
367.052	76
367.278	88
367.505	84
367.731	92
367.957	75
368.184	83
368.41	79
368.636	103
368.862	87
369.089	103
369.315	96
369.541	91
369.767	80
369.993	103
370.219	87
370.445	83
370.672	88
370.898	72
371.124	78
371.35	94
371.576	97
371.802	84
372.028	87
372.254	100
372.48	96
372.706	87
372.932	83
373.158	87
373.384	100
373.61	94
373.835	97
374.061	75
374.287	99
374.513	99
374.739	105
374.965	88
375.191	95
375.416	89
375.642	113
375.868	95
376.094	99
376.319	78
376.545	100
376.771	91
376.997	75
377.222	86
377.448	91
377.674	89
377.899	97
378.125	98
378.35	80
378.576	98
378.802	83
379.027	89
379.253	84
379.478	103
379.704	80
379.929	86
380.155	98
380.38	97
380.606	85
380.831	96
381.057	97
381.282	93
381.507	93
381.733	96
381.958	101
382.184	93
382.409	83
382.634	94
382.86	103
383.085	87
383.31	76
383.535	88
383.761	97
383.986	98
384.211	104
384.436	88
384.662	97
384.887	89
385.112	96
385.337	81
385.562	86
385.787	100
386.013	104
386.238	106
386.463	98
386.688	98
386.913	98
387.138	103
387.363	88
387.588	84
387.813	92
388.038	91
388.263	88
388.488	102
388.713	104
388.938	88
389.163	114
389.387	91
389.612	81
389.837	79
390.062	101
390.287	85
390.512	91
390.736	93
390.961	102
391.186	88
391.411	101
391.636	101
391.86	102
392.085	94
392.31	104
392.534	94
392.759	94
392.984	75
393.208	77
393.433	98
393.658	97
393.882	79
394.107	93
394.331	99
394.556	78
394.78	90
395.005	92
395.229	88
395.454	101
395.678	96
395.903	94
396.127	105
396.352	90
396.576	88
396.801	92
397.025	107
397.249	95
397.474	105
397.698	93
397.922	82
398.147	85
398.371	87
398.595	92
398.82	95
399.044	95
399.268	95
399.492	103
399.717	114
399.941	117
400.165	105
400.389	89
400.613	83
400.837	99
401.062	83
401.286	92
401.51	89
401.734	88
401.958	96
402.182	87
402.406	108
402.63	96
402.854	82
403.078	73
403.302	87
403.526	95
403.75	113
403.974	98
404.198	94
404.422	114
404.645	101
404.869	98
405.093	96
405.317	97
405.541	97
405.765	97
405.988	91
406.212	96
406.436	81
406.66	97
406.883	81
407.107	93
407.331	117
407.555	93
407.778	90
408.002	84
408.226	102
408.449	111
408.673	101
408.896	91
409.12	92
409.344	90
409.567	86
409.791	97
410.014	102
410.238	94
410.461	95
410.685	80
410.908	88
411.132	95
411.355	104
411.578	108
411.802	89
412.025	85
412.249	95
412.472	92
412.695	92
412.919	97
413.142	83
413.365	98
413.589	91
413.812	86
414.035	91
414.258	106
414.482	96
414.705	100
414.928	102
415.151	101
415.374	104
415.597	90
415.821	94
416.044	94
416.267	87
416.49	81
416.713	99
416.936	94
417.159	99
417.382	95
417.605	99
417.828	97
418.051	107
418.274	84
418.497	95
418.72	92
418.943	95
419.166	99
419.389	93
419.611	108
419.834	84
420.057	96
420.28	89
420.503	79
420.726	100
420.948	88
421.171	100
421.394	83
421.617	96
421.839	86
422.062	100
422.285	102
422.507	91
422.73	101
422.953	91
423.175	97
423.398	108
423.621	93
423.843	94
424.066	88
424.288	96
424.511	81
424.733	84
424.956	95
425.178	92
425.401	91
425.623	99
425.846	101
426.068	101
426.291	103
426.513	88
426.735	86
426.958	98
427.18	98
427.402	78
427.625	98
427.847	103
428.069	93
428.292	82
428.514	84
428.736	95
428.958	100
429.181	106
429.403	92
429.625	90
429.847	93
430.069	92
430.292	100
430.514	85
430.736	96
430.958	83
431.18	95
431.402	81
431.624	91
431.846	88
432.068	87
432.29	84
432.512	92
432.734	90
432.956	90
433.178	91
433.4	98
433.622	85
433.844	81
434.066	83
434.287	93
434.509	95
434.731	85
434.953	96
435.175	96
435.397	85
435.618	87
435.84	77
436.062	89
436.284	88
436.505	94
436.727	84
436.949	101
437.17	92
437.392	96
437.614	95
437.835	93
438.057	90
438.278	86
438.5	89
438.721	89
438.943	89
439.165	96
439.386	89
439.608	96
439.829	99
440.05	102
440.272	87
440.493	90
440.715	92
440.936	85
441.158	90
441.379	94
441.6	105
441.822	98
442.043	95
442.264	92
442.486	100
442.707	81
442.928	91
443.149	83
443.371	76
443.592	88
443.813	97
444.034	94
444.255	106
444.476	99
444.698	100
444.919	104
445.14	193
445.361	136
445.582	81
445.803	97
446.024	87
446.245	103
446.466	91
446.687	94
446.908	90
447.129	94
447.35	99
447.571	92
447.792	89
448.013	91
448.234	99
448.455	90
448.675	96
448.896	87
449.117	95
449.338	93
449.559	92
449.779	85
450	103
450.221	85
450.442	85
450.662	105
450.883	98
451.104	97
451.324	90
451.545	90
451.766	96
451.986	96
452.207	90
452.428	94
452.648	81
452.869	93
453.089	81
453.31	89
453.53	93
453.751	92
453.971	72
454.192	75
454.412	84
454.633	95
454.853	107
455.073	99
455.294	89
455.514	86
455.734	77
455.955	94
456.175	96
456.395	87
456.616	91
456.836	91
457.056	83
457.276	87
457.497	88
457.717	84
457.937	82
458.157	89
458.377	95
458.598	80
458.818	93
459.038	79
459.258	84
459.478	94
459.698	106
459.918	98
460.138	91
460.358	80
460.578	94
460.798	93
461.018	98
461.238	90
461.458	90
461.678	94
461.898	98
462.118	86
462.338	94
462.558	100
462.777	92
462.997	90
463.217	93
463.437	109
463.657	94
463.876	105
464.096	93
464.316	99
464.536	95
464.755	99
464.975	90
465.195	88
465.414	99
465.634	87
465.854	94
466.073	83
466.293	99
466.512	95
466.732	75
466.951	81
467.171	88
467.391	100
467.61	96
467.829	104
468.049	85
468.268	104
468.488	99
468.707	108
468.927	95
469.146	95
469.365	98
469.585	89
469.804	92
470.023	85
470.243	94
470.462	93
470.681	103
470.901	88
471.12	84
471.339	88
471.558	111
471.777	88
471.997	117
472.216	101
472.435	94
472.654	103
472.873	89
473.092	103
473.311	105
473.53	88
473.749	110
473.968	107
474.187	80
474.406	104
474.625	95
474.844	96
475.063	99
475.282	108
475.501	70
475.72	89
475.939	95
476.158	97
476.377	104
476.596	82
476.814	95
477.033	101
477.252	111
477.471	85
477.69	116
477.908	90
478.127	97
478.346	101
478.564	100
478.783	109
479.002	106
479.22	101
479.439	111
479.658	100
479.876	101
480.095	96
480.313	89
480.532	92
480.751	106
480.969	112
481.188	115
481.406	89
481.624	99
481.843	88
482.061	91
482.28	98
482.498	101
482.717	86
482.935	92
483.153	103
483.372	96
483.59	109
483.808	103
484.027	107
484.245	106
484.463	104
484.681	115
484.9	123
485.118	101
485.336	97
485.554	96
485.772	107
485.99	107
486.209	101
486.427	102
486.645	113
486.863	100
487.081	105
487.299	114
487.517	109
487.735	118
487.953	103
488.171	104
488.389	102
488.607	111
488.825	101
489.043	107
489.261	102
489.479	97
489.696	120
489.914	108
490.132	97
490.35	101
490.568	92
490.786	106
491.003	108
491.221	113
491.439	104
491.657	111
491.874	128
492.092	126
492.31	108
492.527	113
492.745	113
492.963	107
493.18	106
493.398	93
493.615	108
493.833	107
494.05	100
494.268	106
494.485	120
494.703	120
494.92	94
495.138	107
495.355	113
495.573	108
495.79	96
496.008	112
496.225	111
496.442	108
496.66	115
496.877	111
497.094	109
497.312	100
497.529	106
497.746	109
497.963	117
498.181	113
498.398	112
498.615	112
498.832	111
499.049	122
499.267	123
499.484	119
499.701	128
499.918	129
500.135	134
500.352	134
500.569	140
500.786	133
501.003	142
501.22	131
501.437	119
501.654	97
501.871	117
502.088	111
502.305	122
502.522	113
502.739	105
502.956	109
503.172	92
503.389	109
503.606	101
503.823	110
504.04	109
504.256	114
504.473	118
504.69	108
504.907	90
505.123	101
505.34	109
505.557	108
505.773	92
505.99	100
506.207	112
506.423	101
506.64	111
506.856	90
507.073	89
507.289	104
507.506	99
507.722	98
507.939	93
508.155	106
508.372	98
508.588	90
508.805	97
509.021	107
509.238	98
509.454	98
509.67	90
509.887	97
510.103	102
510.319	85
510.536	88
510.752	96
510.968	90
511.184	116
511.401	95
511.617	100
511.833	109
512.049	98
512.265	107
512.481	97
512.698	90
512.914	100
513.13	98
513.346	111
513.562	107
513.778	85
513.994	101
514.21	97
514.426	92
514.642	92
514.858	98
515.074	87
515.29	114
515.506	102
515.721	109
515.937	116
516.153	104
516.369	90
516.585	102
516.801	104
517.016	97
517.232	113
517.448	116
517.664	97
517.879	90
518.095	99
518.311	104
518.527	107
518.742	99
518.958	100
519.173	93
519.389	98
519.605	113
519.82	101
520.036	107
520.251	105
520.467	99
520.682	101
520.898	94
521.113	92
521.329	98
521.544	98
521.76	99
521.975	95
522.19	90
522.406	89
522.621	100
522.836	81
523.052	106
523.267	86
523.482	92
523.698	90
523.913	97
524.128	102
524.343	95
524.559	108
524.774	98
524.989	80
525.204	95
525.419	85
525.634	104
525.849	104
526.064	96
526.28	96
526.495	100
526.71	96
526.925	106
527.14	101
527.355	94
527.57	86
527.785	89
527.999	91
528.214	107
528.429	106
528.644	98
528.859	112
529.074	99
529.289	100
529.503	98
529.718	90
529.933	100
530.148	87
530.363	82
530.577	109
530.792	96
531.007	109
531.221	89
531.436	87
531.651	100
531.865	94
532.08	99
532.295	87
532.509	91
532.724	103
532.938	97
533.153	98
533.367	86
533.582	91
533.796	94
534.011	93
534.225	100
534.44	87
534.654	90
534.868	92
535.083	94
535.297	81
535.511	112
535.726	99
535.94	87
536.154	111
536.369	101
536.583	95
536.797	90
537.011	102
537.225	85
537.44	88
537.654	95
537.868	84
538.082	100
538.296	88
538.51	101
538.724	94
538.938	93
539.153	95
539.367	108
539.581	102
539.795	98
540.009	87
540.222	84
540.436	89
540.65	99
540.864	100
541.078	99
541.292	101
541.506	107
541.72	101
541.934	102
542.147	104
542.361	108
542.575	102
542.789	100
543.002	90
543.216	96
543.43	96
543.644	93
543.857	117
544.071	101
544.285	103
544.498	96
544.712	117
544.925	104
545.139	96
545.352	103
545.566	107
545.779	107
545.993	107
546.206	95
546.42	104
546.633	107
546.847	98
547.06	106
547.274	101
547.487	109
547.7	98
547.914	108
548.127	94
548.34	114
548.554	103
548.767	100
548.98	100
549.193	98
549.407	101
549.62	101
549.833	101
550.046	100
550.259	100
550.473	100
550.686	98
550.899	106
551.112	100
551.325	106
551.538	105
551.751	96
551.964	99
552.177	99
552.39	88
552.603	94
552.816	100
553.029	103
553.242	102
553.455	90
553.667	95
553.88	96
554.093	108
554.306	103
554.519	103
554.732	88
554.944	95
555.157	100
555.37	89
555.583	112
555.795	99
556.008	109
556.221	98
556.433	91
556.646	94
556.859	94
557.071	90
557.284	93
557.496	105
557.709	106
557.921	91
558.134	88
558.346	104
558.559	95
558.771	103
558.984	95
559.196	92
559.409	94
559.621	91
559.833	97
560.046	90
560.258	91
560.47	85
560.683	95
560.895	86
561.107	101
561.32	87
561.532	92
561.744	94
561.956	106
562.168	88
562.381	94
562.593	83
562.805	108
563.017	102
563.229	91
563.441	98
563.653	90
563.865	87
564.077	97
564.289	103
564.501	92
564.713	99
564.925	90
565.137	112
565.349	85
565.561	80
565.773	100
565.985	101
566.197	87
566.408	90
566.62	100
566.832	101
567.044	97
567.255	108
567.467	102
567.679	105
567.891	107
568.102	103
568.314	108
568.526	97
568.737	95
568.949	96
569.161	91
569.372	81
569.584	100
569.795	90
570.007	97
570.218	81
570.43	100
570.641	81
570.853	98
571.064	78
571.276	101
571.487	100
571.698	96
571.91	101
572.121	100
572.333	81
572.544	90
572.755	86
572.966	88
573.178	93
573.389	92
573.6	88
573.811	98
574.023	77
574.234	93
574.445	107
574.656	83
574.867	93
575.078	89
575.289	88
575.501	76
575.712	83
575.923	82
576.134	93
576.345	98
576.556	100
576.767	96
576.978	95
577.188	86
577.399	84
577.61	92
577.821	100
578.032	97
578.243	82
578.454	84
578.665	104
578.875	92
579.086	75
579.297	93
579.508	89
579.718	100
579.929	97
580.14	96
580.35	113
580.561	104
580.772	113
580.982	97
581.193	93
581.403	87
581.614	89
581.825	113
582.035	91
582.246	86
582.456	92
582.667	85
582.877	85
583.087	77
583.298	85
583.508	87
583.719	91
583.929	74
584.139	100
584.35	94
584.56	85
584.77	93
584.981	91
585.191	84
585.401	105
585.611	89
585.821	82
586.032	103
586.242	91
586.452	82
586.662	86
586.872	100
587.082	87
587.292	85
587.502	90
587.713	94
587.923	95
588.133	95
588.343	87
588.553	88
588.762	103
588.972	89
589.182	88
589.392	93
589.602	99
589.812	96
590.022	88
590.232	80
590.441	81
590.651	92
590.861	90
591.071	91
591.281	89
591.49	92
591.7	83
591.91	87
592.119	103
592.329	88
592.539	74
592.748	99
592.958	88
593.167	113
593.377	96
593.587	105
593.796	89
594.006	87
594.215	107
594.424	98
594.634	92
594.843	88
595.053	100
595.262	115
595.472	99
595.681	93
595.89	96
596.1	88
596.309	104
596.518	81
596.727	101
596.937	94
597.146	73
597.355	86
597.564	87
597.774	76
597.983	91
598.192	99
598.401	79
598.61	104
598.819	79
599.028	85
599.237	97
599.446	77
599.655	80
599.864	85
600.073	88
600.282	93
600.491	87
600.7	106
600.909	79
601.118	90
601.327	85
601.536	89
601.745	96
601.953	86
602.162	105
602.371	93
602.58	90
602.789	92
602.997	100
603.206	96
603.415	91
603.623	78
603.832	94
604.041	104
604.249	93
604.458	77
604.666	103
604.875	89
605.084	82
605.292	99
605.501	76
605.709	89
605.918	77
606.126	91
606.334	90
606.543	101
606.751	70
606.96	81
607.168	94
607.376	103
607.585	80
607.793	97
608.001	83
608.21	80
608.418	80
608.626	92
608.834	109
609.043	98
609.251	99
609.459	88
609.667	95
609.875	91
610.083	94
610.291	87
610.499	83
610.707	83
610.916	91
611.124	93
611.332	87
611.54	77
611.748	104
611.955	90
612.163	86
612.371	85
612.579	95
612.787	85
612.995	84
613.203	91
613.411	91
613.618	89
613.826	99
614.034	84
614.242	102
614.449	91
614.657	96
614.865	90
615.072	81
615.28	81
615.488	79
615.695	88
615.903	96
616.111	97
616.318	76
616.526	85
616.733	93
616.941	89
617.148	97
617.356	94
617.563	95
617.771	97
617.978	83
618.185	76
618.393	90
618.6	81
618.807	87
619.015	95
619.222	81
619.429	97
619.637	89
619.844	96
620.051	87
620.258	80
620.466	95
620.673	96
620.88	87
621.087	87
621.294	88
621.501	87
621.708	94
621.915	87
622.122	98
622.329	94
622.536	95
622.743	85
622.95	92
623.157	86
623.364	95
623.571	71
623.778	85
623.985	87
624.192	91
624.399	87
624.606	85
624.812	82
625.019	98
625.226	80
625.433	71
625.639	84
625.846	81
626.053	92
626.259	96
626.466	93
626.673	95
626.879	97
627.086	81
627.293	86
627.499	96
627.706	99
627.912	80
628.119	93
628.325	84
628.532	91
628.738	84
628.945	92
629.151	90
629.357	90
629.564	84
629.77	96
629.976	98
630.183	90
630.389	82
630.595	85
630.802	86
631.008	95
631.214	89
631.42	84
631.627	97
631.833	81
632.039	80
632.245	82
632.451	99
632.657	96
632.863	86
633.069	85
633.275	97
633.481	78
633.688	87
633.893	101
634.099	112
634.305	88
634.511	89
634.717	85
634.923	89
635.129	92
635.335	104
635.541	87
635.747	99
635.952	87
636.158	90
636.364	89
636.57	73
636.775	83
636.981	97
637.187	93
637.392	108
637.598	82
637.804	92
638.009	76
638.215	79
638.421	82
638.626	81
638.832	75
639.037	92
639.243	85
639.448	80
639.654	101
639.859	83
640.065	76
640.27	89
640.475	85
640.681	90
640.886	77
641.091	83
641.297	90
641.502	100
641.707	75
641.913	73
642.118	91
642.323	83
642.528	75
642.733	84
642.939	92
643.144	98
643.349	89
643.554	87
643.759	74
643.964	70
644.169	80
644.374	96
644.579	73
644.784	72
644.989	99
645.194	95
645.399	85
645.604	93
645.809	87
646.014	95
646.219	84
646.423	94
646.628	91
646.833	87
647.038	88
647.243	94
647.447	94
647.652	106
647.857	89
648.062	88
648.266	93
648.471	93
648.676	85
648.88	103
649.085	86
649.289	84
649.494	91
649.698	97
649.903	92
650.107	83
650.312	92
650.516	80
650.721	77
650.925	91
651.13	82
651.334	91
651.539	91
651.743	82
651.947	98
652.152	92
652.356	95
652.56	85
652.764	96
652.969	77
653.173	95
653.377	84
653.581	91
653.785	74
653.99	90
654.194	84
654.398	102
654.602	92
654.806	101
655.01	95
655.214	78
655.418	90
655.622	97
655.826	90
656.03	95
656.234	93
656.438	82
656.642	95
656.846	107
657.049	88
657.253	97
657.457	105
657.661	90
657.865	87
658.068	78
658.272	75
658.476	87
658.68	87
658.883	91
659.087	100
659.291	81
659.494	92
659.698	81
659.901	82
660.105	76
660.309	73
660.512	91
660.716	91
660.919	85
661.123	93
661.326	91
661.53	88
661.733	75
661.936	96
662.14	86
662.343	91
662.546	111
662.75	69
662.953	107
663.156	78
663.36	83
663.563	73
663.766	74
663.969	89
664.173	72
664.376	79
664.579	84
664.782	96
664.985	73
665.188	95
665.391	86
665.594	83
665.797	77
666	75
666.203	87
666.406	90
666.609	77
666.812	88
667.015	80
667.218	88
667.421	91
667.624	89
667.827	97
668.03	78
668.232	84
668.435	89
668.638	103
668.841	97
669.043	80
669.246	77
669.449	87
669.651	76
669.854	78
670.057	103
670.259	93
670.462	75
670.665	84
670.867	90
671.07	91
671.272	79
671.475	89
671.677	76
671.88	93
672.082	89
672.284	95
672.487	84
672.689	89
672.892	70
