Data from Location5.07152019.Energy5.Lamp.07192019.3%Agarose_HRD10591_16-02-49-629.txt Node
Date: Fri Jul 19 16:02:49 EDT 2019
User: cochatt
Spectrometer: HR+D1059
Trigger mode: 1
Integration Time (sec): 1.000000E-1
Scans to average: 1
Electric dark correction enabled: true
Nonlinearity correction enabled: false
Boxcar width: 0
XAxis mode: Wavelengths
Number of Pixels in Spectrum: 2048
>>>>>Begin Spectral Data<<<<<
223.165	-21
223.4	-21
223.635	-21
223.869	-6
224.104	0
224.338	-8
224.573	-8
224.808	-7
225.042	-28
225.277	-8
225.511	-14
225.746	6
225.98	-3
226.215	14
226.449	21
226.683	11
226.918	12
227.152	39
227.387	48
227.621	38
227.856	43
228.09	49
228.324	55
228.559	68
228.793	64
229.027	61
229.262	58
229.496	67
229.73	82
229.964	68
230.199	95
230.433	83
230.667	84
230.901	72
231.136	85
231.37	92
231.604	92
231.838	78
232.072	98
232.306	99
232.541	101
232.775	77
233.009	97
233.243	90
233.477	98
233.711	89
233.945	87
234.179	87
234.413	94
234.647	88
234.881	91
235.115	78
235.349	72
235.583	88
235.817	86
236.051	74
236.285	80
236.519	96
236.753	75
236.987	87
237.221	89
237.455	107
237.689	86
237.922	88
238.156	75
238.39	81
238.624	71
238.858	92
239.091	83
239.325	81
239.559	81
239.793	82
240.027	87
240.26	69
240.494	81
240.728	78
240.961	72
241.195	74
241.429	89
241.662	81
241.896	93
242.13	79
242.363	81
242.597	84
242.83	81
243.064	85
243.298	82
243.531	78
243.765	76
243.998	81
244.232	71
244.465	74
244.699	78
244.932	78
245.166	82
245.399	84
245.633	84
245.866	95
246.099	79
246.333	88
246.566	79
246.8	92
247.033	79
247.266	81
247.5	90
247.733	83
247.966	97
248.2	100
248.433	88
248.666	73
248.899	78
249.133	90
249.366	85
249.599	73
249.832	84
250.066	84
250.299	82
250.532	84
250.765	94
250.998	86
251.231	92
251.465	84
251.698	75
251.931	83
252.164	87
252.397	90
252.63	88
252.863	84
253.096	76
253.329	107
253.562	83
253.795	69
254.028	88
254.261	96
254.494	74
254.727	86
254.96	85
255.193	77
255.426	97
255.659	91
255.892	84
256.124	78
256.357	81
256.59	84
256.823	78
257.056	86
257.289	82
257.521	81
257.754	84
257.987	98
258.22	69
258.452	89
258.685	82
258.918	74
259.151	92
259.383	76
259.616	72
259.849	89
260.081	84
260.314	84
260.547	87
260.779	82
261.012	83
261.244	71
261.477	102
261.71	81
261.942	82
262.175	98
262.407	87
262.64	86
262.872	87
263.105	93
263.337	105
263.57	77
263.802	88
264.035	91
264.267	95
264.499	83
264.732	75
264.964	86
265.197	81
265.429	88
265.661	73
265.894	91
266.126	95
266.358	89
266.591	92
266.823	72
267.055	91
267.287	89
267.52	93
267.752	93
267.984	89
268.216	92
268.448	102
268.681	82
268.913	94
269.145	87
269.377	102
269.609	91
269.841	86
270.073	92
270.306	100
270.538	96
270.77	104
271.002	85
271.234	92
271.466	83
271.698	89
271.93	98
272.162	91
272.394	91
272.626	77
272.858	79
273.09	86
273.322	79
273.553	93
273.785	83
274.017	90
274.249	87
274.481	101
274.713	90
274.945	84
275.176	94
275.408	91
275.64	94
275.872	78
276.104	90
276.335	87
276.567	94
276.799	84
277.031	93
277.262	86
277.494	85
277.726	94
277.957	96
278.189	83
278.421	88
278.652	97
278.884	104
279.115	98
279.347	92
279.579	88
279.81	80
280.042	92
280.273	89
280.505	94
280.736	96
280.968	88
281.199	83
281.431	79
281.662	89
281.894	89
282.125	96
282.356	94
282.588	81
282.819	76
283.051	73
283.282	92
283.513	103
283.745	73
283.976	99
284.207	105
284.439	86
284.67	89
284.901	84
285.132	85
285.364	93
285.595	81
285.826	89
286.057	96
286.288	102
286.52	98
286.751	105
286.982	99
287.213	84
287.444	95
287.675	90
287.906	96
288.138	93
288.369	91
288.6	78
288.831	90
289.062	87
289.293	80
289.524	98
289.755	100
289.986	96
290.217	105
290.448	102
290.679	99
290.91	93
291.141	101
291.371	106
291.602	92
291.833	91
292.064	94
292.295	92
292.526	86
292.757	84
292.987	82
293.218	91
293.449	98
293.68	92
293.91	90
294.141	96
294.372	88
294.603	86
294.833	104
295.064	101
295.295	99
295.525	91
295.756	89
295.987	98
296.217	88
296.448	100
296.679	106
296.909	89
297.14	93
297.37	98
297.601	88
297.831	77
298.062	109
298.292	100
298.523	90
298.753	94
298.984	90
299.214	94
299.445	100
299.675	82
299.905	92
300.136	89
300.366	103
300.597	96
300.827	98
301.057	98
301.288	100
301.518	91
301.748	92
301.979	99
302.209	87
302.439	93
302.669	87
302.9	100
303.13	95
303.36	90
303.59	89
303.82	91
304.051	100
304.281	108
304.511	88
304.741	87
304.971	89
305.201	92
305.431	98
305.661	84
305.891	86
306.121	93
306.352	91
306.582	95
306.812	97
307.042	114
307.272	90
307.502	98
307.731	87
307.961	99
308.191	106
308.421	95
308.651	102
308.881	84
309.111	90
309.341	78
309.571	94
309.8	91
310.03	97
310.26	100
310.49	93
310.72	91
310.949	85
311.179	92
311.409	85
311.639	96
311.868	88
312.098	90
312.328	93
312.557	93
312.787	81
313.017	82
313.246	95
313.476	78
313.706	104
313.935	107
314.165	95
314.394	106
314.624	101
314.853	96
315.083	104
315.312	109
315.542	102
315.771	95
316.001	91
316.23	102
316.46	95
316.689	90
316.919	91
317.148	98
317.377	87
317.607	102
317.836	100
318.065	82
318.295	97
318.524	89
318.753	86
318.983	99
319.212	100
319.441	86
319.67	94
319.9	91
320.129	88
320.358	88
320.587	82
320.816	96
321.046	92
321.275	97
321.504	96
321.733	98
321.962	97
322.191	103
322.42	85
322.649	97
322.878	94
323.108	104
323.337	88
323.566	90
323.795	87
324.024	97
324.253	94
324.482	76
324.71	92
324.939	93
325.168	86
325.397	104
325.626	96
325.855	93
326.084	96
326.313	97
326.542	101
326.77	93
326.999	84
327.228	102
327.457	98
327.686	110
327.914	112
328.143	95
328.372	91
328.6	97
328.829	106
329.058	92
329.287	83
329.515	98
329.744	93
329.972	85
330.201	99
330.43	93
330.658	86
330.887	104
331.115	91
331.344	88
331.572	93
331.801	101
332.03	105
332.258	95
332.486	107
332.715	99
332.943	102
333.172	96
333.4	98
333.629	105
333.857	93
334.085	94
334.314	108
334.542	99
334.771	86
334.999	93
335.227	97
335.455	109
335.684	97
335.912	90
336.14	95
336.369	92
336.597	95
336.825	104
337.053	90
337.281	107
337.51	98
337.738	100
337.966	99
338.194	92
338.422	95
338.65	110
338.878	94
339.106	79
339.334	93
339.562	91
339.79	83
340.018	91
340.246	87
340.474	93
340.702	82
340.93	90
341.158	80
341.386	101
341.614	99
341.842	99
342.07	96
342.298	81
342.526	92
342.754	107
342.981	75
343.209	85
343.437	107
343.665	91
343.893	105
344.12	89
344.348	95
344.576	95
344.804	106
345.031	93
345.259	96
345.487	96
345.714	96
345.942	97
346.17	95
346.397	88
346.625	97
346.853	79
347.08	89
347.308	105
347.535	91
347.763	91
347.99	102
348.218	96
348.445	96
348.673	121
348.9	90
349.128	90
349.355	91
349.583	96
349.81	90
350.037	97
350.265	94
350.492	92
350.72	88
350.947	90
351.174	92
351.402	86
351.629	105
351.856	116
352.083	96
352.311	82
352.538	94
352.765	101
352.992	102
353.22	95
353.447	82
353.674	86
353.901	82
354.128	85
354.355	96
354.583	97
354.81	91
355.037	86
355.264	92
355.491	97
355.718	89
355.945	88
356.172	93
356.399	90
356.626	93
356.853	116
357.08	88
357.307	100
357.534	90
357.761	100
357.988	93
358.215	94
358.441	86
358.668	85
358.895	98
359.122	69
359.349	92
359.576	104
359.802	109
360.029	94
360.256	72
360.483	76
360.709	85
360.936	94
361.163	73
361.39	97
361.616	102
361.843	104
362.07	86
362.296	80
362.523	97
362.749	94
362.976	94
363.203	82
363.429	88
363.656	84
363.882	90
364.109	88
364.335	101
364.562	89
364.788	83
365.015	88
365.241	86
365.468	87
365.694	100
365.92	96
366.147	102
366.373	78
366.599	87
366.826	96
367.052	91
367.278	96
367.505	82
367.731	106
367.957	91
368.184	96
368.41	114
368.636	113
368.862	102
369.089	90
369.315	88
369.541	89
369.767	73
369.993	84
370.219	90
370.445	97
370.672	93
370.898	100
371.124	105
371.35	99
371.576	102
371.802	80
372.028	83
372.254	94
372.48	112
372.706	97
372.932	100
373.158	97
373.384	97
373.61	96
373.835	90
374.061	85
374.287	88
374.513	90
374.739	104
374.965	82
375.191	101
375.416	105
375.642	93
375.868	106
376.094	77
376.319	97
376.545	80
376.771	95
376.997	87
377.222	89
377.448	91
377.674	91
377.899	100
378.125	80
378.35	93
378.576	93
378.802	78
379.027	94
379.253	95
379.478	97
379.704	92
379.929	101
380.155	107
380.38	90
380.606	105
380.831	99
381.057	96
381.282	109
381.507	89
381.733	100
381.958	104
382.184	97
382.409	98
382.634	98
382.86	92
383.085	97
383.31	92
383.535	104
383.761	102
383.986	77
384.211	92
384.436	92
384.662	105
384.887	96
385.112	90
385.337	91
385.562	98
385.787	86
386.013	93
386.238	101
386.463	102
386.688	95
386.913	99
387.138	109
387.363	102
387.588	107
387.813	95
388.038	98
388.263	91
388.488	78
388.713	100
388.938	83
389.163	82
389.387	106
389.612	96
389.837	73
390.062	97
390.287	90
390.512	100
390.736	95
390.961	90
391.186	98
391.411	93
391.636	88
391.86	100
392.085	101
392.31	88
392.534	104
392.759	89
392.984	96
393.208	93
393.433	87
393.658	99
393.882	91
394.107	99
394.331	91
394.556	105
394.78	112
395.005	86
395.229	96
395.454	97
395.678	112
395.903	108
396.127	84
396.352	106
396.576	106
396.801	109
397.025	107
397.249	97
397.474	86
397.698	104
397.922	112
398.147	106
398.371	86
398.595	100
398.82	89
399.044	96
399.268	95
399.492	103
399.717	109
399.941	100
400.165	96
400.389	107
400.613	103
400.837	93
401.062	86
401.286	93
401.51	99
401.734	108
401.958	95
402.182	102
402.406	109
402.63	112
402.854	104
403.078	94
403.302	98
403.526	102
403.75	100
403.974	113
404.198	96
404.422	96
404.645	116
404.869	101
405.093	109
405.317	86
405.541	98
405.765	102
405.988	99
406.212	93
406.436	109
406.66	110
406.883	103
407.107	94
407.331	108
407.555	118
407.778	101
408.002	106
408.226	108
408.449	86
408.673	98
408.896	115
409.12	101
409.344	109
409.567	102
409.791	99
410.014	103
410.238	106
410.461	97
410.685	100
410.908	102
411.132	110
411.355	104
411.578	102
411.802	79
412.025	86
412.249	79
412.472	108
412.695	88
412.919	106
413.142	104
413.365	99
413.589	102
413.812	82
414.035	106
414.258	85
414.482	95
414.705	80
414.928	93
415.151	109
415.374	94
415.597	101
415.821	102
416.044	106
416.267	89
416.49	97
416.713	100
416.936	104
417.159	81
417.382	88
417.605	98
417.828	93
418.051	93
418.274	98
418.497	99
418.72	112
418.943	104
419.166	102
419.389	112
419.611	94
419.834	102
420.057	108
420.28	97
420.503	108
420.726	88
420.948	104
421.171	98
421.394	90
421.617	110
421.839	94
422.062	96
422.285	106
422.507	100
422.73	102
422.953	105
423.175	93
423.398	88
423.621	104
423.843	107
424.066	97
424.288	95
424.511	101
424.733	108
424.956	98
425.178	102
425.401	95
425.623	97
425.846	103
426.068	104
426.291	100
426.513	96
426.735	92
426.958	92
427.18	101
427.402	99
427.625	91
427.847	98
428.069	99
428.292	98
428.514	95
428.736	96
428.958	99
429.181	100
429.403	101
429.625	83
429.847	87
430.069	100
430.292	102
430.514	107
430.736	88
430.958	108
431.18	105
431.402	105
431.624	91
431.846	96
432.068	85
432.29	99
432.512	93
432.734	90
432.956	105
433.178	100
433.4	89
433.622	92
433.844	100
434.066	100
434.287	105
434.509	95
434.731	99
434.953	103
435.175	104
435.397	99
435.618	104
435.84	95
436.062	102
436.284	102
436.505	88
436.727	105
436.949	106
437.17	110
437.392	102
437.614	88
437.835	100
438.057	89
438.278	105
438.5	92
438.721	90
438.943	92
439.165	89
439.386	103
439.608	108
439.829	100
440.05	93
440.272	101
440.493	106
440.715	102
440.936	93
441.158	107
441.379	110
441.6	101
441.822	89
442.043	93
442.264	110
442.486	99
442.707	107
442.928	103
443.149	104
443.371	101
443.592	100
443.813	93
444.034	91
444.255	96
444.476	89
444.698	96
444.919	102
445.14	241
445.361	162
445.582	103
445.803	107
446.024	94
446.245	92
446.466	96
446.687	94
446.908	96
447.129	102
447.35	98
447.571	103
447.792	89
448.013	98
448.234	91
448.455	93
448.675	80
448.896	92
449.117	91
449.338	88
449.559	92
449.779	86
450	81
450.221	97
450.442	99
450.662	100
450.883	97
451.104	90
451.324	90
451.545	91
451.766	102
451.986	87
452.207	102
452.428	79
452.648	89
452.869	87
453.089	92
453.31	101
453.53	101
453.751	86
453.971	85
454.192	93
454.412	99
454.633	97
454.853	105
455.073	90
455.294	85
455.514	95
455.734	93
455.955	84
456.175	93
456.395	85
456.616	93
456.836	104
457.056	90
457.276	99
457.497	87
457.717	100
457.937	91
458.157	99
458.377	93
458.598	96
458.818	98
459.038	95
459.258	91
459.478	96
459.698	89
459.918	86
460.138	96
460.358	89
460.578	101
460.798	102
461.018	107
461.238	96
461.458	99
461.678	96
461.898	88
462.118	102
462.338	99
462.558	96
462.777	101
462.997	111
463.217	110
463.437	100
463.657	98
463.876	103
464.096	98
464.316	109
464.536	108
464.755	106
464.975	104
465.195	106
465.414	100
465.634	85
465.854	109
466.073	109
466.293	101
466.512	86
466.732	116
466.951	106
467.171	85
467.391	106
467.61	101
467.829	105
468.049	93
468.268	104
468.488	104
468.707	92
468.927	99
469.146	100
469.365	82
469.585	91
469.804	97
470.023	119
470.243	89
470.462	97
470.681	92
470.901	100
471.12	92
471.339	101
471.558	103
471.777	101
471.997	112
472.216	112
472.435	107
472.654	95
472.873	101
473.092	106
473.311	106
473.53	101
473.749	97
473.968	109
474.187	107
474.406	106
474.625	98
474.844	109
475.063	98
475.282	113
475.501	116
475.72	102
475.939	112
476.158	100
476.377	102
476.596	103
476.814	104
477.033	116
477.252	105
477.471	101
477.69	100
477.908	114
478.127	96
478.346	98
478.564	103
478.783	116
479.002	116
479.22	118
479.439	122
479.658	118
479.876	90
480.095	104
480.313	106
480.532	108
480.751	105
480.969	92
481.188	103
481.406	96
481.624	109
481.843	100
482.061	91
482.28	96
482.498	117
482.717	93
482.935	104
483.153	108
483.372	112
483.59	103
483.808	108
484.027	102
484.245	102
484.463	104
484.681	115
484.9	100
485.118	97
485.336	105
485.554	102
485.772	109
485.99	102
486.209	105
486.427	103
486.645	119
486.863	104
487.081	103
487.299	102
487.517	122
487.735	126
487.953	99
488.171	112
488.389	102
488.607	102
488.825	105
489.043	98
489.261	104
489.479	122
489.696	107
489.914	131
490.132	108
490.35	105
490.568	92
490.786	123
491.003	114
491.221	114
491.439	101
491.657	123
491.874	126
492.092	128
492.31	122
492.527	124
492.745	113
492.963	125
493.18	117
493.398	106
493.615	126
493.833	121
494.05	117
494.268	125
494.485	115
494.703	100
494.92	116
495.138	107
495.355	109
495.573	117
495.79	115
496.008	121
496.225	110
496.442	110
496.66	113
496.877	109
497.094	107
497.312	112
497.529	138
497.746	110
497.963	121
498.181	128
498.398	116
498.615	125
498.832	122
499.049	128
499.267	143
499.484	125
499.701	128
499.918	137
500.135	150
500.352	166
500.569	179
500.786	157
501.003	155
501.22	143
501.437	137
501.654	125
501.871	121
502.088	113
502.305	120
502.522	124
502.739	110
502.956	107
503.172	114
503.389	109
503.606	109
503.823	103
504.04	108
504.256	106
504.473	116
504.69	116
504.907	108
505.123	102
505.34	98
505.557	116
505.773	107
505.99	118
506.207	93
506.423	114
506.64	98
506.856	111
507.073	106
507.289	106
507.506	100
507.722	101
507.939	100
508.155	102
508.372	98
508.588	101
508.805	91
509.021	115
509.238	109
509.454	106
509.67	107
509.887	96
510.103	90
510.319	106
510.536	100
510.752	94
510.968	96
511.184	96
511.401	110
511.617	117
511.833	93
512.049	109
512.265	108
512.481	99
512.698	98
512.914	108
513.13	96
513.346	104
513.562	104
513.778	98
513.994	103
514.21	110
514.426	99
514.642	113
514.858	100
515.074	100
515.29	108
515.506	100
515.721	109
515.937	116
516.153	101
516.369	103
516.585	102
516.801	102
517.016	92
517.232	98
517.448	105
517.664	114
517.879	120
518.095	119
518.311	119
518.527	106
518.742	119
518.958	107
519.173	108
519.389	105
519.605	103
519.82	101
520.036	104
520.251	88
520.467	115
520.682	82
520.898	107
521.113	109
521.329	103
521.544	103
521.76	109
521.975	110
522.19	88
522.406	114
522.621	102
522.836	115
523.052	94
523.267	100
523.482	114
523.698	93
523.913	97
524.128	109
524.343	114
524.559	87
524.774	91
524.989	105
525.204	100
525.419	102
525.634	94
525.849	114
526.064	107
526.28	123
526.495	104
526.71	100
526.925	102
527.14	89
527.355	98
527.57	114
527.785	116
527.999	120
528.214	99
528.429	95
528.644	96
528.859	100
529.074	97
529.289	105
529.503	104
529.718	103
529.933	99
530.148	101
530.363	97
530.577	93
530.792	107
531.007	97
531.221	92
531.436	103
531.651	104
531.865	100
532.08	93
532.295	109
532.509	88
532.724	98
532.938	105
533.153	113
533.367	102
533.582	105
533.796	94
534.011	102
534.225	97
534.44	101
534.654	104
534.868	102
535.083	101
535.297	113
535.511	97
535.726	114
535.94	100
536.154	93
536.369	110
536.583	102
536.797	99
537.011	113
537.225	106
537.44	99
537.654	97
537.868	85
538.082	101
538.296	96
538.51	83
538.724	101
538.938	103
539.153	112
539.367	104
539.581	106
539.795	97
540.009	98
540.222	105
540.436	92
540.65	100
540.864	105
541.078	83
541.292	99
541.506	92
541.72	117
541.934	109
542.147	110
542.361	113
542.575	91
542.789	114
543.002	111
543.216	103
543.43	116
543.644	104
543.857	100
544.071	107
544.285	119
544.498	117
544.712	102
544.925	103
545.139	100
545.352	101
545.566	107
545.779	88
545.993	96
546.206	114
546.42	122
546.633	114
546.847	104
547.06	117
547.274	112
547.487	107
547.7	107
547.914	110
548.127	108
548.34	96
548.554	109
548.767	83
548.98	105
549.193	94
549.407	112
549.62	87
549.833	96
550.046	117
550.259	100
550.473	91
550.686	96
550.899	90
551.112	108
551.325	113
551.538	106
551.751	109
551.964	109
552.177	98
552.39	99
552.603	91
552.816	113
553.029	100
553.242	98
553.455	102
553.667	104
553.88	99
554.093	107
554.306	99
554.519	99
554.732	105
554.944	99
555.157	109
555.37	97
555.583	109
555.795	116
556.008	108
556.221	118
556.433	96
556.646	99
556.859	107
557.071	85
557.284	90
557.496	101
557.709	100
557.921	97
558.134	100
558.346	115
558.559	95
558.771	101
558.984	93
559.196	88
559.409	78
559.621	102
559.833	109
560.046	93
560.258	105
560.47	103
560.683	96
560.895	96
561.107	114
561.32	111
561.532	110
561.744	103
561.956	100
562.168	102
562.381	115
562.593	110
562.805	88
563.017	83
563.229	83
563.441	116
563.653	86
563.865	94
564.077	97
564.289	97
564.501	110
564.713	100
564.925	102
565.137	94
565.349	108
565.561	102
565.773	112
565.985	120
566.197	102
566.408	98
566.62	122
566.832	106
567.044	105
567.255	105
567.467	94
567.679	107
567.891	101
568.102	115
568.314	116
568.526	105
568.737	104
568.949	105
569.161	89
569.372	92
569.584	97
569.795	93
570.007	97
570.218	93
570.43	88
570.641	93
570.853	101
571.064	84
571.276	101
571.487	92
571.698	95
571.91	105
572.121	103
572.333	98
572.544	105
572.755	72
572.966	85
573.178	96
573.389	88
573.6	97
573.811	100
574.023	88
574.234	90
574.445	80
574.656	111
574.867	84
575.078	90
575.289	84
575.501	95
575.712	86
575.923	92
576.134	105
576.345	76
576.556	95
576.767	98
576.978	100
577.188	102
577.399	80
577.61	98
577.821	93
578.032	103
578.243	84
578.454	104
578.665	97
578.875	98
579.086	104
579.297	82
579.508	98
579.718	94
579.929	94
580.14	76
580.35	92
580.561	101
580.772	91
580.982	90
581.193	91
581.403	95
581.614	93
581.825	87
582.035	85
582.246	92
582.456	92
582.667	95
582.877	82
583.087	80
583.298	89
583.508	94
583.719	84
583.929	94
584.139	96
584.35	105
584.56	95
584.77	79
584.981	88
585.191	92
585.401	94
585.611	98
585.821	97
586.032	99
586.242	92
586.452	100
586.662	87
586.872	77
587.082	81
587.292	84
587.502	89
587.713	96
587.923	100
588.133	94
588.343	97
588.553	89
588.762	98
588.972	103
589.182	105
589.392	97
589.602	94
589.812	89
590.022	113
590.232	90
590.441	103
590.651	99
590.861	87
591.071	86
591.281	86
591.49	78
591.7	97
591.91	104
592.119	88
592.329	90
592.539	90
592.748	99
592.958	114
593.167	106
593.377	99
593.587	88
593.796	93
594.006	94
594.215	99
594.424	99
594.634	92
594.843	91
595.053	97
595.262	93
595.472	87
595.681	74
595.89	98
596.1	89
596.309	76
596.518	100
596.727	91
596.937	96
597.146	92
597.355	82
597.564	90
597.774	111
597.983	98
598.192	84
598.401	87
598.61	82
598.819	95
599.028	96
599.237	86
599.446	86
599.655	92
599.864	109
600.073	91
600.282	79
600.491	69
600.7	77
600.909	94
601.118	92
601.327	71
601.536	77
601.745	88
601.953	91
602.162	81
602.371	92
602.58	102
602.789	81
602.997	83
603.206	93
603.415	99
603.623	98
603.832	82
604.041	96
604.249	93
604.458	91
604.666	85
604.875	83
605.084	97
605.292	83
605.501	86
605.709	89
605.918	90
606.126	108
606.334	89
606.543	81
606.751	89
606.96	93
607.168	101
607.376	81
607.585	98
607.793	98
608.001	91
608.21	95
608.418	88
608.626	96
608.834	82
609.043	99
609.251	88
609.459	88
609.667	93
609.875	94
610.083	94
610.291	85
610.499	84
610.707	89
610.916	96
611.124	85
611.332	105
611.54	95
611.748	79
611.955	83
612.163	89
612.371	85
612.579	84
612.787	91
612.995	93
613.203	85
613.411	88
613.618	83
613.826	93
614.034	101
614.242	97
614.449	77
614.657	97
614.865	78
615.072	89
615.28	87
615.488	89
615.695	98
615.903	80
616.111	69
616.318	93
616.526	94
616.733	94
616.941	91
617.148	81
617.356	88
617.563	91
617.771	91
617.978	90
618.185	98
618.393	95
618.6	81
618.807	75
619.015	93
619.222	75
619.429	92
619.637	91
619.844	73
620.051	101
620.258	98
620.466	93
620.673	89
620.88	94
621.087	98
621.294	83
621.501	71
621.708	93
621.915	99
622.122	82
622.329	91
622.536	93
622.743	81
622.95	96
623.157	84
623.364	88
623.571	86
623.778	74
623.985	102
624.192	102
624.399	93
624.606	88
624.812	92
625.019	98
625.226	93
625.433	99
625.639	97
625.846	79
626.053	87
626.259	92
626.466	82
626.673	85
626.879	84
627.086	85
627.293	89
627.499	73
627.706	91
627.912	92
628.119	86
628.325	85
628.532	89
628.738	87
628.945	85
629.151	91
629.357	86
629.564	89
629.77	84
629.976	90
630.183	84
630.389	77
630.595	93
630.802	102
631.008	86
631.214	98
631.42	106
631.627	99
631.833	93
632.039	93
632.245	85
632.451	88
632.657	79
632.863	95
633.069	93
633.275	78
633.481	92
633.688	85
633.893	81
634.099	84
634.305	91
634.511	80
634.717	80
634.923	83
635.129	80
635.335	103
635.541	94
635.747	97
635.952	98
636.158	85
636.364	106
636.57	99
636.775	88
636.981	88
637.187	88
637.392	87
637.598	82
637.804	73
638.009	84
638.215	91
638.421	73
638.626	91
638.832	89
639.037	76
639.243	84
639.448	92
639.654	100
639.859	82
640.065	102
640.27	94
640.475	89
640.681	97
640.886	81
641.091	87
641.297	90
641.502	77
641.707	97
641.913	83
642.118	99
642.323	76
642.528	78
642.733	95
642.939	97
643.144	90
643.349	94
643.554	96
643.759	83
643.964	75
644.169	77
644.374	101
644.579	84
644.784	77
644.989	77
645.194	82
645.399	97
645.604	86
645.809	88
646.014	75
646.219	84
646.423	85
646.628	105
646.833	80
647.038	98
647.243	85
647.447	87
647.652	88
647.857	80
648.062	89
648.266	85
648.471	84
648.676	79
648.88	87
649.085	88
649.289	76
649.494	84
649.698	83
649.903	87
650.107	93
650.312	78
650.516	87
650.721	90
650.925	85
651.13	88
651.334	87
651.539	69
651.743	86
651.947	83
652.152	86
652.356	97
652.56	99
652.764	75
652.969	86
653.173	81
653.377	83
653.581	78
653.785	85
653.99	77
654.194	93
654.398	88
654.602	93
654.806	94
655.01	83
655.214	88
655.418	88
655.622	84
655.826	81
656.03	72
656.234	93
656.438	99
656.642	86
656.846	88
657.049	78
657.253	77
657.457	77
657.661	91
657.865	79
658.068	95
658.272	84
658.476	85
658.68	78
658.883	70
659.087	87
659.291	76
659.494	93
659.698	92
659.901	83
660.105	85
660.309	77
660.512	83
660.716	91
660.919	79
661.123	83
661.326	90
661.53	88
661.733	87
661.936	85
662.14	94
662.343	68
662.546	88
662.75	93
662.953	76
663.156	78
663.36	70
663.563	77
663.766	86
663.969	71
664.173	82
664.376	80
664.579	92
664.782	79
664.985	95
665.188	87
665.391	82
665.594	98
665.797	75
666	84
666.203	73
666.406	77
666.609	93
666.812	85
667.015	79
667.218	82
667.421	80
667.624	83
667.827	94
668.03	72
668.232	89
668.435	79
668.638	85
668.841	84
669.043	79
669.246	88
669.449	88
669.651	87
669.854	92
670.057	76
670.259	78
670.462	85
670.665	75
670.867	88
671.07	83
671.272	81
671.475	85
671.677	90
671.88	89
672.082	77
672.284	92
672.487	97
672.689	96
672.892	71
