Data from Location5.07152019.Energy5.Lamp.07192019.3%Agarose_HRD10591_15-39-24-395.txt Node
Date: Fri Jul 19 15:39:24 EDT 2019
User: cochatt
Spectrometer: HR+D1059
Trigger mode: 1
Integration Time (sec): 1.000000E-1
Scans to average: 1
Electric dark correction enabled: true
Nonlinearity correction enabled: false
Boxcar width: 0
XAxis mode: Wavelengths
Number of Pixels in Spectrum: 2048
>>>>>Begin Spectral Data<<<<<
223.165	-24
223.4	-24
223.635	-24
223.869	-6
224.104	-22
224.338	-14
224.573	-22
224.808	8
225.042	8
225.277	-13
225.511	-15
225.746	3
225.98	12
226.215	10
226.449	16
226.683	16
226.918	20
227.152	23
227.387	34
227.621	27
227.856	53
228.09	36
228.324	56
228.559	60
228.793	44
229.027	56
229.262	58
229.496	76
229.73	70
229.964	68
230.199	69
230.433	72
230.667	69
230.901	80
231.136	91
231.37	71
231.604	76
231.838	88
232.072	86
232.306	78
232.541	75
232.775	86
233.009	82
233.243	82
233.477	78
233.711	82
233.945	72
234.179	78
234.413	78
234.647	81
234.881	82
235.115	73
235.349	80
235.583	77
235.817	73
236.051	67
236.285	72
236.519	72
236.753	79
236.987	81
237.221	84
237.455	80
237.689	81
237.922	83
238.156	57
238.39	74
238.624	78
238.858	76
239.091	80
239.325	69
239.559	65
239.793	67
240.027	72
240.26	82
240.494	74
240.728	72
240.961	70
241.195	81
241.429	85
241.662	79
241.896	72
242.13	74
242.363	73
242.597	85
242.83	71
243.064	81
243.298	73
243.531	79
243.765	74
243.998	79
244.232	62
244.465	84
244.699	71
244.932	82
245.166	69
245.399	63
245.633	72
245.866	68
246.099	64
246.333	80
246.566	87
246.8	90
247.033	72
247.266	76
247.5	67
247.733	64
247.966	63
248.2	72
248.433	76
248.666	79
248.899	72
249.133	87
249.366	77
249.599	81
249.832	80
250.066	90
250.299	78
250.532	82
250.765	83
250.998	66
251.231	86
251.465	78
251.698	85
251.931	71
252.164	81
252.397	71
252.63	90
252.863	74
253.096	67
253.329	90
253.562	70
253.795	72
254.028	84
254.261	75
254.494	86
254.727	76
254.96	70
255.193	69
255.426	74
255.659	78
255.892	80
256.124	83
256.357	71
256.59	90
256.823	75
257.056	69
257.289	81
257.521	81
257.754	80
257.987	71
258.22	74
258.452	80
258.685	82
258.918	83
259.151	94
259.383	78
259.616	71
259.849	97
260.081	91
260.314	71
260.547	67
260.779	80
261.012	85
261.244	76
261.477	81
261.71	84
261.942	69
262.175	88
262.407	81
262.64	82
262.872	85
263.105	66
263.337	86
263.57	98
263.802	83
264.035	82
264.267	90
264.499	90
264.732	81
264.964	77
265.197	74
265.429	95
265.661	80
265.894	95
266.126	95
266.358	79
266.591	84
266.823	77
267.055	74
267.287	67
267.52	75
267.752	82
267.984	69
268.216	72
268.448	86
268.681	82
268.913	95
269.145	92
269.377	93
269.609	89
269.841	92
270.073	79
270.306	80
270.538	73
270.77	73
271.002	79
271.234	84
271.466	80
271.698	75
271.93	77
272.162	67
272.394	83
272.626	65
272.858	92
273.09	76
273.322	89
273.553	82
273.785	80
274.017	80
274.249	87
274.481	84
274.713	79
274.945	84
275.176	70
275.408	88
275.64	99
275.872	99
276.104	79
276.335	85
276.567	90
276.799	73
277.031	85
277.262	71
277.494	77
277.726	83
277.957	75
278.189	83
278.421	72
278.652	80
278.884	90
279.115	73
279.347	82
279.579	74
279.81	65
280.042	69
280.273	79
280.505	75
280.736	81
280.968	79
281.199	75
281.431	77
281.662	73
281.894	80
282.125	87
282.356	77
282.588	72
282.819	80
283.051	85
283.282	80
283.513	84
283.745	72
283.976	92
284.207	84
284.439	81
284.67	86
284.901	87
285.132	72
285.364	97
285.595	88
285.826	89
286.057	78
286.288	70
286.52	68
286.751	68
286.982	73
287.213	85
287.444	87
287.675	80
287.906	76
288.138	76
288.369	78
288.6	87
288.831	72
289.062	65
289.293	82
289.524	86
289.755	74
289.986	86
290.217	80
290.448	100
290.679	75
290.91	84
291.141	87
291.371	92
291.602	89
291.833	76
292.064	80
292.295	90
292.526	89
292.757	80
292.987	87
293.218	75
293.449	81
293.68	84
293.91	87
294.141	66
294.372	83
294.603	88
294.833	80
295.064	89
295.295	89
295.525	77
295.756	85
295.987	84
296.217	77
296.448	93
296.679	84
296.909	78
297.14	88
297.37	77
297.601	75
297.831	82
298.062	85
298.292	81
298.523	85
298.753	87
298.984	80
299.214	90
299.445	93
299.675	84
299.905	68
300.136	85
300.366	77
300.597	74
300.827	87
301.057	82
301.288	77
301.518	100
301.748	85
301.979	65
302.209	84
302.439	80
302.669	88
302.9	75
303.13	86
303.36	89
303.59	84
303.82	90
304.051	76
304.281	96
304.511	97
304.741	89
304.971	96
305.201	91
305.431	70
305.661	80
305.891	67
306.121	80
306.352	88
306.582	71
306.812	79
307.042	87
307.272	76
307.502	94
307.731	90
307.961	69
308.191	95
308.421	88
308.651	62
308.881	75
309.111	96
309.341	88
309.571	80
309.8	70
310.03	72
310.26	73
310.49	78
310.72	83
310.949	86
311.179	69
311.409	75
311.639	80
311.868	87
312.098	69
312.328	83
312.557	85
312.787	86
313.017	87
313.246	68
313.476	79
313.706	81
313.935	78
314.165	96
314.394	81
314.624	88
314.853	65
315.083	98
315.312	86
315.542	84
315.771	76
316.001	89
316.23	88
316.46	86
316.689	78
316.919	82
317.148	84
317.377	85
317.607	73
317.836	80
318.065	72
318.295	92
318.524	81
318.753	81
318.983	72
319.212	72
319.441	67
319.67	77
319.9	86
320.129	71
320.358	81
320.587	71
320.816	97
321.046	74
321.275	80
321.504	78
321.733	86
321.962	83
322.191	86
322.42	90
322.649	88
322.878	82
323.108	78
323.337	68
323.566	91
323.795	84
324.024	92
324.253	85
324.482	72
324.71	80
324.939	92
325.168	81
325.397	93
325.626	85
325.855	79
326.084	69
326.313	87
326.542	70
326.77	77
326.999	87
327.228	57
327.457	68
327.686	69
327.914	92
328.143	96
328.372	96
328.6	75
328.829	93
329.058	81
329.287	87
329.515	81
329.744	79
329.972	82
330.201	82
330.43	77
330.658	81
330.887	71
331.115	77
331.344	80
331.572	77
331.801	87
332.03	85
332.258	74
332.486	75
332.715	80
332.943	78
333.172	77
333.4	72
333.629	81
333.857	93
334.085	89
334.314	86
334.542	86
334.771	79
334.999	89
335.227	89
335.455	85
335.684	100
335.912	84
336.14	84
336.369	80
336.597	82
336.825	71
337.053	87
337.281	96
337.51	86
337.738	77
337.966	82
338.194	82
338.422	77
338.65	80
338.878	81
339.106	71
339.334	84
339.562	60
339.79	83
340.018	90
340.246	73
340.474	68
340.702	79
340.93	84
341.158	94
341.386	82
341.614	73
341.842	80
342.07	81
342.298	89
342.526	86
342.754	70
342.981	63
343.209	90
343.437	84
343.665	87
343.893	79
344.12	88
344.348	84
344.576	76
344.804	82
345.031	74
345.259	88
345.487	74
345.714	81
345.942	74
346.17	79
346.397	83
346.625	89
346.853	81
347.08	89
347.308	89
347.535	79
347.763	78
347.99	89
348.218	75
348.445	73
348.673	70
348.9	76
349.128	92
349.355	83
349.583	85
349.81	90
350.037	74
350.265	71
350.492	86
350.72	75
350.947	79
351.174	96
351.402	70
351.629	89
351.856	82
352.083	78
352.311	83
352.538	77
352.765	81
352.992	89
353.22	83
353.447	82
353.674	88
353.901	69
354.128	86
354.355	78
354.583	89
354.81	79
355.037	84
355.264	83
355.491	83
355.718	89
355.945	82
356.172	85
356.399	79
356.626	89
356.853	89
357.08	82
357.307	64
357.534	80
357.761	85
357.988	90
358.215	83
358.441	74
358.668	88
358.895	77
359.122	76
359.349	74
359.576	95
359.802	78
360.029	88
360.256	88
360.483	87
360.709	79
360.936	76
361.163	61
361.39	87
361.616	78
361.843	82
362.07	85
362.296	92
362.523	82
362.749	86
362.976	71
363.203	86
363.429	77
363.656	75
363.882	80
364.109	79
364.335	70
364.562	77
364.788	75
365.015	87
365.241	84
365.468	92
365.694	102
365.92	85
366.147	89
366.373	73
366.599	79
366.826	86
367.052	78
367.278	79
367.505	80
367.731	80
367.957	85
368.184	92
368.41	85
368.636	88
368.862	77
369.089	78
369.315	86
369.541	96
369.767	72
369.993	77
370.219	83
370.445	80
370.672	79
370.898	76
371.124	92
371.35	98
371.576	81
371.802	86
372.028	83
372.254	74
372.48	74
372.706	85
372.932	73
373.158	80
373.384	87
373.61	77
373.835	102
374.061	87
374.287	69
374.513	80
374.739	75
374.965	84
375.191	74
375.416	78
375.642	79
375.868	79
376.094	92
376.319	71
376.545	85
376.771	69
376.997	71
377.222	77
377.448	88
377.674	85
377.899	81
378.125	84
378.35	83
378.576	78
378.802	72
379.027	82
379.253	77
379.478	74
379.704	68
379.929	74
380.155	85
380.38	89
380.606	64
380.831	86
381.057	97
381.282	83
381.507	81
381.733	80
381.958	80
382.184	94
382.409	90
382.634	78
382.86	80
383.085	85
383.31	61
383.535	78
383.761	86
383.986	89
384.211	90
384.436	70
384.662	93
384.887	86
385.112	81
385.337	83
385.562	98
385.787	79
386.013	77
386.238	71
386.463	77
386.688	84
386.913	79
387.138	80
387.363	81
387.588	75
387.813	74
388.038	87
388.263	73
388.488	88
388.713	96
388.938	89
389.163	75
389.387	78
389.612	78
389.837	77
390.062	73
390.287	74
390.512	83
390.736	82
390.961	90
391.186	82
391.411	78
391.636	70
391.86	89
392.085	75
392.31	70
392.534	94
392.759	89
392.984	84
393.208	90
393.433	94
393.658	75
393.882	78
394.107	98
394.331	81
394.556	82
394.78	80
395.005	68
395.229	76
395.454	95
395.678	92
395.903	79
396.127	87
396.352	74
396.576	92
396.801	75
397.025	89
397.249	88
397.474	95
397.698	86
397.922	87
398.147	78
398.371	90
398.595	71
398.82	78
399.044	87
399.268	90
399.492	86
399.717	80
399.941	91
400.165	95
400.389	95
400.613	87
400.837	72
401.062	85
401.286	92
401.51	90
401.734	97
401.958	99
402.182	84
402.406	78
402.63	81
402.854	103
403.078	85
403.302	82
403.526	85
403.75	97
403.974	65
404.198	92
404.422	79
404.645	79
404.869	77
405.093	100
405.317	82
405.541	77
405.765	88
405.988	76
406.212	73
406.436	94
406.66	80
406.883	87
407.107	93
407.331	92
407.555	99
407.778	74
408.002	87
408.226	76
408.449	86
408.673	86
408.896	82
409.12	87
409.344	85
409.567	92
409.791	75
410.014	80
410.238	84
410.461	71
410.685	81
410.908	80
411.132	93
411.355	84
411.578	83
411.802	88
412.025	74
412.249	82
412.472	83
412.695	72
412.919	96
413.142	93
413.365	96
413.589	92
413.812	98
414.035	84
414.258	89
414.482	82
414.705	89
414.928	96
415.151	71
415.374	95
415.597	81
415.821	89
416.044	95
416.267	100
416.49	94
416.713	78
416.936	86
417.159	89
417.382	80
417.605	83
417.828	88
418.051	83
418.274	99
418.497	95
418.72	84
418.943	89
419.166	83
419.389	82
419.611	84
419.834	89
420.057	96
420.28	100
420.503	101
420.726	89
420.948	85
421.171	84
421.394	88
421.617	111
421.839	102
422.062	79
422.285	73
422.507	101
422.73	94
422.953	84
423.175	85
423.398	83
423.621	92
423.843	89
424.066	84
424.288	103
424.511	82
424.733	91
424.956	86
425.178	96
425.401	98
425.623	85
425.846	87
426.068	94
426.291	84
426.513	90
426.735	90
426.958	99
427.18	92
427.402	88
427.625	81
427.847	85
428.069	90
428.292	82
428.514	90
428.736	89
428.958	90
429.181	83
429.403	97
429.625	82
429.847	86
430.069	83
430.292	106
430.514	82
430.736	89
430.958	92
431.18	84
431.402	93
431.624	92
431.846	88
432.068	72
432.29	83
432.512	72
432.734	94
432.956	101
433.178	98
433.4	93
433.622	94
433.844	100
434.066	89
434.287	82
434.509	80
434.731	86
434.953	92
435.175	97
435.397	99
435.618	78
435.84	84
436.062	88
436.284	84
436.505	93
436.727	94
436.949	96
437.17	86
437.392	97
437.614	82
437.835	89
438.057	84
438.278	64
438.5	93
438.721	92
438.943	90
439.165	93
439.386	89
439.608	96
439.829	84
440.05	100
440.272	93
440.493	87
440.715	100
440.936	86
441.158	110
441.379	109
441.6	105
441.822	92
442.043	90
442.264	94
442.486	89
442.707	89
442.928	104
443.149	93
443.371	84
443.592	94
443.813	92
444.034	84
444.255	79
444.476	93
444.698	85
444.919	91
445.14	226
445.361	155
445.582	101
445.803	84
446.024	86
446.245	98
446.466	94
446.687	110
446.908	100
447.129	102
447.35	96
447.571	101
447.792	84
448.013	99
448.234	102
448.455	104
448.675	87
448.896	95
449.117	90
449.338	97
449.559	85
449.779	78
450	93
450.221	92
450.442	90
450.662	87
450.883	94
451.104	109
451.324	90
451.545	95
451.766	78
451.986	92
452.207	93
452.428	86
452.648	88
452.869	100
453.089	82
453.31	100
453.53	82
453.751	94
453.971	90
454.192	77
454.412	93
454.633	75
454.853	84
455.073	88
455.294	84
455.514	93
455.734	89
455.955	86
456.175	75
456.395	81
456.616	89
456.836	88
457.056	112
457.276	84
457.497	75
457.717	92
457.937	81
458.157	88
458.377	76
458.598	76
458.818	86
459.038	90
459.258	72
459.478	71
459.698	94
459.918	85
460.138	94
460.358	80
460.578	88
460.798	82
461.018	76
461.238	89
461.458	90
461.678	73
461.898	80
462.118	80
462.338	87
462.558	77
462.777	84
462.997	87
463.217	86
463.437	84
463.657	82
463.876	88
464.096	88
464.316	76
464.536	84
464.755	91
464.975	68
465.195	76
465.414	96
465.634	98
465.854	85
466.073	87
466.293	80
466.512	82
466.732	74
466.951	89
467.171	90
467.391	87
467.61	94
467.829	99
468.049	109
468.268	80
468.488	93
468.707	86
468.927	80
469.146	74
469.365	93
469.585	99
469.804	103
470.023	70
470.243	96
470.462	80
470.681	92
470.901	84
471.12	92
471.339	99
471.558	100
471.777	90
471.997	86
472.216	93
472.435	104
472.654	67
472.873	75
473.092	94
473.311	79
473.53	89
473.749	85
473.968	84
474.187	75
474.406	87
474.625	82
474.844	98
475.063	109
475.282	86
475.501	82
475.72	92
475.939	81
476.158	98
476.377	100
476.596	90
476.814	85
477.033	75
477.252	88
477.471	70
477.69	98
477.908	108
478.127	100
478.346	100
478.564	100
478.783	94
479.002	85
479.22	97
479.439	79
479.658	88
479.876	82
480.095	87
480.313	90
480.532	89
480.751	92
480.969	79
481.188	78
481.406	81
481.624	87
481.843	82
482.061	89
482.28	96
482.498	84
482.717	82
482.935	81
483.153	105
483.372	104
483.59	85
483.808	97
484.027	84
484.245	88
484.463	90
484.681	100
484.9	99
485.118	86
485.336	82
485.554	86
485.772	83
485.99	90
486.209	80
486.427	67
486.645	89
486.863	97
487.081	100
487.299	96
487.517	88
487.735	109
487.953	97
488.171	117
488.389	111
488.607	100
488.825	93
489.043	83
489.261	98
489.479	105
489.696	85
489.914	98
490.132	85
490.35	93
490.568	106
490.786	103
491.003	111
491.221	103
491.439	110
491.657	100
491.874	106
492.092	116
492.31	132
492.527	106
492.745	121
492.963	116
493.18	103
493.398	100
493.615	119
493.833	112
494.05	97
494.268	111
494.485	107
494.703	98
494.92	121
495.138	116
495.355	110
495.573	118
495.79	112
496.008	112
496.225	101
496.442	112
496.66	100
496.877	104
497.094	113
497.312	105
497.529	100
497.746	101
497.963	84
498.181	94
498.398	95
498.615	83
498.832	89
499.049	89
499.267	94
499.484	78
499.701	83
499.918	92
500.135	85
500.352	94
500.569	98
500.786	106
501.003	100
501.22	106
501.437	90
501.654	81
501.871	86
502.088	87
502.305	89
502.522	100
502.739	97
502.956	102
503.172	93
503.389	95
503.606	80
503.823	74
504.04	84
504.256	82
504.473	90
504.69	98
504.907	112
505.123	79
505.34	92
505.557	98
505.773	101
505.99	70
506.207	84
506.423	90
506.64	95
506.856	85
507.073	109
507.289	102
507.506	82
507.722	90
507.939	93
508.155	87
508.372	84
508.588	76
508.805	92
509.021	87
509.238	86
509.454	79
509.67	83
509.887	85
510.103	90
510.319	83
510.536	76
510.752	72
510.968	81
511.184	73
511.401	79
511.617	95
511.833	88
512.049	81
512.265	99
512.481	99
512.698	79
512.914	86
513.13	89
513.346	79
513.562	91
513.778	74
513.994	82
514.21	74
514.426	66
514.642	93
514.858	93
515.074	85
515.29	84
515.506	83
515.721	69
515.937	74
516.153	79
516.369	77
516.585	80
516.801	80
517.016	101
517.232	92
517.448	69
517.664	72
517.879	100
518.095	87
518.311	77
518.527	92
518.742	81
518.958	81
519.173	94
519.389	102
519.605	81
519.82	74
520.036	84
520.251	70
520.467	88
520.682	80
520.898	88
521.113	87
521.329	88
521.544	81
521.76	80
521.975	73
522.19	95
522.406	83
522.621	82
522.836	87
523.052	80
523.267	92
523.482	86
523.698	92
523.913	88
524.128	92
524.343	98
524.559	90
524.774	94
524.989	76
525.204	78
525.419	91
525.634	88
525.849	90
526.064	92
526.28	83
526.495	76
526.71	98
526.925	77
527.14	83
527.355	80
527.57	78
527.785	78
527.999	82
528.214	87
528.429	80
528.644	87
528.859	108
529.074	96
529.289	93
529.503	95
529.718	84
529.933	81
530.148	88
530.363	80
530.577	89
530.792	74
531.007	90
531.221	89
531.436	81
531.651	73
531.865	80
532.08	82
532.295	81
532.509	76
532.724	89
532.938	91
533.153	87
533.367	79
533.582	79
533.796	83
534.011	95
534.225	81
534.44	97
534.654	74
534.868	94
535.083	73
535.297	83
535.511	76
535.726	74
535.94	77
536.154	89
536.369	86
536.583	97
536.797	92
537.011	88
537.225	74
537.44	83
537.654	74
537.868	73
538.082	78
538.296	94
538.51	95
538.724	94
538.938	83
539.153	105
539.367	86
539.581	95
539.795	72
540.009	90
540.222	92
540.436	80
540.65	89
540.864	87
541.078	92
541.292	84
541.506	115
541.72	96
541.934	115
542.147	129
542.361	116
542.575	111
542.789	108
543.002	95
543.216	102
543.43	90
543.644	98
543.857	95
544.071	97
544.285	106
544.498	95
544.712	103
544.925	100
545.139	110
545.352	116
545.566	112
545.779	102
545.993	94
546.206	105
546.42	123
546.633	101
546.847	111
547.06	105
547.274	119
547.487	110
547.7	126
547.914	116
548.127	105
548.34	100
548.554	102
548.767	88
548.98	100
549.193	95
549.407	110
549.62	100
549.833	111
550.046	84
550.259	106
550.473	103
550.686	103
550.899	115
551.112	104
551.325	94
551.538	83
551.751	95
551.964	92
552.177	93
552.39	97
552.603	97
552.816	110
553.029	104
553.242	101
553.455	104
553.667	104
553.88	89
554.093	103
554.306	93
554.519	92
554.732	95
554.944	98
555.157	99
555.37	96
555.583	91
555.795	94
556.008	115
556.221	90
556.433	93
556.646	101
556.859	95
557.071	93
557.284	101
557.496	104
557.709	97
557.921	80
558.134	98
558.346	97
558.559	104
558.771	87
558.984	91
559.196	102
559.409	93
559.621	102
559.833	94
560.046	96
560.258	98
560.47	99
560.683	94
560.895	105
561.107	76
561.32	93
561.532	101
561.744	98
561.956	86
562.168	84
562.381	108
562.593	103
562.805	97
563.017	96
563.229	102
563.441	80
563.653	97
563.865	103
564.077	102
564.289	98
564.501	97
564.713	86
564.925	90
565.137	79
565.349	93
565.561	90
565.773	97
565.985	98
566.197	92
566.408	87
566.62	89
566.832	85
567.044	96
567.255	87
567.467	84
567.679	77
567.891	86
568.102	78
568.314	83
568.526	67
568.737	91
568.949	89
569.161	83
569.372	74
569.584	101
569.795	85
570.007	91
570.218	85
570.43	86
570.641	88
570.853	94
571.064	90
571.276	97
571.487	82
571.698	94
571.91	92
572.121	87
572.333	94
572.544	76
572.755	77
572.966	77
573.178	86
573.389	82
573.6	95
573.811	85
574.023	88
574.234	88
574.445	80
574.656	73
574.867	80
575.078	84
575.289	73
575.501	72
575.712	80
575.923	95
576.134	80
576.345	91
576.556	82
576.767	87
576.978	77
577.188	79
577.399	82
577.61	84
577.821	72
578.032	96
578.243	99
578.454	77
578.665	71
578.875	85
579.086	97
579.297	86
579.508	75
579.718	88
579.929	95
580.14	89
580.35	78
580.561	80
580.772	89
580.982	92
581.193	70
581.403	69
581.614	81
581.825	76
582.035	98
582.246	81
582.456	75
582.667	88
582.877	77
583.087	77
583.298	93
583.508	74
583.719	69
583.929	70
584.139	78
584.35	84
584.56	84
584.77	73
584.981	77
585.191	81
585.401	70
585.611	84
585.821	84
586.032	67
586.242	79
586.452	78
586.662	80
586.872	86
587.082	79
587.292	74
587.502	71
587.713	82
587.923	88
588.133	76
588.343	92
588.553	89
588.762	96
588.972	92
589.182	83
589.392	90
589.602	79
589.812	82
590.022	80
590.232	82
590.441	77
590.651	82
590.861	71
591.071	78
591.281	76
591.49	83
591.7	98
591.91	93
592.119	71
592.329	89
592.539	85
592.748	80
592.958	90
593.167	78
593.377	77
593.587	83
593.796	85
594.006	88
594.215	82
594.424	87
594.634	95
594.843	97
595.053	76
595.262	73
595.472	96
595.681	79
595.89	86
596.1	92
596.309	88
596.518	81
596.727	86
596.937	86
597.146	69
597.355	89
597.564	93
597.774	72
597.983	86
598.192	87
598.401	81
598.61	84
598.819	96
599.028	82
599.237	75
599.446	73
599.655	90
599.864	81
600.073	82
600.282	83
600.491	81
600.7	90
600.909	85
601.118	92
601.327	96
601.536	93
601.745	98
601.953	85
602.162	92
602.371	95
602.58	85
602.789	79
602.997	85
603.206	105
603.415	94
603.623	80
603.832	87
604.041	85
604.249	92
604.458	75
604.666	83
604.875	86
605.084	95
605.292	69
605.501	94
605.709	98
605.918	85
606.126	82
606.334	84
606.543	75
606.751	94
606.96	86
607.168	98
607.376	100
607.585	93
607.793	88
608.001	81
608.21	91
608.418	92
608.626	88
608.834	92
609.043	88
609.251	99
609.459	97
609.667	99
609.875	103
610.083	85
610.291	107
610.499	89
610.707	82
610.916	80
611.124	85
611.332	97
611.54	80
611.748	93
611.955	83
612.163	100
612.371	87
612.579	77
612.787	89
612.995	94
613.203	97
613.411	82
613.618	81
613.826	88
614.034	81
614.242	96
614.449	95
614.657	105
614.865	84
615.072	84
615.28	62
615.488	87
615.695	86
615.903	93
616.111	92
616.318	96
616.526	87
616.733	81
616.941	84
617.148	86
617.356	82
617.563	88
617.771	86
617.978	87
618.185	82
618.393	77
618.6	90
618.807	82
619.015	89
619.222	95
619.429	89
619.637	80
619.844	92
620.051	81
620.258	90
620.466	87
620.673	90
620.88	87
621.087	89
621.294	93
621.501	89
621.708	87
621.915	79
622.122	78
622.329	101
622.536	82
622.743	86
622.95	78
623.157	73
623.364	82
623.571	75
623.778	72
623.985	100
624.192	95
624.399	93
624.606	86
624.812	83
625.019	76
625.226	83
625.433	91
625.639	85
625.846	95
626.053	71
626.259	86
626.466	91
626.673	80
626.879	89
627.086	104
627.293	93
627.499	81
627.706	80
627.912	77
628.119	78
628.325	97
628.532	90
628.738	92
628.945	90
629.151	64
629.357	93
629.564	85
629.77	88
629.976	80
630.183	89
630.389	81
630.595	81
630.802	72
631.008	76
631.214	86
631.42	79
631.627	89
631.833	89
632.039	81
632.245	85
632.451	89
632.657	89
632.863	71
633.069	84
633.275	79
633.481	81
633.688	88
633.893	78
634.099	78
634.305	75
634.511	82
634.717	87
634.923	73
635.129	83
635.335	94
635.541	86
635.747	90
635.952	81
636.158	101
636.364	86
636.57	99
636.775	80
636.981	71
637.187	89
637.392	74
637.598	74
637.804	68
638.009	95
638.215	71
638.421	91
638.626	78
638.832	84
639.037	83
639.243	85
639.448	86
639.654	94
639.859	84
640.065	83
640.27	98
640.475	78
640.681	88
640.886	79
641.091	81
641.297	74
641.502	88
641.707	96
641.913	76
642.118	86
642.323	78
642.528	89
642.733	87
642.939	96
643.144	98
643.349	65
643.554	94
643.759	86
643.964	91
644.169	89
644.374	88
644.579	83
644.784	87
644.989	88
645.194	83
645.399	96
645.604	88
645.809	87
646.014	83
646.219	85
646.423	96
646.628	94
646.833	87
647.038	87
647.243	86
647.447	75
647.652	85
647.857	82
648.062	82
648.266	95
648.471	90
648.676	79
648.88	78
649.085	73
649.289	87
649.494	87
649.698	84
649.903	80
650.107	88
650.312	97
650.516	81
650.721	99
650.925	98
651.13	83
651.334	73
651.539	72
651.743	85
651.947	76
652.152	74
652.356	95
652.56	74
652.764	94
652.969	76
653.173	79
653.377	89
653.581	85
653.785	83
653.99	83
654.194	77
654.398	96
654.602	88
654.806	78
655.01	86
655.214	77
655.418	93
655.622	62
655.826	92
656.03	81
656.234	87
656.438	81
656.642	91
656.846	86
657.049	80
657.253	79
657.457	74
657.661	88
657.865	62
658.068	78
658.272	93
658.476	89
658.68	80
658.883	89
659.087	77
659.291	79
659.494	86
659.698	80
659.901	68
660.105	87
660.309	89
660.512	89
660.716	84
660.919	83
661.123	62
661.326	76
661.53	82
661.733	72
661.936	100
662.14	77
662.343	72
662.546	78
662.75	80
662.953	85
663.156	81
663.36	66
663.563	87
663.766	89
663.969	77
664.173	82
664.376	88
664.579	84
664.782	85
664.985	77
665.188	74
665.391	67
665.594	74
665.797	79
666	74
666.203	74
666.406	80
666.609	78
666.812	76
667.015	85
667.218	74
667.421	70
667.624	82
667.827	94
668.03	74
668.232	67
668.435	77
668.638	75
668.841	96
669.043	79
669.246	67
669.449	95
669.651	87
669.854	84
670.057	72
670.259	75
670.462	72
670.665	65
670.867	90
671.07	86
671.272	86
671.475	76
671.677	80
671.88	80
672.082	86
672.284	95
672.487	79
672.689	87
672.892	92
