Data from Location5.07152019.Energy5.Lamp.07192019.3%Agarose_HRD10591_16-05-40-630.txt Node
Date: Fri Jul 19 16:05:40 EDT 2019
User: cochatt
Spectrometer: HR+D1059
Trigger mode: 1
Integration Time (sec): 1.000000E-1
Scans to average: 1
Electric dark correction enabled: true
Nonlinearity correction enabled: false
Boxcar width: 0
XAxis mode: Wavelengths
Number of Pixels in Spectrum: 2048
>>>>>Begin Spectral Data<<<<<
223.165	-29
223.4	-29
223.635	-29
223.869	-16
224.104	-15
224.338	-10
224.573	-10
224.808	-13
225.042	-14
225.277	4
225.511	-2
225.746	9
225.98	19
226.215	2
226.449	11
226.683	24
226.918	10
227.152	30
227.387	35
227.621	52
227.856	43
228.09	54
228.324	44
228.559	52
228.793	54
229.027	44
229.262	65
229.496	65
229.73	61
229.964	84
230.199	76
230.433	79
230.667	84
230.901	71
231.136	82
231.37	80
231.604	79
231.838	78
232.072	84
232.306	87
232.541	94
232.775	86
233.009	71
233.243	74
233.477	88
233.711	82
233.945	68
234.179	84
234.413	79
234.647	79
234.881	80
235.115	85
235.349	75
235.583	79
235.817	84
236.051	80
236.285	82
236.519	87
236.753	66
236.987	76
237.221	73
237.455	79
237.689	80
237.922	85
238.156	79
238.39	77
238.624	70
238.858	83
239.091	78
239.325	66
239.559	73
239.793	81
240.027	81
240.26	69
240.494	88
240.728	70
240.961	85
241.195	91
241.429	102
241.662	80
241.896	73
242.13	88
242.363	78
242.597	67
242.83	76
243.064	82
243.298	76
243.531	81
243.765	86
243.998	70
244.232	58
244.465	75
244.699	79
244.932	78
245.166	61
245.399	68
245.633	72
245.866	80
246.099	83
246.333	83
246.566	69
246.8	73
247.033	77
247.266	75
247.5	75
247.733	80
247.966	86
248.2	77
248.433	71
248.666	75
248.899	77
249.133	77
249.366	89
249.599	82
249.832	90
250.066	86
250.299	71
250.532	72
250.765	70
250.998	87
251.231	83
251.465	89
251.698	88
251.931	73
252.164	81
252.397	68
252.63	100
252.863	76
253.096	75
253.329	80
253.562	84
253.795	78
254.028	71
254.261	84
254.494	84
254.727	80
254.96	86
255.193	84
255.426	76
255.659	83
255.892	84
256.124	71
256.357	78
256.59	77
256.823	75
257.056	76
257.289	76
257.521	91
257.754	93
257.987	84
258.22	85
258.452	73
258.685	78
258.918	91
259.151	74
259.383	94
259.616	84
259.849	89
260.081	86
260.314	79
260.547	84
260.779	82
261.012	89
261.244	87
261.477	89
261.71	67
261.942	83
262.175	75
262.407	80
262.64	76
262.872	88
263.105	89
263.337	94
263.57	91
263.802	76
264.035	76
264.267	88
264.499	79
264.732	76
264.964	73
265.197	97
265.429	87
265.661	94
265.894	76
266.126	101
266.358	83
266.591	94
266.823	86
267.055	95
267.287	93
267.52	82
267.752	92
267.984	82
268.216	82
268.448	80
268.681	82
268.913	94
269.145	72
269.377	97
269.609	71
269.841	80
270.073	79
270.306	67
270.538	77
270.77	92
271.002	80
271.234	79
271.466	94
271.698	80
271.93	88
272.162	78
272.394	91
272.626	83
272.858	86
273.09	91
273.322	88
273.553	82
273.785	84
274.017	91
274.249	79
274.481	88
274.713	95
274.945	97
275.176	77
275.408	102
275.64	76
275.872	93
276.104	87
276.335	92
276.567	114
276.799	76
277.031	81
277.262	87
277.494	78
277.726	96
277.957	88
278.189	93
278.421	87
278.652	81
278.884	98
279.115	73
279.347	84
279.579	94
279.81	87
280.042	86
280.273	84
280.505	96
280.736	90
280.968	83
281.199	83
281.431	83
281.662	86
281.894	88
282.125	82
282.356	90
282.588	82
282.819	98
283.051	90
283.282	95
283.513	102
283.745	99
283.976	80
284.207	100
284.439	84
284.67	83
284.901	66
285.132	73
285.364	86
285.595	96
285.826	78
286.057	105
286.288	80
286.52	90
286.751	90
286.982	94
287.213	86
287.444	89
287.675	93
287.906	97
288.138	93
288.369	94
288.6	89
288.831	86
289.062	103
289.293	81
289.524	80
289.755	86
289.986	86
290.217	97
290.448	84
290.679	84
290.91	94
291.141	75
291.371	88
291.602	103
291.833	96
292.064	89
292.295	96
292.526	87
292.757	103
292.987	94
293.218	83
293.449	80
293.68	97
293.91	97
294.141	82
294.372	95
294.603	78
294.833	87
295.064	83
295.295	72
295.525	96
295.756	93
295.987	92
296.217	84
296.448	103
296.679	86
296.909	104
297.14	86
297.37	89
297.601	88
297.831	88
298.062	81
298.292	91
298.523	92
298.753	94
298.984	80
299.214	84
299.445	86
299.675	94
299.905	91
300.136	86
300.366	90
300.597	94
300.827	96
301.057	85
301.288	83
301.518	102
301.748	101
301.979	80
302.209	89
302.439	94
302.669	88
302.9	86
303.13	98
303.36	87
303.59	103
303.82	98
304.051	91
304.281	96
304.511	98
304.741	81
304.971	100
305.201	91
305.431	86
305.661	96
305.891	91
306.121	99
306.352	94
306.582	111
306.812	86
307.042	92
307.272	90
307.502	90
307.731	71
307.961	84
308.191	104
308.421	95
308.651	94
308.881	90
309.111	83
309.341	86
309.571	95
309.8	86
310.03	90
310.26	88
310.49	87
310.72	106
310.949	76
311.179	84
311.409	99
311.639	80
311.868	72
312.098	83
312.328	103
312.557	99
312.787	87
313.017	88
313.246	79
313.476	91
313.706	110
313.935	97
314.165	89
314.394	86
314.624	101
314.853	86
315.083	82
315.312	92
315.542	83
315.771	87
316.001	101
316.23	81
316.46	101
316.689	98
316.919	90
317.148	94
317.377	83
317.607	92
317.836	98
318.065	91
318.295	72
318.524	85
318.753	87
318.983	93
319.212	106
319.441	86
319.67	97
319.9	85
320.129	91
320.358	86
320.587	79
320.816	83
321.046	80
321.275	100
321.504	87
321.733	80
321.962	97
322.191	105
322.42	96
322.649	90
322.878	84
323.108	96
323.337	98
323.566	91
323.795	89
324.024	88
324.253	92
324.482	68
324.71	77
324.939	82
325.168	88
325.397	87
325.626	95
325.855	78
326.084	84
326.313	94
326.542	86
326.77	89
326.999	79
327.228	90
327.457	91
327.686	95
327.914	89
328.143	92
328.372	107
328.6	100
328.829	89
329.058	94
329.287	83
329.515	90
329.744	104
329.972	87
330.201	94
330.43	90
330.658	99
330.887	97
331.115	87
331.344	94
331.572	91
331.801	91
332.03	98
332.258	96
332.486	98
332.715	102
332.943	105
333.172	106
333.4	96
333.629	102
333.857	108
334.085	89
334.314	99
334.542	98
334.771	94
334.999	78
335.227	84
335.455	91
335.684	92
335.912	81
336.14	86
336.369	104
336.597	82
336.825	85
337.053	81
337.281	107
337.51	103
337.738	90
337.966	80
338.194	87
338.422	95
338.65	95
338.878	88
339.106	86
339.334	91
339.562	93
339.79	83
340.018	102
340.246	87
340.474	90
340.702	100
340.93	89
341.158	92
341.386	85
341.614	98
341.842	93
342.07	89
342.298	99
342.526	92
342.754	85
342.981	76
343.209	82
343.437	95
343.665	93
343.893	95
344.12	95
344.348	103
344.576	85
344.804	86
345.031	94
345.259	99
345.487	87
345.714	80
345.942	86
346.17	104
346.397	83
346.625	98
346.853	88
347.08	92
347.308	85
347.535	92
347.763	86
347.99	97
348.218	88
348.445	92
348.673	84
348.9	94
349.128	97
349.355	85
349.583	93
349.81	95
350.037	90
350.265	94
350.492	88
350.72	81
350.947	79
351.174	91
351.402	106
351.629	91
351.856	83
352.083	95
352.311	86
352.538	99
352.765	84
352.992	101
353.22	98
353.447	93
353.674	106
353.901	82
354.128	78
354.355	81
354.583	92
354.81	100
355.037	98
355.264	96
355.491	98
355.718	90
355.945	91
356.172	86
356.399	89
356.626	83
356.853	100
357.08	92
357.307	87
357.534	81
357.761	76
357.988	93
358.215	90
358.441	90
358.668	83
358.895	92
359.122	92
359.349	84
359.576	86
359.802	80
360.029	86
360.256	94
360.483	88
360.709	92
360.936	80
361.163	91
361.39	89
361.616	85
361.843	99
362.07	86
362.296	85
362.523	102
362.749	91
362.976	85
363.203	107
363.429	90
363.656	92
363.882	90
364.109	96
364.335	100
364.562	97
364.788	94
365.015	87
365.241	96
365.468	91
365.694	98
365.92	86
366.147	86
366.373	99
366.599	86
366.826	86
367.052	86
367.278	91
367.505	79
367.731	99
367.957	104
368.184	82
368.41	87
368.636	95
368.862	94
369.089	81
369.315	83
369.541	96
369.767	99
369.993	79
370.219	103
370.445	91
370.672	83
370.898	81
371.124	94
371.35	87
371.576	93
371.802	110
372.028	84
372.254	82
372.48	92
372.706	100
372.932	113
373.158	103
373.384	86
373.61	89
373.835	104
374.061	96
374.287	86
374.513	76
374.739	83
374.965	87
375.191	92
375.416	83
375.642	93
375.868	82
376.094	89
376.319	85
376.545	93
376.771	92
376.997	101
377.222	91
377.448	91
377.674	97
377.899	104
378.125	94
378.35	99
378.576	88
378.802	93
379.027	81
379.253	102
379.478	87
379.704	82
379.929	101
380.155	87
380.38	78
380.606	82
380.831	77
381.057	84
381.282	80
381.507	89
381.733	78
381.958	86
382.184	87
382.409	96
382.634	96
382.86	82
383.085	87
383.31	97
383.535	88
383.761	88
383.986	83
384.211	99
384.436	88
384.662	98
384.887	84
385.112	93
385.337	101
385.562	94
385.787	102
386.013	94
386.238	91
386.463	93
386.688	93
386.913	82
387.138	92
387.363	84
387.588	88
387.813	108
388.038	88
388.263	98
388.488	98
388.713	106
388.938	89
389.163	98
389.387	90
389.612	101
389.837	88
390.062	78
390.287	93
390.512	88
390.736	79
390.961	95
391.186	89
391.411	94
391.636	86
391.86	101
392.085	94
392.31	94
392.534	86
392.759	87
392.984	79
393.208	96
393.433	91
393.658	105
393.882	82
394.107	100
394.331	93
394.556	82
394.78	81
395.005	99
395.229	99
395.454	95
395.678	99
395.903	111
396.127	94
396.352	103
396.576	97
396.801	105
397.025	92
397.249	93
397.474	96
397.698	98
397.922	96
398.147	76
398.371	82
398.595	82
398.82	95
399.044	88
399.268	99
399.492	100
399.717	108
399.941	101
400.165	85
400.389	91
400.613	92
400.837	89
401.062	86
401.286	91
401.51	97
401.734	96
401.958	111
402.182	89
402.406	106
402.63	99
402.854	98
403.078	98
403.302	94
403.526	82
403.75	83
403.974	86
404.198	97
404.422	89
404.645	97
404.869	97
405.093	94
405.317	110
405.541	86
405.765	101
405.988	95
406.212	97
406.436	100
406.66	91
406.883	106
407.107	92
407.331	84
407.555	92
407.778	116
408.002	103
408.226	110
408.449	106
408.673	93
408.896	97
409.12	99
409.344	105
409.567	92
409.791	91
410.014	98
410.238	120
410.461	107
410.685	103
410.908	80
411.132	96
411.355	99
411.578	101
411.802	98
412.025	95
412.249	97
412.472	105
412.695	111
412.919	87
413.142	99
413.365	98
413.589	93
413.812	95
414.035	102
414.258	94
414.482	85
414.705	86
414.928	100
415.151	95
415.374	94
415.597	85
415.821	80
416.044	88
416.267	86
416.49	94
416.713	81
416.936	85
417.159	86
417.382	99
417.605	93
417.828	88
418.051	111
418.274	94
418.497	99
418.72	94
418.943	94
419.166	89
419.389	99
419.611	84
419.834	103
420.057	105
420.28	91
420.503	94
420.726	96
420.948	89
421.171	93
421.394	102
421.617	82
421.839	90
422.062	98
422.285	90
422.507	87
422.73	90
422.953	89
423.175	104
423.398	91
423.621	96
423.843	90
424.066	96
424.288	91
424.511	94
424.733	99
424.956	99
425.178	89
425.401	85
425.623	112
425.846	95
426.068	98
426.291	102
426.513	92
426.735	90
426.958	89
427.18	102
427.402	91
427.625	95
427.847	94
428.069	90
428.292	93
428.514	96
428.736	87
428.958	97
429.181	76
429.403	76
429.625	92
429.847	78
430.069	101
430.292	79
430.514	94
430.736	81
430.958	88
431.18	91
431.402	90
431.624	77
431.846	96
432.068	87
432.29	89
432.512	95
432.734	93
432.956	82
433.178	94
433.4	85
433.622	87
433.844	85
434.066	96
434.287	97
434.509	86
434.731	80
434.953	109
435.175	103
435.397	96
435.618	102
435.84	98
436.062	101
436.284	84
436.505	95
436.727	96
436.949	107
437.17	97
437.392	95
437.614	74
437.835	108
438.057	93
438.278	96
438.5	107
438.721	88
438.943	91
439.165	85
439.386	83
439.608	88
439.829	98
440.05	85
440.272	99
440.493	95
440.715	92
440.936	100
441.158	97
441.379	83
441.6	103
441.822	92
442.043	91
442.264	96
442.486	100
442.707	96
442.928	92
443.149	100
443.371	88
443.592	89
443.813	100
444.034	107
444.255	88
444.476	84
444.698	86
444.919	86
445.14	204
445.361	145
445.582	91
445.803	98
446.024	98
446.245	105
446.466	86
446.687	85
446.908	92
447.129	87
447.35	95
447.571	90
447.792	91
448.013	96
448.234	89
448.455	93
448.675	96
448.896	100
449.117	84
449.338	96
449.559	87
449.779	89
450	103
450.221	98
450.442	89
450.662	96
450.883	102
451.104	94
451.324	100
451.545	83
451.766	82
451.986	85
452.207	84
452.428	107
452.648	87
452.869	105
453.089	88
453.31	95
453.53	71
453.751	96
453.971	89
454.192	74
454.412	71
454.633	80
454.853	99
455.073	87
455.294	91
455.514	93
455.734	93
455.955	89
456.175	94
456.395	97
456.616	94
456.836	108
457.056	88
457.276	92
457.497	89
457.717	82
457.937	86
458.157	95
458.377	76
458.598	103
458.818	92
459.038	95
459.258	71
459.478	97
459.698	97
459.918	102
460.138	84
460.358	91
460.578	87
460.798	99
461.018	95
461.238	98
461.458	86
461.678	92
461.898	93
462.118	87
462.338	91
462.558	105
462.777	106
462.997	111
463.217	119
463.437	103
463.657	96
463.876	95
464.096	98
464.316	117
464.536	86
464.755	111
464.975	100
465.195	105
465.414	93
465.634	97
465.854	96
466.073	88
466.293	96
466.512	98
466.732	87
466.951	112
467.171	112
467.391	99
467.61	83
467.829	105
468.049	82
468.268	97
468.488	78
468.707	93
468.927	91
469.146	92
469.365	100
469.585	93
469.804	84
470.023	103
470.243	90
470.462	95
470.681	94
470.901	90
471.12	88
471.339	91
471.558	93
471.777	106
471.997	89
472.216	86
472.435	75
472.654	88
472.873	102
473.092	94
473.311	101
473.53	99
473.749	90
473.968	90
474.187	83
474.406	94
474.625	91
474.844	110
475.063	108
475.282	98
475.501	84
475.72	95
475.939	97
476.158	100
476.377	96
476.596	79
476.814	76
477.033	89
477.252	91
477.471	103
477.69	88
477.908	98
478.127	112
478.346	92
478.564	101
478.783	101
479.002	92
479.22	88
479.439	93
479.658	100
479.876	97
480.095	88
480.313	108
480.532	100
480.751	104
480.969	88
481.188	89
481.406	115
481.624	100
481.843	93
482.061	91
482.28	92
482.498	98
482.717	103
482.935	94
483.153	96
483.372	110
483.59	82
483.808	105
484.027	103
484.245	106
484.463	94
484.681	102
484.9	97
485.118	107
485.336	88
485.554	105
485.772	91
485.99	95
486.209	84
486.427	100
486.645	94
486.863	102
487.081	109
487.299	106
487.517	103
487.735	103
487.953	113
488.171	100
488.389	113
488.607	114
488.825	114
489.043	95
489.261	97
489.479	106
489.696	101
489.914	93
490.132	102
490.35	88
490.568	102
490.786	117
491.003	109
491.221	116
491.439	109
491.657	118
491.874	120
492.092	104
492.31	120
492.527	108
492.745	114
492.963	115
493.18	106
493.398	104
493.615	111
493.833	100
494.05	110
494.268	112
494.485	99
494.703	107
494.92	105
495.138	106
495.355	100
495.573	100
495.79	110
496.008	106
496.225	102
496.442	116
496.66	114
496.877	95
497.094	107
497.312	107
497.529	112
497.746	116
497.963	104
498.181	97
498.398	97
498.615	112
498.832	100
499.049	111
499.267	122
499.484	122
499.701	119
499.918	126
500.135	131
500.352	142
500.569	156
500.786	144
501.003	147
501.22	129
501.437	130
501.654	139
501.871	108
502.088	101
502.305	112
502.522	114
502.739	107
502.956	105
503.172	112
503.389	107
503.606	112
503.823	117
504.04	108
504.256	96
504.473	113
504.69	106
504.907	104
505.123	113
505.34	101
505.557	92
505.773	98
505.99	107
506.207	101
506.423	101
506.64	98
506.856	101
507.073	97
507.289	104
507.506	85
507.722	102
507.939	88
508.155	100
508.372	96
508.588	92
508.805	104
509.021	114
509.238	83
509.454	98
509.67	103
509.887	102
510.103	98
510.319	98
510.536	91
510.752	103
510.968	101
511.184	98
511.401	83
511.617	95
511.833	101
512.049	98
512.265	104
512.481	119
512.698	97
512.914	96
513.13	98
513.346	94
513.562	90
513.778	98
513.994	101
514.21	84
514.426	94
514.642	103
514.858	92
515.074	88
515.29	95
515.506	92
515.721	104
515.937	90
516.153	102
516.369	110
516.585	98
516.801	104
517.016	105
517.232	102
517.448	106
517.664	111
517.879	92
518.095	108
518.311	107
518.527	99
518.742	116
518.958	94
519.173	82
519.389	101
519.605	108
519.82	119
520.036	98
520.251	102
520.467	115
520.682	99
520.898	99
521.113	89
521.329	97
521.544	95
521.76	103
521.975	103
522.19	99
522.406	109
522.621	106
522.836	102
523.052	92
523.267	112
523.482	108
523.698	112
523.913	119
524.128	90
524.343	116
524.559	103
524.774	106
524.989	95
525.204	97
525.419	100
525.634	86
525.849	106
526.064	108
526.28	102
526.495	81
526.71	100
526.925	84
527.14	88
527.355	104
527.57	94
527.785	90
527.999	91
528.214	112
528.429	101
528.644	111
528.859	107
529.074	96
529.289	100
529.503	89
529.718	93
529.933	98
530.148	103
530.363	108
530.577	113
530.792	99
531.007	94
531.221	97
531.436	101
531.651	96
531.865	97
532.08	110
532.295	104
532.509	105
532.724	95
532.938	76
533.153	89
533.367	96
533.582	108
533.796	85
534.011	98
534.225	94
534.44	98
534.654	100
534.868	104
535.083	85
535.297	100
535.511	91
535.726	112
535.94	99
536.154	91
536.369	86
536.583	79
536.797	95
537.011	88
537.225	90
537.44	92
537.654	93
537.868	96
538.082	102
538.296	101
538.51	98
538.724	98
538.938	92
539.153	102
539.367	94
539.581	103
539.795	90
540.009	100
540.222	96
540.436	113
540.65	101
540.864	101
541.078	105
541.292	87
541.506	91
541.72	120
541.934	104
542.147	108
542.361	104
542.575	115
542.789	106
543.002	113
543.216	101
543.43	101
543.644	97
543.857	98
544.071	94
544.285	98
544.498	88
544.712	99
544.925	97
545.139	98
545.352	88
545.566	106
545.779	105
545.993	113
546.206	118
546.42	101
546.633	102
546.847	97
547.06	103
547.274	90
547.487	105
547.7	112
547.914	105
548.127	119
548.34	99
548.554	94
548.767	91
548.98	110
549.193	100
549.407	105
549.62	113
549.833	99
550.046	99
550.259	108
550.473	102
550.686	103
550.899	112
551.112	90
551.325	98
551.538	85
551.751	89
551.964	102
552.177	102
552.39	90
552.603	106
552.816	97
553.029	94
553.242	100
553.455	104
553.667	87
553.88	94
554.093	106
554.306	96
554.519	111
554.732	118
554.944	92
555.157	106
555.37	91
555.583	98
555.795	94
556.008	100
556.221	104
556.433	98
556.646	102
556.859	86
557.071	92
557.284	92
557.496	91
557.709	102
557.921	103
558.134	94
558.346	104
558.559	96
558.771	94
558.984	90
559.196	94
559.409	90
559.621	85
559.833	105
560.046	94
560.258	97
560.47	89
560.683	88
560.895	90
561.107	101
561.32	104
561.532	108
561.744	82
561.956	91
562.168	90
562.381	87
562.593	98
562.805	105
563.017	98
563.229	91
563.441	91
563.653	97
563.865	87
564.077	107
564.289	87
564.501	106
564.713	105
564.925	100
565.137	92
565.349	100
565.561	94
565.773	102
565.985	92
566.197	92
566.408	98
566.62	96
566.832	102
567.044	84
567.255	111
567.467	102
567.679	96
567.891	109
568.102	102
568.314	103
568.526	98
568.737	115
568.949	107
569.161	101
569.372	92
569.584	95
569.795	116
570.007	82
570.218	101
570.43	108
570.641	86
570.853	93
571.064	92
571.276	85
571.487	97
571.698	85
571.91	96
572.121	94
572.333	111
572.544	84
572.755	90
572.966	94
573.178	92
573.389	81
573.6	79
573.811	84
574.023	100
574.234	89
574.445	88
574.656	99
574.867	91
575.078	98
575.289	95
575.501	86
575.712	92
575.923	90
576.134	86
576.345	76
576.556	104
576.767	86
576.978	91
577.188	79
577.399	92
577.61	88
577.821	93
578.032	94
578.243	96
578.454	88
578.665	92
578.875	93
579.086	90
579.297	81
579.508	89
579.718	90
579.929	90
580.14	74
580.35	84
580.561	114
580.772	101
580.982	70
581.193	85
581.403	84
581.614	87
581.825	87
582.035	82
582.246	101
582.456	80
582.667	96
582.877	95
583.087	96
583.298	73
583.508	84
583.719	96
583.929	92
584.139	86
584.35	88
584.56	104
584.77	98
584.981	74
585.191	90
585.401	94
585.611	81
585.821	84
586.032	81
586.242	92
586.452	97
586.662	85
586.872	86
587.082	89
587.292	84
587.502	86
587.713	86
587.923	85
588.133	85
588.343	93
588.553	100
588.762	94
588.972	80
589.182	97
589.392	90
589.602	86
589.812	89
590.022	88
590.232	89
590.441	81
590.651	99
590.861	83
591.071	103
591.281	103
591.49	84
591.7	77
591.91	91
592.119	90
592.329	95
592.539	90
592.748	98
592.958	100
593.167	96
593.377	97
593.587	88
593.796	97
594.006	92
594.215	93
594.424	93
594.634	79
594.843	88
595.053	96
595.262	103
595.472	79
595.681	84
595.89	100
596.1	91
596.309	111
596.518	93
596.727	90
596.937	95
597.146	95
597.355	85
597.564	84
597.774	74
597.983	75
598.192	100
598.401	93
598.61	91
598.819	73
599.028	93
599.237	93
599.446	73
599.655	97
599.864	89
600.073	81
600.282	82
600.491	78
600.7	88
600.909	82
601.118	84
601.327	96
601.536	100
601.745	97
601.953	96
602.162	83
602.371	92
602.58	86
602.789	93
602.997	83
603.206	89
603.415	84
603.623	81
603.832	78
604.041	91
604.249	74
604.458	99
604.666	96
604.875	92
605.084	94
605.292	76
605.501	84
605.709	87
605.918	95
606.126	74
606.334	92
606.543	97
606.751	84
606.96	83
607.168	89
607.376	83
607.585	83
607.793	95
608.001	97
608.21	88
608.418	86
608.626	81
608.834	84
609.043	94
609.251	83
609.459	95
609.667	95
609.875	90
610.083	78
610.291	84
610.499	97
610.707	100
610.916	91
611.124	83
611.332	91
611.54	102
611.748	85
611.955	80
612.163	89
612.371	86
612.579	94
612.787	92
612.995	89
613.203	88
613.411	98
613.618	96
613.826	83
614.034	88
614.242	86
614.449	98
614.657	88
614.865	86
615.072	84
615.28	86
615.488	96
615.695	91
615.903	90
616.111	88
616.318	96
616.526	80
616.733	91
616.941	90
617.148	105
617.356	90
617.563	100
617.771	90
617.978	101
618.185	87
618.393	86
618.6	90
618.807	96
619.015	89
619.222	93
619.429	88
619.637	92
619.844	89
620.051	90
620.258	82
620.466	86
620.673	86
620.88	91
621.087	80
621.294	94
621.501	82
621.708	89
621.915	88
622.122	87
622.329	84
622.536	91
622.743	106
622.95	80
623.157	83
623.364	105
623.571	77
623.778	96
623.985	98
624.192	80
624.399	87
624.606	96
624.812	81
625.019	89
625.226	92
625.433	96
625.639	86
625.846	75
626.053	83
626.259	81
626.466	92
626.673	88
626.879	83
627.086	90
627.293	100
627.499	88
627.706	78
627.912	93
628.119	85
628.325	83
628.532	99
628.738	95
628.945	95
629.151	84
629.357	88
629.564	95
629.77	91
629.976	79
630.183	77
630.389	103
630.595	81
630.802	83
631.008	99
631.214	81
631.42	86
631.627	88
631.833	84
632.039	76
632.245	94
632.451	81
632.657	86
632.863	73
633.069	72
633.275	85
633.481	76
633.688	91
633.893	84
634.099	103
634.305	87
634.511	83
634.717	73
634.923	89
635.129	91
635.335	98
635.541	86
635.747	91
635.952	89
636.158	88
636.364	87
636.57	94
636.775	75
636.981	92
637.187	90
637.392	102
637.598	78
637.804	79
638.009	83
638.215	85
638.421	78
638.626	85
638.832	82
639.037	87
639.243	81
639.448	81
639.654	94
639.859	92
640.065	83
640.27	101
640.475	76
640.681	85
640.886	83
641.091	110
641.297	94
641.502	76
641.707	82
641.913	91
642.118	87
642.323	91
642.528	95
642.733	94
642.939	90
643.144	75
643.349	89
643.554	103
643.759	90
643.964	80
644.169	86
644.374	88
644.579	96
644.784	99
644.989	75
645.194	89
645.399	84
645.604	86
645.809	103
646.014	86
646.219	87
646.423	90
646.628	84
646.833	89
647.038	90
647.243	66
647.447	88
647.652	70
647.857	88
648.062	95
648.266	89
648.471	90
648.676	95
648.88	73
649.085	84
649.289	91
649.494	85
649.698	93
649.903	80
650.107	76
650.312	85
650.516	90
650.721	78
650.925	86
651.13	89
651.334	73
651.539	92
651.743	97
651.947	88
652.152	79
652.356	91
652.56	70
652.764	79
652.969	88
653.173	91
653.377	95
653.581	84
653.785	81
653.99	89
654.194	96
654.398	82
654.602	68
654.806	81
655.01	78
655.214	89
655.418	85
655.622	81
655.826	81
656.03	91
656.234	85
656.438	71
656.642	71
656.846	82
657.049	89
657.253	83
657.457	87
657.661	79
657.865	86
658.068	101
658.272	81
658.476	75
658.68	71
658.883	80
659.087	76
659.291	85
659.494	91
659.698	81
659.901	76
660.105	94
660.309	88
660.512	79
660.716	76
660.919	73
661.123	78
661.326	77
661.53	86
661.733	83
661.936	85
662.14	94
662.343	92
662.546	75
662.75	78
662.953	86
663.156	79
663.36	88
663.563	89
663.766	86
663.969	79
664.173	77
664.376	78
664.579	72
664.782	74
664.985	87
665.188	80
665.391	66
665.594	83
665.797	70
666	73
666.203	83
666.406	89
666.609	101
666.812	82
667.015	72
667.218	71
667.421	81
667.624	70
667.827	75
668.03	79
668.232	73
668.435	74
668.638	91
668.841	74
669.043	79
669.246	83
669.449	75
669.651	91
669.854	82
670.057	90
670.259	79
670.462	85
670.665	92
670.867	85
671.07	86
671.272	82
671.475	90
671.677	97
671.88	89
672.082	87
672.284	88
672.487	86
672.689	83
672.892	80
