Data from Location5.07152019.Energy5.Lamp.07192019.3%Agarose_HRD10591_16-05-20-629.txt Node
Date: Fri Jul 19 16:05:20 EDT 2019
User: cochatt
Spectrometer: HR+D1059
Trigger mode: 1
Integration Time (sec): 1.000000E-1
Scans to average: 1
Electric dark correction enabled: true
Nonlinearity correction enabled: false
Boxcar width: 0
XAxis mode: Wavelengths
Number of Pixels in Spectrum: 2048
>>>>>Begin Spectral Data<<<<<
223.165	-8
223.4	-8
223.635	-8
223.869	-10
224.104	-10
224.338	-28
224.573	-16
224.808	-6
225.042	-28
225.277	-10
225.511	0
225.746	2
225.98	18
226.215	4
226.449	22
226.683	30
226.918	17
227.152	23
227.387	26
227.621	30
227.856	35
228.09	46
228.324	49
228.559	48
228.793	60
229.027	74
229.262	63
229.496	75
229.73	68
229.964	79
230.199	76
230.433	75
230.667	70
230.901	84
231.136	77
231.37	81
231.604	90
231.838	68
232.072	92
232.306	89
232.541	86
232.775	88
233.009	81
233.243	84
233.477	75
233.711	72
233.945	88
234.179	92
234.413	77
234.647	78
234.881	76
235.115	86
235.349	92
235.583	81
235.817	88
236.051	75
236.285	82
236.519	68
236.753	81
236.987	76
237.221	79
237.455	70
237.689	70
237.922	79
238.156	76
238.39	66
238.624	80
238.858	71
239.091	85
239.325	66
239.559	79
239.793	69
240.027	80
240.26	66
240.494	85
240.728	69
240.961	85
241.195	71
241.429	75
241.662	76
241.896	74
242.13	70
242.363	68
242.597	76
242.83	76
243.064	68
243.298	72
243.531	55
243.765	80
243.998	71
244.232	75
244.465	69
244.699	77
244.932	91
245.166	88
245.399	93
245.633	79
245.866	68
246.099	66
246.333	71
246.566	88
246.8	89
247.033	82
247.266	88
247.5	86
247.733	73
247.966	97
248.2	91
248.433	75
248.666	68
248.899	79
249.133	89
249.366	86
249.599	76
249.832	75
250.066	87
250.299	73
250.532	79
250.765	80
250.998	86
251.231	77
251.465	76
251.698	82
251.931	69
252.164	79
252.397	86
252.63	89
252.863	80
253.096	86
253.329	90
253.562	71
253.795	83
254.028	64
254.261	84
254.494	75
254.727	79
254.96	82
255.193	70
255.426	79
255.659	88
255.892	74
256.124	71
256.357	86
256.59	96
256.823	86
257.056	106
257.289	85
257.521	93
257.754	87
257.987	72
258.22	72
258.452	79
258.685	73
258.918	83
259.151	87
259.383	73
259.616	78
259.849	71
260.081	86
260.314	80
260.547	92
260.779	76
261.012	87
261.244	83
261.477	99
261.71	84
261.942	81
262.175	75
262.407	87
262.64	97
262.872	88
263.105	75
263.337	98
263.57	79
263.802	81
264.035	87
264.267	82
264.499	96
264.732	82
264.964	88
265.197	97
265.429	89
265.661	86
265.894	89
266.126	82
266.358	78
266.591	97
266.823	82
267.055	79
267.287	80
267.52	95
267.752	85
267.984	81
268.216	91
268.448	93
268.681	89
268.913	95
269.145	101
269.377	88
269.609	93
269.841	76
270.073	94
270.306	106
270.538	82
270.77	84
271.002	86
271.234	83
271.466	84
271.698	71
271.93	89
272.162	100
272.394	92
272.626	91
272.858	87
273.09	89
273.322	90
273.553	83
273.785	92
274.017	82
274.249	88
274.481	79
274.713	85
274.945	87
275.176	78
275.408	94
275.64	87
275.872	89
276.104	99
276.335	78
276.567	90
276.799	88
277.031	88
277.262	84
277.494	92
277.726	89
277.957	88
278.189	81
278.421	98
278.652	83
278.884	97
279.115	81
279.347	86
279.579	96
279.81	86
280.042	99
280.273	112
280.505	99
280.736	92
280.968	78
281.199	89
281.431	84
281.662	84
281.894	87
282.125	105
282.356	90
282.588	75
282.819	84
283.051	88
283.282	93
283.513	94
283.745	88
283.976	89
284.207	100
284.439	87
284.67	84
284.901	94
285.132	80
285.364	89
285.595	82
285.826	73
286.057	80
286.288	91
286.52	84
286.751	81
286.982	86
287.213	99
287.444	106
287.675	91
287.906	89
288.138	87
288.369	93
288.6	90
288.831	70
289.062	82
289.293	81
289.524	86
289.755	75
289.986	82
290.217	80
290.448	90
290.679	93
290.91	93
291.141	102
291.371	97
291.602	96
291.833	117
292.064	86
292.295	103
292.526	87
292.757	79
292.987	74
293.218	84
293.449	85
293.68	106
293.91	91
294.141	82
294.372	94
294.603	86
294.833	85
295.064	80
295.295	80
295.525	90
295.756	91
295.987	89
296.217	74
296.448	79
296.679	86
296.909	75
297.14	83
297.37	99
297.601	98
297.831	92
298.062	98
298.292	102
298.523	88
298.753	99
298.984	78
299.214	89
299.445	91
299.675	94
299.905	94
300.136	83
300.366	82
300.597	83
300.827	94
301.057	81
301.288	103
301.518	92
301.748	92
301.979	96
302.209	90
302.439	96
302.669	85
302.9	86
303.13	82
303.36	85
303.59	78
303.82	83
304.051	92
304.281	77
304.511	98
304.741	91
304.971	96
305.201	79
305.431	75
305.661	74
305.891	99
306.121	91
306.352	85
306.582	86
306.812	83
307.042	88
307.272	89
307.502	95
307.731	95
307.961	85
308.191	89
308.421	89
308.651	89
308.881	79
309.111	83
309.341	98
309.571	84
309.8	97
310.03	81
310.26	94
310.49	86
310.72	92
310.949	82
311.179	67
311.409	85
311.639	82
311.868	85
312.098	86
312.328	83
312.557	89
312.787	89
313.017	89
313.246	84
313.476	100
313.706	86
313.935	96
314.165	90
314.394	89
314.624	96
314.853	76
315.083	95
315.312	90
315.542	77
315.771	82
316.001	88
316.23	98
316.46	101
316.689	101
316.919	90
317.148	92
317.377	99
317.607	82
317.836	106
318.065	84
318.295	79
318.524	88
318.753	84
318.983	91
319.212	102
319.441	82
319.67	97
319.9	94
320.129	87
320.358	84
320.587	93
320.816	80
321.046	90
321.275	99
321.504	80
321.733	91
321.962	85
322.191	97
322.42	95
322.649	95
322.878	84
323.108	82
323.337	106
323.566	85
323.795	90
324.024	99
324.253	87
324.482	102
324.71	82
324.939	87
325.168	96
325.397	73
325.626	76
325.855	96
326.084	81
326.313	82
326.542	91
326.77	81
326.999	85
327.228	85
327.457	104
327.686	85
327.914	87
328.143	96
328.372	103
328.6	83
328.829	101
329.058	92
329.287	92
329.515	92
329.744	95
329.972	100
330.201	78
330.43	89
330.658	92
330.887	75
331.115	91
331.344	88
331.572	87
331.801	88
332.03	86
332.258	94
332.486	102
332.715	90
332.943	95
333.172	86
333.4	98
333.629	101
333.857	93
334.085	89
334.314	91
334.542	105
334.771	92
334.999	85
335.227	98
335.455	94
335.684	90
335.912	72
336.14	93
336.369	84
336.597	96
336.825	81
337.053	98
337.281	82
337.51	88
337.738	86
337.966	94
338.194	82
338.422	101
338.65	101
338.878	107
339.106	87
339.334	84
339.562	98
339.79	107
340.018	103
340.246	76
340.474	89
340.702	93
340.93	96
341.158	87
341.386	87
341.614	91
341.842	95
342.07	104
342.298	93
342.526	74
342.754	87
342.981	86
343.209	94
343.437	113
343.665	89
343.893	100
344.12	86
344.348	86
344.576	96
344.804	88
345.031	82
345.259	91
345.487	97
345.714	76
345.942	96
346.17	88
346.397	82
346.625	99
346.853	95
347.08	68
347.308	100
347.535	96
347.763	92
347.99	93
348.218	76
348.445	94
348.673	99
348.9	95
349.128	101
349.355	98
349.583	96
349.81	97
350.037	104
350.265	99
350.492	99
350.72	92
350.947	88
351.174	93
351.402	105
351.629	89
351.856	74
352.083	84
352.311	98
352.538	98
352.765	74
352.992	90
353.22	92
353.447	84
353.674	84
353.901	91
354.128	91
354.355	76
354.583	98
354.81	86
355.037	105
355.264	102
355.491	83
355.718	86
355.945	102
356.172	89
356.399	95
356.626	81
356.853	86
357.08	94
357.307	88
357.534	82
357.761	94
357.988	111
358.215	98
358.441	76
358.668	76
358.895	89
359.122	98
359.349	84
359.576	91
359.802	94
360.029	90
360.256	83
360.483	90
360.709	86
360.936	102
361.163	95
361.39	85
361.616	87
361.843	99
362.07	96
362.296	89
362.523	72
362.749	92
362.976	94
363.203	81
363.429	78
363.656	87
363.882	92
364.109	102
364.335	92
364.562	90
364.788	83
365.015	92
365.241	92
365.468	91
365.694	85
365.92	90
366.147	102
366.373	93
366.599	85
366.826	87
367.052	95
367.278	81
367.505	94
367.731	97
367.957	83
368.184	86
368.41	85
368.636	87
368.862	91
369.089	87
369.315	87
369.541	79
369.767	95
369.993	82
370.219	84
370.445	86
370.672	86
370.898	92
371.124	101
371.35	78
371.576	100
371.802	100
372.028	86
372.254	89
372.48	81
372.706	103
372.932	104
373.158	96
373.384	102
373.61	91
373.835	96
374.061	97
374.287	94
374.513	94
374.739	90
374.965	82
375.191	86
375.416	95
375.642	92
375.868	92
376.094	77
376.319	78
376.545	68
376.771	90
376.997	84
377.222	79
377.448	101
377.674	94
377.899	103
378.125	93
378.35	88
378.576	87
378.802	79
379.027	83
379.253	87
379.478	71
379.704	81
379.929	97
380.155	101
380.38	91
380.606	93
380.831	88
381.057	85
381.282	96
381.507	100
381.733	94
381.958	69
382.184	83
382.409	93
382.634	83
382.86	95
383.085	100
383.31	92
383.535	89
383.761	75
383.986	93
384.211	90
384.436	86
384.662	86
384.887	86
385.112	94
385.337	75
385.562	94
385.787	88
386.013	102
386.238	85
386.463	94
386.688	90
386.913	96
387.138	82
387.363	76
387.588	87
387.813	105
388.038	101
388.263	110
388.488	86
388.713	82
388.938	106
389.163	83
389.387	87
389.612	83
389.837	99
390.062	83
390.287	91
390.512	101
390.736	94
390.961	87
391.186	99
391.411	94
391.636	94
391.86	86
392.085	94
392.31	101
392.534	80
392.759	95
392.984	100
393.208	93
393.433	90
393.658	89
393.882	83
394.107	111
394.331	96
394.556	88
394.78	86
395.005	100
395.229	97
395.454	110
395.678	92
395.903	89
396.127	88
396.352	97
396.576	80
396.801	98
397.025	99
397.249	98
397.474	90
397.698	100
397.922	91
398.147	84
398.371	81
398.595	81
398.82	83
399.044	92
399.268	103
399.492	110
399.717	100
399.941	101
400.165	102
400.389	95
400.613	106
400.837	86
401.062	72
401.286	84
401.51	98
401.734	104
401.958	80
402.182	102
402.406	106
402.63	96
402.854	99
403.078	98
403.302	102
403.526	100
403.75	89
403.974	87
404.198	97
404.422	105
404.645	99
404.869	101
405.093	96
405.317	87
405.541	94
405.765	109
405.988	89
406.212	94
406.436	97
406.66	100
406.883	107
407.107	96
407.331	104
407.555	106
407.778	96
408.002	99
408.226	105
408.449	106
408.673	92
408.896	91
409.12	90
409.344	105
409.567	105
409.791	76
410.014	84
410.238	91
410.461	101
410.685	111
410.908	98
411.132	105
411.355	98
411.578	101
411.802	90
412.025	97
412.249	94
412.472	100
412.695	90
412.919	95
413.142	85
413.365	86
413.589	88
413.812	83
414.035	103
414.258	84
414.482	103
414.705	102
414.928	99
415.151	98
415.374	94
415.597	90
415.821	92
416.044	96
416.267	85
416.49	91
416.713	83
416.936	100
417.159	92
417.382	92
417.605	86
417.828	99
418.051	92
418.274	88
418.497	93
418.72	94
418.943	97
419.166	97
419.389	99
419.611	103
419.834	98
420.057	101
420.28	82
420.503	92
420.726	110
420.948	90
421.171	94
421.394	102
421.617	108
421.839	92
422.062	88
422.285	102
422.507	89
422.73	94
422.953	89
423.175	99
423.398	84
423.621	99
423.843	101
424.066	100
424.288	95
424.511	97
424.733	78
424.956	86
425.178	90
425.401	95
425.623	102
425.846	95
426.068	90
426.291	102
426.513	97
426.735	102
426.958	102
427.18	89
427.402	96
427.625	86
427.847	99
428.069	93
428.292	94
428.514	105
428.736	95
428.958	86
429.181	90
429.403	101
429.625	84
429.847	88
430.069	109
430.292	77
430.514	104
430.736	92
430.958	105
431.18	99
431.402	97
431.624	84
431.846	96
432.068	80
432.29	98
432.512	96
432.734	87
432.956	97
433.178	92
433.4	100
433.622	101
433.844	98
434.066	84
434.287	86
434.509	104
434.731	99
434.953	86
435.175	98
435.397	99
435.618	86
435.84	96
436.062	92
436.284	100
436.505	99
436.727	91
436.949	95
437.17	91
437.392	100
437.614	91
437.835	101
438.057	92
438.278	100
438.5	99
438.721	92
438.943	90
439.165	88
439.386	82
439.608	91
439.829	84
440.05	100
440.272	98
440.493	84
440.715	77
440.936	96
441.158	78
441.379	107
441.6	94
441.822	89
442.043	86
442.264	87
442.486	95
442.707	104
442.928	96
443.149	91
443.371	94
443.592	74
443.813	99
444.034	102
444.255	92
444.476	97
444.698	91
444.919	100
445.14	216
445.361	139
445.582	105
445.803	104
446.024	89
446.245	98
446.466	114
446.687	91
446.908	88
447.129	92
447.35	86
447.571	97
447.792	81
448.013	106
448.234	84
448.455	90
448.675	101
448.896	85
449.117	81
449.338	73
449.559	89
449.779	97
450	94
450.221	97
450.442	90
450.662	100
450.883	94
451.104	82
451.324	90
451.545	107
451.766	95
451.986	102
452.207	87
452.428	90
452.648	102
452.869	102
453.089	92
453.31	102
453.53	103
453.751	100
453.971	81
454.192	88
454.412	85
454.633	86
454.853	95
455.073	93
455.294	84
455.514	92
455.734	78
455.955	96
456.175	98
456.395	91
456.616	87
456.836	93
457.056	87
457.276	92
457.497	100
457.717	88
457.937	81
458.157	80
458.377	77
458.598	87
458.818	97
459.038	90
459.258	94
459.478	100
459.698	99
459.918	91
460.138	98
460.358	98
460.578	94
460.798	94
461.018	115
461.238	87
461.458	81
461.678	98
461.898	113
462.118	84
462.338	88
462.558	106
462.777	100
462.997	111
463.217	99
463.437	103
463.657	107
463.876	104
464.096	104
464.316	88
464.536	87
464.755	94
464.975	110
465.195	114
465.414	100
465.634	100
465.854	77
466.073	90
466.293	106
466.512	99
466.732	85
466.951	91
467.171	100
467.391	105
467.61	104
467.829	102
468.049	109
468.268	80
468.488	89
468.707	94
468.927	91
469.146	91
469.365	84
469.585	98
469.804	83
470.023	97
470.243	89
470.462	98
470.681	91
470.901	98
471.12	87
471.339	87
471.558	92
471.777	93
471.997	89
472.216	88
472.435	107
472.654	111
472.873	84
473.092	104
473.311	98
473.53	83
473.749	90
473.968	96
474.187	96
474.406	101
474.625	86
474.844	107
475.063	107
475.282	104
475.501	93
475.72	102
475.939	90
476.158	106
476.377	108
476.596	94
476.814	109
477.033	97
477.252	103
477.471	94
477.69	99
477.908	97
478.127	105
478.346	95
478.564	106
478.783	91
479.002	115
479.22	85
479.439	86
479.658	92
479.876	108
480.095	113
480.313	84
480.532	107
480.751	117
480.969	102
481.188	90
481.406	100
481.624	97
481.843	105
482.061	86
482.28	86
482.498	83
482.717	95
482.935	108
483.153	109
483.372	97
483.59	86
483.808	101
484.027	107
484.245	122
484.463	100
484.681	100
484.9	108
485.118	104
485.336	100
485.554	101
485.772	92
485.99	99
486.209	96
486.427	89
486.645	105
486.863	107
487.081	104
487.299	102
487.517	104
487.735	102
487.953	111
488.171	98
488.389	94
488.607	101
488.825	108
489.043	107
489.261	103
489.479	105
489.696	96
489.914	89
490.132	102
490.35	100
490.568	98
490.786	106
491.003	105
491.221	121
491.439	111
491.657	119
491.874	121
492.092	112
492.31	116
492.527	105
492.745	113
492.963	112
493.18	111
493.398	106
493.615	120
493.833	114
494.05	123
494.268	113
494.485	98
494.703	87
494.92	108
495.138	96
495.355	124
495.573	124
495.79	108
496.008	107
496.225	123
496.442	111
496.66	103
496.877	103
497.094	92
497.312	122
497.529	102
497.746	105
497.963	113
498.181	112
498.398	112
498.615	113
498.832	130
499.049	101
499.267	112
499.484	130
499.701	129
499.918	142
500.135	144
500.352	143
500.569	155
500.786	170
501.003	153
501.22	151
501.437	142
501.654	131
501.871	117
502.088	120
502.305	115
502.522	130
502.739	121
502.956	116
503.172	100
503.389	114
503.606	102
503.823	103
504.04	103
504.256	122
504.473	112
504.69	110
504.907	111
505.123	95
505.34	97
505.557	101
505.773	94
505.99	93
506.207	106
506.423	119
506.64	96
506.856	94
507.073	101
507.289	109
507.506	112
507.722	102
507.939	101
508.155	93
508.372	113
508.588	93
508.805	101
509.021	99
509.238	104
509.454	98
509.67	94
509.887	97
510.103	103
510.319	88
510.536	115
510.752	105
510.968	91
511.184	89
511.401	91
511.617	111
511.833	110
512.049	97
512.265	92
512.481	85
512.698	102
512.914	106
513.13	105
513.346	97
513.562	103
513.778	98
513.994	122
514.21	98
514.426	98
514.642	93
514.858	94
515.074	104
515.29	108
515.506	122
515.721	93
515.937	110
516.153	88
516.369	114
516.585	105
516.801	110
517.016	103
517.232	113
517.448	105
517.664	119
517.879	107
518.095	120
518.311	98
518.527	102
518.742	111
518.958	97
519.173	99
519.389	102
519.605	103
519.82	97
520.036	99
520.251	96
520.467	101
520.682	91
520.898	95
521.113	109
521.329	109
521.544	92
521.76	103
521.975	97
522.19	114
522.406	90
522.621	114
522.836	114
523.052	100
523.267	103
523.482	103
523.698	93
523.913	103
524.128	104
524.343	95
524.559	120
524.774	97
524.989	103
525.204	104
525.419	92
525.634	111
525.849	91
526.064	96
526.28	107
526.495	96
526.71	102
526.925	98
527.14	89
527.355	99
527.57	104
527.785	100
527.999	107
528.214	101
528.429	100
528.644	106
528.859	99
529.074	98
529.289	98
529.503	103
529.718	96
529.933	91
530.148	108
530.363	102
530.577	90
530.792	98
531.007	97
531.221	100
531.436	100
531.651	91
531.865	94
532.08	98
532.295	112
532.509	103
532.724	86
532.938	82
533.153	99
533.367	99
533.582	100
533.796	92
534.011	106
534.225	91
534.44	103
534.654	99
534.868	86
535.083	111
535.297	97
535.511	98
535.726	105
535.94	98
536.154	92
536.369	95
536.583	106
536.797	92
537.011	89
537.225	91
537.44	95
537.654	114
537.868	101
538.082	102
538.296	99
538.51	87
538.724	93
538.938	100
539.153	107
539.367	102
539.581	94
539.795	106
540.009	99
540.222	103
540.436	87
540.65	97
540.864	102
541.078	105
541.292	102
541.506	85
541.72	93
541.934	110
542.147	112
542.361	125
542.575	104
542.789	111
543.002	100
543.216	107
543.43	93
543.644	86
543.857	110
544.071	101
544.285	102
544.498	106
544.712	108
544.925	113
545.139	110
545.352	95
545.566	100
545.779	120
545.993	118
546.206	111
546.42	111
546.633	100
546.847	95
547.06	94
547.274	107
547.487	112
547.7	120
547.914	109
548.127	100
548.34	105
548.554	101
548.767	101
548.98	105
549.193	111
549.407	108
549.62	91
549.833	103
550.046	116
550.259	94
550.473	106
550.686	117
550.899	95
551.112	89
551.325	107
551.538	98
551.751	105
551.964	110
552.177	94
552.39	108
552.603	99
552.816	97
553.029	106
553.242	106
553.455	99
553.667	102
553.88	109
554.093	105
554.306	104
554.519	102
554.732	110
554.944	118
555.157	95
555.37	102
555.583	79
555.795	97
556.008	106
556.221	96
556.433	90
556.646	97
556.859	103
557.071	98
557.284	98
557.496	82
557.709	96
557.921	104
558.134	94
558.346	81
558.559	91
558.771	99
558.984	100
559.196	88
559.409	95
559.621	113
559.833	105
560.046	83
560.258	73
560.47	94
560.683	98
560.895	106
561.107	107
561.32	98
561.532	94
561.744	81
561.956	114
562.168	94
562.381	100
562.593	89
562.805	91
563.017	95
563.229	93
563.441	91
563.653	75
563.865	97
564.077	88
564.289	101
564.501	89
564.713	100
564.925	83
565.137	98
565.349	91
565.561	104
565.773	100
565.985	107
566.197	91
566.408	89
566.62	97
566.832	106
567.044	110
567.255	110
567.467	91
567.679	101
567.891	112
568.102	115
568.314	106
568.526	99
568.737	98
568.949	100
569.161	96
569.372	91
569.584	112
569.795	92
570.007	90
570.218	99
570.43	92
570.641	90
570.853	98
571.064	76
571.276	89
571.487	88
571.698	96
571.91	97
572.121	88
572.333	93
572.544	83
572.755	94
572.966	94
573.178	78
573.389	103
573.6	92
573.811	75
574.023	97
574.234	83
574.445	98
574.656	95
574.867	104
575.078	100
575.289	82
575.501	94
575.712	99
575.923	82
576.134	102
576.345	86
576.556	99
576.767	73
576.978	80
577.188	89
577.399	89
577.61	84
577.821	80
578.032	71
578.243	93
578.454	95
578.665	90
578.875	85
579.086	90
579.297	90
579.508	89
579.718	88
579.929	89
580.14	78
580.35	84
580.561	94
580.772	91
580.982	99
581.193	86
581.403	74
581.614	92
581.825	98
582.035	84
582.246	88
582.456	87
582.667	91
582.877	94
583.087	81
583.298	102
583.508	103
583.719	96
583.929	92
584.139	92
584.35	95
584.56	99
584.77	87
584.981	102
585.191	101
585.401	98
585.611	92
585.821	91
586.032	91
586.242	85
586.452	92
586.662	83
586.872	94
587.082	91
587.292	100
587.502	107
587.713	87
587.923	83
588.133	87
588.343	83
588.553	88
588.762	97
588.972	95
589.182	95
589.392	95
589.602	87
589.812	102
590.022	93
590.232	79
590.441	101
590.651	85
590.861	96
591.071	101
591.281	84
591.49	97
591.7	105
591.91	92
592.119	103
592.329	94
592.539	105
592.748	96
592.958	90
593.167	86
593.377	96
593.587	90
593.796	96
594.006	72
594.215	92
594.424	97
594.634	89
594.843	85
595.053	90
595.262	77
595.472	99
595.681	96
595.89	77
596.1	98
596.309	91
596.518	82
596.727	97
596.937	74
597.146	77
597.355	91
597.564	80
597.774	85
597.983	102
598.192	86
598.401	99
598.61	88
598.819	84
599.028	102
599.237	96
599.446	88
599.655	97
599.864	82
600.073	93
600.282	95
600.491	87
600.7	86
600.909	91
601.118	83
601.327	96
601.536	91
601.745	92
601.953	80
602.162	86
602.371	89
602.58	94
602.789	73
602.997	80
603.206	95
603.415	86
603.623	96
603.832	88
604.041	83
604.249	82
604.458	85
604.666	99
604.875	80
605.084	77
605.292	81
605.501	84
605.709	84
605.918	84
606.126	94
606.334	88
606.543	76
606.751	88
606.96	74
607.168	88
607.376	90
607.585	93
607.793	99
608.001	84
608.21	83
608.418	75
608.626	72
608.834	93
609.043	83
609.251	92
609.459	82
609.667	98
609.875	93
610.083	84
610.291	69
610.499	102
610.707	88
610.916	80
611.124	79
611.332	85
611.54	90
611.748	76
611.955	83
612.163	77
612.371	84
612.579	83
612.787	87
612.995	82
613.203	80
613.411	86
613.618	95
613.826	78
614.034	89
614.242	89
614.449	76
614.657	70
614.865	74
615.072	74
615.28	98
615.488	85
615.695	86
615.903	90
616.111	74
616.318	95
616.526	91
616.733	96
616.941	72
617.148	83
617.356	88
617.563	88
617.771	96
617.978	85
618.185	72
618.393	90
618.6	86
618.807	98
619.015	78
619.222	90
619.429	85
619.637	88
619.844	82
620.051	89
620.258	71
620.466	103
620.673	85
620.88	85
621.087	70
621.294	92
621.501	99
621.708	75
621.915	88
622.122	80
622.329	90
622.536	84
622.743	83
622.95	82
623.157	84
623.364	83
623.571	89
623.778	84
623.985	87
624.192	90
624.399	83
624.606	86
624.812	94
625.019	71
625.226	82
625.433	97
625.639	86
625.846	87
626.053	76
626.259	75
626.466	93
626.673	97
626.879	85
627.086	76
627.293	98
627.499	86
627.706	91
627.912	98
628.119	77
628.325	85
628.532	84
628.738	98
628.945	100
629.151	94
629.357	87
629.564	73
629.77	91
629.976	93
630.183	88
630.389	94
630.595	106
630.802	78
631.008	76
631.214	86
631.42	86
631.627	89
631.833	78
632.039	87
632.245	90
632.451	82
632.657	76
632.863	86
633.069	76
633.275	81
633.481	93
633.688	74
633.893	97
634.099	107
634.305	86
634.511	97
634.717	75
634.923	86
635.129	87
635.335	111
635.541	89
635.747	86
635.952	90
636.158	71
636.364	87
636.57	79
636.775	88
636.981	87
637.187	87
637.392	75
637.598	85
637.804	82
638.009	93
638.215	96
638.421	104
638.626	77
638.832	82
639.037	78
639.243	67
639.448	88
639.654	103
639.859	86
640.065	82
640.27	98
640.475	89
640.681	90
640.886	98
641.091	91
641.297	76
641.502	79
641.707	95
641.913	81
642.118	74
642.323	75
642.528	91
642.733	86
642.939	93
643.144	79
643.349	93
643.554	88
643.759	85
643.964	86
644.169	81
644.374	67
644.579	81
644.784	81
644.989	86
645.194	78
645.399	85
645.604	78
645.809	88
646.014	90
646.219	78
646.423	80
646.628	86
646.833	87
647.038	84
647.243	85
647.447	95
647.652	84
647.857	60
648.062	87
648.266	86
648.471	88
648.676	84
648.88	72
649.085	82
649.289	93
649.494	98
649.698	77
649.903	83
650.107	78
650.312	94
650.516	89
650.721	81
650.925	82
651.13	90
651.334	76
651.539	91
651.743	92
651.947	82
652.152	98
652.356	76
652.56	79
652.764	84
652.969	88
653.173	83
653.377	100
653.581	84
653.785	85
653.99	77
654.194	82
654.398	93
654.602	81
654.806	94
655.01	87
655.214	86
655.418	84
655.622	82
655.826	80
656.03	85
656.234	73
656.438	86
656.642	88
656.846	84
657.049	87
657.253	90
657.457	95
657.661	77
657.865	77
658.068	76
658.272	73
658.476	75
658.68	90
658.883	84
659.087	86
659.291	88
659.494	77
659.698	78
659.901	79
660.105	91
660.309	81
660.512	81
660.716	75
660.919	77
661.123	102
661.326	73
661.53	78
661.733	82
661.936	74
662.14	81
662.343	87
662.546	83
662.75	88
662.953	81
663.156	90
663.36	74
663.563	85
663.766	75
663.969	86
664.173	81
664.376	82
664.579	81
664.782	80
664.985	72
665.188	88
665.391	75
665.594	78
665.797	88
666	70
666.203	81
666.406	84
666.609	84
666.812	73
667.015	75
667.218	82
667.421	83
667.624	82
667.827	89
668.03	86
668.232	84
668.435	83
668.638	86
668.841	85
669.043	79
669.246	78
669.449	75
669.651	77
669.854	71
670.057	90
670.259	80
670.462	98
670.665	89
670.867	77
671.07	83
671.272	96
671.475	86
671.677	73
671.88	73
672.082	64
672.284	80
672.487	72
672.689	71
672.892	93
