Data from Location5.07152019.Energy5.Lamp.07192019.3%Agarose_HRD10591_15-38-55-388.txt Node
Date: Fri Jul 19 15:38:55 EDT 2019
User: cochatt
Spectrometer: HR+D1059
Trigger mode: 1
Integration Time (sec): 1.000000E-1
Scans to average: 1
Electric dark correction enabled: true
Nonlinearity correction enabled: false
Boxcar width: 0
XAxis mode: Wavelengths
Number of Pixels in Spectrum: 2048
>>>>>Begin Spectral Data<<<<<
223.165	-16
223.4	-16
223.635	-16
223.869	-7
224.104	-20
224.338	-13
224.573	-27
224.808	-30
225.042	-17
225.277	7
225.511	4
225.746	11
225.98	7
226.215	4
226.449	13
226.683	18
226.918	28
227.152	38
227.387	26
227.621	34
227.856	49
228.09	57
228.324	47
228.559	66
228.793	71
229.027	64
229.262	68
229.496	61
229.73	51
229.964	58
230.199	59
230.433	79
230.667	76
230.901	61
231.136	88
231.37	83
231.604	80
231.838	90
232.072	75
232.306	73
232.541	78
232.775	77
233.009	69
233.243	84
233.477	82
233.711	82
233.945	75
234.179	75
234.413	83
234.647	80
234.881	55
235.115	90
235.349	76
235.583	77
235.817	76
236.051	83
236.285	83
236.519	72
236.753	79
236.987	64
237.221	77
237.455	82
237.689	81
237.922	82
238.156	78
238.39	76
238.624	79
238.858	62
239.091	63
239.325	70
239.559	69
239.793	80
240.027	87
240.26	72
240.494	71
240.728	82
240.961	82
241.195	74
241.429	87
241.662	69
241.896	85
242.13	75
242.363	77
242.597	67
242.83	74
243.064	68
243.298	77
243.531	68
243.765	68
243.998	75
244.232	84
244.465	84
244.699	85
244.932	80
245.166	70
245.399	73
245.633	91
245.866	66
246.099	70
246.333	92
246.566	67
246.8	79
247.033	71
247.266	84
247.5	96
247.733	68
247.966	83
248.2	60
248.433	71
248.666	79
248.899	79
249.133	80
249.366	77
249.599	81
249.832	85
250.066	89
250.299	75
250.532	85
250.765	72
250.998	71
251.231	87
251.465	88
251.698	78
251.931	73
252.164	79
252.397	68
252.63	72
252.863	89
253.096	75
253.329	76
253.562	82
253.795	78
254.028	81
254.261	79
254.494	78
254.727	81
254.96	77
255.193	79
255.426	83
255.659	68
255.892	71
256.124	68
256.357	73
256.59	82
256.823	85
257.056	88
257.289	88
257.521	70
257.754	83
257.987	80
258.22	79
258.452	69
258.685	87
258.918	70
259.151	89
259.383	87
259.616	74
259.849	78
260.081	88
260.314	76
260.547	74
260.779	98
261.012	82
261.244	89
261.477	84
261.71	69
261.942	80
262.175	93
262.407	70
262.64	86
262.872	86
263.105	82
263.337	91
263.57	72
263.802	77
264.035	82
264.267	77
264.499	74
264.732	86
264.964	94
265.197	89
265.429	81
265.661	64
265.894	84
266.126	81
266.358	79
266.591	77
266.823	81
267.055	80
267.287	86
267.52	62
267.752	66
267.984	66
268.216	103
268.448	89
268.681	87
268.913	88
269.145	89
269.377	94
269.609	86
269.841	92
270.073	81
270.306	81
270.538	70
270.77	90
271.002	89
271.234	80
271.466	74
271.698	86
271.93	82
272.162	83
272.394	90
272.626	91
272.858	83
273.09	74
273.322	75
273.553	95
273.785	70
274.017	71
274.249	83
274.481	84
274.713	88
274.945	60
275.176	75
275.408	98
275.64	73
275.872	81
276.104	69
276.335	83
276.567	84
276.799	72
277.031	76
277.262	84
277.494	95
277.726	80
277.957	80
278.189	89
278.421	81
278.652	76
278.884	77
279.115	71
279.347	82
279.579	84
279.81	89
280.042	83
280.273	80
280.505	77
280.736	74
280.968	71
281.199	84
281.431	81
281.662	111
281.894	86
282.125	82
282.356	75
282.588	102
282.819	73
283.051	76
283.282	81
283.513	77
283.745	92
283.976	87
284.207	79
284.439	74
284.67	99
284.901	86
285.132	78
285.364	79
285.595	76
285.826	74
286.057	78
286.288	82
286.52	82
286.751	92
286.982	73
287.213	86
287.444	77
287.675	78
287.906	92
288.138	92
288.369	76
288.6	88
288.831	74
289.062	88
289.293	80
289.524	90
289.755	73
289.986	82
290.217	86
290.448	66
290.679	82
290.91	90
291.141	75
291.371	84
291.602	74
291.833	82
292.064	91
292.295	89
292.526	87
292.757	87
292.987	80
293.218	82
293.449	97
293.68	65
293.91	82
294.141	69
294.372	66
294.603	82
294.833	88
295.064	83
295.295	80
295.525	91
295.756	85
295.987	88
296.217	78
296.448	81
296.679	88
296.909	80
297.14	79
297.37	81
297.601	90
297.831	75
298.062	91
298.292	95
298.523	84
298.753	85
298.984	86
299.214	90
299.445	68
299.675	86
299.905	81
300.136	83
300.366	84
300.597	94
300.827	72
301.057	80
301.288	86
301.518	79
301.748	83
301.979	88
302.209	77
302.439	85
302.669	86
302.9	79
303.13	82
303.36	77
303.59	105
303.82	68
304.051	84
304.281	74
304.511	74
304.741	79
304.971	84
305.201	94
305.431	90
305.661	85
305.891	82
306.121	72
306.352	86
306.582	95
306.812	83
307.042	75
307.272	89
307.502	80
307.731	87
307.961	85
308.191	100
308.421	76
308.651	81
308.881	83
309.111	92
309.341	86
309.571	87
309.8	86
310.03	83
310.26	73
310.49	85
310.72	83
310.949	77
311.179	91
311.409	84
311.639	84
311.868	101
312.098	82
312.328	72
312.557	83
312.787	78
313.017	87
313.246	91
313.476	76
313.706	81
313.935	91
314.165	92
314.394	84
314.624	76
314.853	79
315.083	92
315.312	90
315.542	81
315.771	81
316.001	77
316.23	81
316.46	76
316.689	75
316.919	81
317.148	82
317.377	77
317.607	87
317.836	89
318.065	81
318.295	86
318.524	79
318.753	86
318.983	72
319.212	88
319.441	75
319.67	96
319.9	81
320.129	72
320.358	82
320.587	99
320.816	83
321.046	75
321.275	94
321.504	83
321.733	79
321.962	83
322.191	88
322.42	95
322.649	86
322.878	88
323.108	99
323.337	87
323.566	81
323.795	76
324.024	86
324.253	82
324.482	82
324.71	88
324.939	76
325.168	80
325.397	89
325.626	84
325.855	87
326.084	83
326.313	93
326.542	87
326.77	82
326.999	90
327.228	83
327.457	93
327.686	90
327.914	80
328.143	87
328.372	81
328.6	77
328.829	90
329.058	79
329.287	74
329.515	88
329.744	100
329.972	76
330.201	85
330.43	83
330.658	78
330.887	85
331.115	87
331.344	99
331.572	62
331.801	74
332.03	89
332.258	93
332.486	87
332.715	81
332.943	79
333.172	81
333.4	70
333.629	75
333.857	94
334.085	89
334.314	97
334.542	91
334.771	89
334.999	75
335.227	84
335.455	87
335.684	82
335.912	82
336.14	76
336.369	87
336.597	85
336.825	86
337.053	79
337.281	81
337.51	86
337.738	80
337.966	91
338.194	81
338.422	73
338.65	99
338.878	88
339.106	72
339.334	73
339.562	97
339.79	79
340.018	84
340.246	86
340.474	62
340.702	98
340.93	78
341.158	81
341.386	82
341.614	88
341.842	89
342.07	90
342.298	98
342.526	99
342.754	89
342.981	91
343.209	75
343.437	96
343.665	89
343.893	84
344.12	83
344.348	73
344.576	90
344.804	88
345.031	77
345.259	84
345.487	74
345.714	76
345.942	76
346.17	84
346.397	64
346.625	80
346.853	83
347.08	84
347.308	84
347.535	80
347.763	75
347.99	78
348.218	75
348.445	78
348.673	80
348.9	96
349.128	91
349.355	77
349.583	86
349.81	82
350.037	93
350.265	80
350.492	94
350.72	84
350.947	81
351.174	85
351.402	77
351.629	86
351.856	80
352.083	93
352.311	80
352.538	89
352.765	97
352.992	81
353.22	86
353.447	79
353.674	91
353.901	79
354.128	79
354.355	80
354.583	83
354.81	76
355.037	84
355.264	97
355.491	76
355.718	82
355.945	77
356.172	84
356.399	92
356.626	92
356.853	94
357.08	85
357.307	86
357.534	79
357.761	81
357.988	86
358.215	78
358.441	88
358.668	80
358.895	90
359.122	78
359.349	72
359.576	80
359.802	76
360.029	96
360.256	77
360.483	83
360.709	81
360.936	93
361.163	89
361.39	77
361.616	74
361.843	87
362.07	78
362.296	83
362.523	78
362.749	78
362.976	81
363.203	95
363.429	84
363.656	80
363.882	84
364.109	74
364.335	70
364.562	88
364.788	87
365.015	74
365.241	86
365.468	96
365.694	88
365.92	88
366.147	79
366.373	85
366.599	80
366.826	100
367.052	81
367.278	92
367.505	75
367.731	80
367.957	84
368.184	97
368.41	91
368.636	68
368.862	95
369.089	80
369.315	92
369.541	75
369.767	70
369.993	85
370.219	88
370.445	77
370.672	77
370.898	74
371.124	70
371.35	83
371.576	74
371.802	97
372.028	82
372.254	94
372.48	84
372.706	79
372.932	83
373.158	74
373.384	83
373.61	79
373.835	80
374.061	81
374.287	84
374.513	83
374.739	79
374.965	94
375.191	86
375.416	85
375.642	87
375.868	74
376.094	81
376.319	94
376.545	87
376.771	79
376.997	84
377.222	101
377.448	99
377.674	74
377.899	70
378.125	87
378.35	86
378.576	94
378.802	64
379.027	71
379.253	80
379.478	78
379.704	72
379.929	71
380.155	96
380.38	70
380.606	90
380.831	89
381.057	82
381.282	81
381.507	86
381.733	91
381.958	83
382.184	81
382.409	84
382.634	75
382.86	84
383.085	80
383.31	93
383.535	85
383.761	93
383.986	82
384.211	72
384.436	94
384.662	78
384.887	86
385.112	91
385.337	92
385.562	78
385.787	69
386.013	80
386.238	94
386.463	86
386.688	82
386.913	95
387.138	83
387.363	89
387.588	79
387.813	89
388.038	91
388.263	85
388.488	79
388.713	81
388.938	85
389.163	81
389.387	83
389.612	89
389.837	84
390.062	102
390.287	97
390.512	85
390.736	85
390.961	86
391.186	85
391.411	76
391.636	89
391.86	77
392.085	83
392.31	93
392.534	93
392.759	84
392.984	82
393.208	80
393.433	80
393.658	88
393.882	96
394.107	86
394.331	91
394.556	80
394.78	82
395.005	95
395.229	90
395.454	79
395.678	83
395.903	77
396.127	76
396.352	89
396.576	90
396.801	82
397.025	92
397.249	92
397.474	91
397.698	81
397.922	88
398.147	80
398.371	90
398.595	90
398.82	86
399.044	97
399.268	74
399.492	86
399.717	64
399.941	74
400.165	83
400.389	85
400.613	89
400.837	75
401.062	89
401.286	89
401.51	86
401.734	76
401.958	100
402.182	79
402.406	71
402.63	80
402.854	95
403.078	94
403.302	82
403.526	98
403.75	89
403.974	69
404.198	86
404.422	89
404.645	76
404.869	78
405.093	106
405.317	78
405.541	95
405.765	87
405.988	83
406.212	78
406.436	101
406.66	97
406.883	88
407.107	86
407.331	81
407.555	75
407.778	67
408.002	82
408.226	89
408.449	95
408.673	91
408.896	92
409.12	84
409.344	90
409.567	90
409.791	74
410.014	82
410.238	83
410.461	95
410.685	91
410.908	86
411.132	83
411.355	82
411.578	84
411.802	84
412.025	88
412.249	77
412.472	89
412.695	95
412.919	73
413.142	78
413.365	82
413.589	82
413.812	96
414.035	97
414.258	92
414.482	90
414.705	104
414.928	88
415.151	94
415.374	81
415.597	93
415.821	83
416.044	90
416.267	90
416.49	99
416.713	98
416.936	92
417.159	89
417.382	87
417.605	78
417.828	78
418.051	76
418.274	95
418.497	111
418.72	89
418.943	94
419.166	88
419.389	97
419.611	103
419.834	89
420.057	104
420.28	101
420.503	89
420.726	79
420.948	87
421.171	93
421.394	94
421.617	79
421.839	92
422.062	78
422.285	85
422.507	93
422.73	93
422.953	79
423.175	95
423.398	89
423.621	79
423.843	96
424.066	93
424.288	93
424.511	101
424.733	101
424.956	103
425.178	100
425.401	79
425.623	81
425.846	81
426.068	103
426.291	82
426.513	90
426.735	90
426.958	91
427.18	99
427.402	99
427.625	96
427.847	92
428.069	101
428.292	94
428.514	89
428.736	89
428.958	90
429.181	88
429.403	89
429.625	95
429.847	92
430.069	91
430.292	95
430.514	99
430.736	80
430.958	78
431.18	80
431.402	91
431.624	94
431.846	97
432.068	87
432.29	88
432.512	94
432.734	81
432.956	68
433.178	111
433.4	82
433.622	87
433.844	89
434.066	97
434.287	90
434.509	89
434.731	79
434.953	89
435.175	86
435.397	88
435.618	97
435.84	85
436.062	95
436.284	98
436.505	96
436.727	73
436.949	91
437.17	90
437.392	86
437.614	100
437.835	75
438.057	90
438.278	94
438.5	100
438.721	81
438.943	99
439.165	88
439.386	88
439.608	75
439.829	113
440.05	97
440.272	107
440.493	108
440.715	87
440.936	87
441.158	89
441.379	88
441.6	94
441.822	97
442.043	94
442.264	74
442.486	90
442.707	104
442.928	87
443.149	97
443.371	94
443.592	83
443.813	94
444.034	88
444.255	91
444.476	91
444.698	90
444.919	92
445.14	204
445.361	155
445.582	114
445.803	100
446.024	85
446.245	95
446.466	87
446.687	99
446.908	99
447.129	82
447.35	89
447.571	85
447.792	107
448.013	79
448.234	72
448.455	85
448.675	86
448.896	102
449.117	95
449.338	68
449.559	96
449.779	94
450	100
450.221	94
450.442	93
450.662	86
450.883	79
451.104	97
451.324	92
451.545	98
451.766	88
451.986	100
452.207	81
452.428	99
452.648	87
452.869	103
453.089	87
453.31	84
453.53	78
453.751	86
453.971	85
454.192	89
454.412	92
454.633	87
454.853	89
455.073	84
455.294	80
455.514	90
455.734	90
455.955	95
456.175	93
456.395	95
456.616	87
456.836	84
457.056	91
457.276	76
457.497	70
457.717	72
457.937	80
458.157	94
458.377	81
458.598	81
458.818	68
459.038	72
459.258	78
459.478	87
459.698	73
459.918	87
460.138	92
460.358	99
460.578	92
460.798	70
461.018	85
461.238	81
461.458	85
461.678	86
461.898	86
462.118	100
462.338	83
462.558	77
462.777	85
462.997	93
463.217	88
463.437	73
463.657	94
463.876	79
464.096	86
464.316	66
464.536	87
464.755	83
464.975	86
465.195	85
465.414	88
465.634	66
465.854	82
466.073	84
466.293	77
466.512	97
466.732	74
466.951	98
467.171	80
467.391	81
467.61	99
467.829	97
468.049	106
468.268	103
468.488	103
468.707	82
468.927	96
469.146	87
469.365	102
469.585	97
469.804	89
470.023	95
470.243	94
470.462	95
470.681	90
470.901	91
471.12	92
471.339	99
471.558	100
471.777	94
471.997	95
472.216	86
472.435	76
472.654	84
472.873	88
473.092	85
473.311	103
473.53	86
473.749	88
473.968	79
474.187	90
474.406	95
474.625	93
474.844	84
475.063	81
475.282	76
475.501	77
475.72	102
475.939	91
476.158	94
476.377	88
476.596	100
476.814	95
477.033	75
477.252	94
477.471	78
477.69	102
477.908	94
478.127	107
478.346	82
478.564	90
478.783	97
479.002	100
479.22	88
479.439	98
479.658	97
479.876	90
480.095	81
480.313	78
480.532	80
480.751	97
480.969	86
481.188	71
481.406	96
481.624	82
481.843	83
482.061	106
482.28	82
482.498	101
482.717	87
482.935	81
483.153	99
483.372	99
483.59	95
483.808	101
484.027	93
484.245	96
484.463	103
484.681	100
484.9	94
485.118	101
485.336	88
485.554	97
485.772	93
485.99	96
486.209	83
486.427	99
486.645	87
486.863	103
487.081	84
487.299	82
487.517	99
487.735	104
487.953	117
488.171	98
488.389	118
488.607	98
488.825	90
489.043	96
489.261	97
489.479	87
489.696	91
489.914	84
490.132	94
490.35	80
490.568	103
490.786	97
491.003	96
491.221	113
491.439	105
491.657	105
491.874	120
492.092	116
492.31	129
492.527	133
492.745	105
492.963	114
493.18	111
493.398	106
493.615	119
493.833	104
494.05	114
494.268	122
494.485	103
494.703	100
494.92	111
495.138	102
495.355	96
495.573	116
495.79	108
496.008	98
496.225	96
496.442	103
496.66	102
496.877	101
497.094	100
497.312	106
497.529	111
497.746	95
497.963	86
498.181	94
498.398	82
498.615	85
498.832	88
499.049	95
499.267	104
499.484	96
499.701	102
499.918	95
500.135	111
500.352	87
500.569	94
500.786	90
501.003	102
501.22	102
501.437	91
501.654	102
501.871	95
502.088	82
502.305	85
502.522	89
502.739	76
502.956	80
503.172	100
503.389	84
503.606	83
503.823	91
504.04	90
504.256	97
504.473	84
504.69	91
504.907	98
505.123	87
505.34	96
505.557	98
505.773	85
505.99	106
506.207	88
506.423	98
506.64	80
506.856	97
507.073	93
507.289	84
507.506	104
507.722	87
507.939	82
508.155	94
508.372	86
508.588	88
508.805	85
509.021	75
509.238	92
509.454	80
509.67	91
509.887	96
510.103	81
510.319	77
510.536	83
510.752	79
510.968	79
511.184	77
511.401	88
511.617	89
511.833	96
512.049	94
512.265	85
512.481	91
512.698	84
512.914	99
513.13	74
513.346	76
513.562	84
513.778	89
513.994	73
514.21	74
514.426	86
514.642	94
514.858	84
515.074	81
515.29	92
515.506	93
515.721	94
515.937	71
516.153	75
516.369	71
516.585	100
516.801	85
517.016	94
517.232	83
517.448	78
517.664	75
517.879	92
518.095	92
518.311	89
518.527	96
518.742	96
518.958	81
519.173	78
519.389	86
519.605	77
519.82	88
520.036	89
520.251	81
520.467	86
520.682	81
520.898	100
521.113	99
521.329	84
521.544	85
521.76	90
521.975	88
522.19	79
522.406	82
522.621	91
522.836	104
523.052	94
523.267	100
523.482	98
523.698	79
523.913	84
524.128	79
524.343	81
524.559	87
524.774	90
524.989	99
525.204	92
525.419	95
525.634	83
525.849	70
526.064	103
526.28	88
526.495	89
526.71	91
526.925	92
527.14	77
527.355	83
527.57	75
527.785	85
527.999	76
528.214	114
528.429	101
528.644	85
528.859	97
529.074	94
529.289	105
529.503	97
529.718	99
529.933	104
530.148	106
530.363	92
530.577	76
530.792	84
531.007	85
531.221	93
531.436	90
531.651	72
531.865	94
532.08	83
532.295	86
532.509	84
532.724	83
532.938	80
533.153	95
533.367	91
533.582	114
533.796	94
534.011	103
534.225	94
534.44	85
534.654	78
534.868	74
535.083	87
535.297	80
535.511	105
535.726	88
535.94	93
536.154	75
536.369	88
536.583	86
536.797	79
537.011	79
537.225	88
537.44	83
537.654	86
537.868	104
538.082	86
538.296	84
538.51	95
538.724	81
538.938	88
539.153	88
539.367	97
539.581	90
539.795	80
540.009	88
540.222	80
540.436	72
540.65	82
540.864	82
541.078	82
541.292	98
541.506	113
541.72	98
541.934	116
542.147	126
542.361	112
542.575	107
542.789	102
543.002	84
543.216	101
543.43	88
543.644	96
543.857	105
544.071	106
544.285	110
544.498	96
544.712	114
544.925	106
545.139	100
545.352	96
545.566	101
545.779	99
545.993	99
546.206	118
546.42	112
546.633	111
546.847	103
547.06	97
547.274	99
547.487	112
547.7	107
547.914	113
548.127	87
548.34	100
548.554	96
548.767	103
548.98	96
549.193	88
549.407	103
549.62	101
549.833	103
550.046	94
550.259	91
550.473	94
550.686	95
550.899	94
551.112	103
551.325	108
551.538	103
551.751	102
551.964	103
552.177	103
552.39	97
552.603	102
552.816	104
553.029	102
553.242	99
553.455	108
553.667	100
553.88	100
554.093	84
554.306	95
554.519	104
554.732	101
554.944	108
555.157	88
555.37	85
555.583	93
555.795	99
556.008	100
556.221	82
556.433	96
556.646	99
556.859	90
557.071	94
557.284	110
557.496	98
557.709	100
557.921	103
558.134	114
558.346	92
558.559	98
558.771	100
558.984	96
559.196	94
559.409	90
559.621	103
559.833	95
560.046	86
560.258	92
560.47	87
560.683	90
560.895	99
561.107	92
561.32	100
561.532	90
561.744	87
561.956	101
562.168	98
562.381	98
562.593	110
562.805	105
563.017	101
563.229	99
563.441	93
563.653	93
563.865	86
564.077	95
564.289	92
564.501	95
564.713	99
564.925	94
565.137	92
565.349	85
565.561	96
565.773	92
565.985	85
566.197	89
566.408	89
566.62	91
566.832	95
567.044	99
567.255	98
567.467	88
567.679	88
567.891	99
568.102	78
568.314	82
568.526	86
568.737	88
568.949	81
569.161	87
569.372	89
569.584	76
569.795	83
570.007	85
570.218	99
570.43	92
570.641	86
570.853	88
571.064	108
571.276	83
571.487	92
571.698	84
571.91	92
572.121	74
572.333	80
572.544	94
572.755	84
572.966	89
573.178	97
573.389	74
573.6	90
573.811	89
574.023	87
574.234	69
574.445	90
574.656	81
574.867	85
575.078	83
575.289	97
575.501	89
575.712	93
575.923	94
576.134	83
576.345	91
576.556	84
576.767	105
576.978	93
577.188	77
577.399	85
577.61	94
577.821	94
578.032	77
578.243	79
578.454	79
578.665	89
578.875	79
579.086	76
579.297	82
579.508	73
579.718	77
579.929	97
580.14	106
580.35	91
580.561	89
580.772	77
580.982	90
581.193	83
581.403	102
581.614	92
581.825	98
582.035	100
582.246	88
582.456	83
582.667	72
582.877	75
583.087	76
583.298	91
583.508	100
583.719	91
583.929	96
584.139	83
584.35	90
584.56	77
584.77	79
584.981	75
585.191	81
585.401	79
585.611	68
585.821	78
586.032	78
586.242	90
586.452	71
586.662	75
586.872	76
587.082	83
587.292	62
587.502	78
587.713	63
587.923	86
588.133	88
588.343	92
588.553	95
588.762	91
588.972	82
589.182	80
589.392	86
589.602	93
589.812	80
590.022	95
590.232	71
590.441	82
590.651	94
590.861	79
591.071	91
591.281	84
591.49	88
591.7	84
591.91	91
592.119	80
592.329	81
592.539	82
592.748	98
592.958	71
593.167	82
593.377	88
593.587	84
593.796	85
594.006	79
594.215	95
594.424	83
594.634	86
594.843	97
595.053	94
595.262	86
595.472	78
595.681	99
595.89	114
596.1	83
596.309	77
596.518	87
596.727	84
596.937	90
597.146	86
597.355	83
597.564	102
597.774	80
597.983	95
598.192	91
598.401	88
598.61	81
598.819	94
599.028	87
599.237	94
599.446	83
599.655	83
599.864	75
600.073	93
600.282	85
600.491	81
600.7	89
600.909	77
601.118	73
601.327	97
601.536	83
601.745	86
601.953	88
602.162	95
602.371	93
602.58	77
602.789	105
602.997	96
603.206	98
603.415	85
603.623	95
603.832	83
604.041	89
604.249	83
604.458	94
604.666	74
604.875	72
605.084	74
605.292	86
605.501	82
605.709	84
605.918	96
606.126	102
606.334	87
606.543	87
606.751	92
606.96	86
607.168	103
607.376	73
607.585	101
607.793	90
608.001	94
608.21	87
608.418	94
608.626	79
608.834	110
609.043	82
609.251	88
609.459	94
609.667	99
609.875	101
610.083	87
610.291	110
610.499	89
610.707	86
610.916	73
611.124	72
611.332	95
611.54	77
611.748	89
611.955	88
612.163	89
612.371	92
612.579	96
612.787	102
612.995	87
613.203	83
613.411	79
613.618	76
613.826	88
614.034	91
614.242	91
614.449	83
614.657	84
614.865	97
615.072	90
615.28	100
615.488	94
615.695	83
615.903	104
616.111	87
616.318	82
616.526	90
616.733	88
616.941	92
617.148	96
617.356	98
617.563	84
617.771	74
617.978	83
618.185	86
618.393	83
618.6	95
618.807	96
619.015	89
619.222	96
619.429	99
619.637	91
619.844	84
620.051	83
620.258	83
620.466	76
620.673	97
620.88	81
621.087	93
621.294	85
621.501	75
621.708	77
621.915	88
622.122	96
622.329	99
622.536	100
622.743	87
622.95	97
623.157	92
623.364	82
623.571	88
623.778	74
623.985	95
624.192	89
624.399	107
624.606	86
624.812	92
625.019	87
625.226	88
625.433	93
625.639	95
625.846	87
626.053	87
626.259	88
626.466	84
626.673	89
626.879	77
627.086	95
627.293	88
627.499	90
627.706	95
627.912	95
628.119	86
628.325	90
628.532	88
628.738	78
628.945	94
629.151	99
629.357	86
629.564	73
629.77	88
629.976	98
630.183	87
630.389	88
630.595	85
630.802	90
631.008	81
631.214	82
631.42	80
631.627	92
631.833	100
632.039	84
632.245	83
632.451	80
632.657	86
632.863	82
633.069	91
633.275	97
633.481	103
633.688	85
633.893	91
634.099	85
634.305	81
634.511	81
634.717	90
634.923	70
635.129	105
635.335	91
635.541	98
635.747	96
635.952	83
636.158	83
636.364	85
636.57	84
636.775	87
636.981	78
637.187	86
637.392	78
637.598	82
637.804	91
638.009	79
638.215	86
638.421	102
638.626	85
638.832	84
639.037	80
639.243	96
639.448	90
639.654	64
639.859	83
640.065	87
640.27	94
640.475	98
640.681	87
640.886	94
641.091	78
641.297	87
641.502	96
641.707	88
641.913	84
642.118	92
642.323	95
642.528	95
642.733	92
642.939	89
643.144	90
643.349	91
643.554	90
643.759	83
643.964	90
644.169	74
644.374	84
644.579	80
644.784	91
644.989	72
645.194	85
645.399	83
645.604	98
645.809	92
646.014	77
646.219	86
646.423	83
646.628	87
646.833	101
647.038	87
647.243	80
647.447	89
647.652	81
647.857	88
648.062	90
648.266	97
648.471	92
648.676	77
648.88	84
649.085	99
649.289	89
649.494	89
649.698	92
649.903	75
650.107	85
650.312	96
650.516	87
650.721	74
650.925	88
651.13	75
651.334	77
651.539	95
651.743	91
651.947	82
652.152	88
652.356	87
652.56	85
652.764	88
652.969	87
653.173	76
653.377	74
653.581	82
653.785	91
653.99	79
654.194	86
654.398	82
654.602	75
654.806	70
655.01	90
655.214	79
655.418	94
655.622	92
655.826	92
656.03	83
656.234	87
656.438	92
656.642	62
656.846	82
657.049	70
657.253	77
657.457	80
657.661	76
657.865	80
658.068	95
658.272	72
658.476	71
658.68	82
658.883	90
659.087	76
659.291	90
659.494	57
659.698	82
659.901	92
660.105	85
660.309	90
660.512	76
660.716	71
660.919	82
661.123	94
661.326	82
661.53	78
661.733	75
661.936	94
662.14	82
662.343	78
662.546	89
662.75	80
662.953	76
663.156	83
663.36	86
663.563	94
663.766	88
663.969	85
664.173	80
664.376	83
664.579	76
664.782	90
664.985	81
665.188	72
665.391	74
665.594	78
665.797	84
666	70
666.203	82
666.406	72
666.609	81
666.812	79
667.015	68
667.218	90
667.421	86
667.624	62
667.827	99
668.03	80
668.232	81
668.435	74
668.638	82
668.841	92
669.043	74
669.246	83
669.449	78
669.651	96
669.854	82
670.057	76
670.259	71
670.462	89
670.665	94
670.867	87
671.07	94
671.272	90
671.475	77
671.677	70
671.88	84
672.082	83
672.284	72
672.487	79
672.689	74
672.892	80
