Data from Location5.07152019.Energy5.Lamp.07192019.3%Agarose_HRD10591_16-02-50-628.txt Node
Date: Fri Jul 19 16:02:50 EDT 2019
User: cochatt
Spectrometer: HR+D1059
Trigger mode: 1
Integration Time (sec): 1.000000E-1
Scans to average: 1
Electric dark correction enabled: true
Nonlinearity correction enabled: false
Boxcar width: 0
XAxis mode: Wavelengths
Number of Pixels in Spectrum: 2048
>>>>>Begin Spectral Data<<<<<
223.165	-11
223.4	-11
223.635	-11
223.869	-15
224.104	-12
224.338	-22
224.573	-17
224.808	-2
225.042	-20
225.277	-17
225.511	-13
225.746	7
225.98	8
226.215	11
226.449	24
226.683	27
226.918	25
227.152	27
227.387	39
227.621	27
227.856	36
228.09	48
228.324	58
228.559	66
228.793	42
229.027	54
229.262	65
229.496	70
229.73	69
229.964	62
230.199	72
230.433	79
230.667	86
230.901	79
231.136	75
231.37	73
231.604	73
231.838	74
232.072	83
232.306	84
232.541	74
232.775	87
233.009	94
233.243	69
233.477	87
233.711	78
233.945	80
234.179	76
234.413	87
234.647	82
234.881	83
235.115	84
235.349	79
235.583	74
235.817	87
236.051	89
236.285	80
236.519	82
236.753	81
236.987	87
237.221	74
237.455	69
237.689	86
237.922	86
238.156	74
238.39	87
238.624	83
238.858	88
239.091	81
239.325	68
239.559	68
239.793	70
240.027	69
240.26	79
240.494	79
240.728	75
240.961	70
241.195	86
241.429	68
241.662	78
241.896	65
242.13	81
242.363	74
242.597	64
242.83	82
243.064	87
243.298	84
243.531	70
243.765	67
243.998	78
244.232	78
244.465	79
244.699	70
244.932	68
245.166	83
245.399	76
245.633	71
245.866	84
246.099	71
246.333	79
246.566	69
246.8	94
247.033	69
247.266	83
247.5	84
247.733	79
247.966	84
248.2	77
248.433	73
248.666	80
248.899	82
249.133	88
249.366	75
249.599	86
249.832	68
250.066	86
250.299	69
250.532	60
250.765	86
250.998	73
251.231	79
251.465	88
251.698	91
251.931	68
252.164	80
252.397	86
252.63	86
252.863	83
253.096	79
253.329	67
253.562	75
253.795	75
254.028	89
254.261	81
254.494	77
254.727	83
254.96	95
255.193	89
255.426	77
255.659	81
255.892	67
256.124	83
256.357	71
256.59	90
256.823	82
257.056	76
257.289	81
257.521	70
257.754	85
257.987	93
258.22	82
258.452	80
258.685	89
258.918	81
259.151	86
259.383	82
259.616	88
259.849	77
260.081	70
260.314	84
260.547	95
260.779	74
261.012	85
261.244	80
261.477	79
261.71	79
261.942	77
262.175	84
262.407	77
262.64	81
262.872	78
263.105	82
263.337	87
263.57	89
263.802	90
264.035	91
264.267	79
264.499	65
264.732	75
264.964	79
265.197	86
265.429	86
265.661	73
265.894	86
266.126	91
266.358	86
266.591	84
266.823	92
267.055	78
267.287	85
267.52	72
267.752	80
267.984	82
268.216	81
268.448	91
268.681	81
268.913	79
269.145	94
269.377	78
269.609	90
269.841	79
270.073	100
270.306	94
270.538	88
270.77	80
271.002	77
271.234	77
271.466	83
271.698	78
271.93	80
272.162	91
272.394	81
272.626	98
272.858	92
273.09	96
273.322	88
273.553	104
273.785	87
274.017	95
274.249	94
274.481	91
274.713	79
274.945	86
275.176	94
275.408	87
275.64	90
275.872	75
276.104	81
276.335	82
276.567	87
276.799	86
277.031	82
277.262	92
277.494	83
277.726	78
277.957	81
278.189	93
278.421	91
278.652	78
278.884	82
279.115	95
279.347	105
279.579	97
279.81	98
280.042	89
280.273	94
280.505	82
280.736	86
280.968	82
281.199	81
281.431	81
281.662	100
281.894	98
282.125	84
282.356	92
282.588	75
282.819	87
283.051	86
283.282	88
283.513	94
283.745	80
283.976	88
284.207	85
284.439	90
284.67	93
284.901	100
285.132	105
285.364	89
285.595	84
285.826	89
286.057	87
286.288	83
286.52	83
286.751	84
286.982	86
287.213	93
287.444	96
287.675	79
287.906	86
288.138	100
288.369	112
288.6	95
288.831	81
289.062	88
289.293	89
289.524	86
289.755	86
289.986	90
290.217	91
290.448	82
290.679	105
290.91	100
291.141	87
291.371	89
291.602	88
291.833	62
292.064	90
292.295	86
292.526	98
292.757	88
292.987	94
293.218	85
293.449	96
293.68	82
293.91	114
294.141	93
294.372	83
294.603	81
294.833	84
295.064	81
295.295	101
295.525	102
295.756	91
295.987	87
296.217	80
296.448	84
296.679	97
296.909	97
297.14	89
297.37	88
297.601	91
297.831	90
298.062	91
298.292	86
298.523	80
298.753	90
298.984	98
299.214	93
299.445	92
299.675	88
299.905	83
300.136	91
300.366	95
300.597	96
300.827	109
301.057	96
301.288	95
301.518	85
301.748	81
301.979	97
302.209	96
302.439	91
302.669	73
302.9	86
303.13	95
303.36	103
303.59	101
303.82	76
304.051	98
304.281	92
304.511	113
304.741	98
304.971	92
305.201	89
305.431	88
305.661	82
305.891	77
306.121	79
306.352	78
306.582	82
306.812	110
307.042	86
307.272	95
307.502	88
307.731	75
307.961	78
308.191	77
308.421	92
308.651	94
308.881	103
309.111	91
309.341	93
309.571	92
309.8	82
310.03	102
310.26	86
310.49	94
310.72	91
310.949	95
311.179	87
311.409	105
311.639	81
311.868	87
312.098	86
312.328	82
312.557	98
312.787	96
313.017	88
313.246	88
313.476	85
313.706	87
313.935	90
314.165	83
314.394	100
314.624	95
314.853	91
315.083	91
315.312	77
315.542	89
315.771	97
316.001	102
316.23	84
316.46	104
316.689	78
316.919	75
317.148	86
317.377	103
317.607	87
317.836	101
318.065	74
318.295	90
318.524	105
318.753	91
318.983	81
319.212	98
319.441	99
319.67	98
319.9	89
320.129	85
320.358	80
320.587	92
320.816	92
321.046	85
321.275	97
321.504	99
321.733	81
321.962	88
322.191	91
322.42	78
322.649	80
322.878	92
323.108	90
323.337	100
323.566	85
323.795	98
324.024	88
324.253	94
324.482	93
324.71	107
324.939	80
325.168	102
325.397	106
325.626	99
325.855	100
326.084	93
326.313	98
326.542	80
326.77	85
326.999	103
327.228	90
327.457	83
327.686	95
327.914	97
328.143	91
328.372	98
328.6	95
328.829	92
329.058	113
329.287	94
329.515	96
329.744	107
329.972	102
330.201	90
330.43	81
330.658	86
330.887	95
331.115	91
331.344	104
331.572	93
331.801	81
332.03	98
332.258	87
332.486	88
332.715	83
332.943	104
333.172	96
333.4	114
333.629	98
333.857	84
334.085	98
334.314	109
334.542	72
334.771	101
334.999	93
335.227	98
335.455	96
335.684	97
335.912	104
336.14	86
336.369	96
336.597	95
336.825	87
337.053	89
337.281	85
337.51	86
337.738	85
337.966	94
338.194	76
338.422	96
338.65	109
338.878	94
339.106	90
339.334	94
339.562	92
339.79	91
340.018	103
340.246	84
340.474	105
340.702	97
340.93	93
341.158	82
341.386	79
341.614	84
341.842	96
342.07	106
342.298	107
342.526	89
342.754	88
342.981	86
343.209	95
343.437	96
343.665	92
343.893	93
344.12	101
344.348	98
344.576	76
344.804	107
345.031	79
345.259	101
345.487	103
345.714	87
345.942	79
346.17	100
346.397	93
346.625	86
346.853	87
347.08	83
347.308	100
347.535	101
347.763	90
347.99	91
348.218	85
348.445	77
348.673	81
348.9	82
349.128	91
349.355	95
349.583	91
349.81	86
350.037	89
350.265	95
350.492	91
350.72	83
350.947	100
351.174	94
351.402	94
351.629	89
351.856	85
352.083	96
352.311	80
352.538	84
352.765	102
352.992	90
353.22	93
353.447	87
353.674	88
353.901	94
354.128	91
354.355	91
354.583	83
354.81	91
355.037	88
355.264	99
355.491	94
355.718	102
355.945	95
356.172	79
356.399	99
356.626	94
356.853	88
357.08	84
357.307	106
357.534	81
357.761	91
357.988	98
358.215	101
358.441	100
358.668	87
358.895	89
359.122	88
359.349	87
359.576	90
359.802	95
360.029	100
360.256	100
360.483	104
360.709	100
360.936	103
361.163	92
361.39	84
361.616	102
361.843	99
362.07	88
362.296	106
362.523	94
362.749	84
362.976	86
363.203	105
363.429	84
363.656	80
363.882	75
364.109	89
364.335	96
364.562	99
364.788	82
365.015	93
365.241	86
365.468	100
365.694	87
365.92	92
366.147	86
366.373	85
366.599	78
366.826	92
367.052	107
367.278	83
367.505	100
367.731	90
367.957	89
368.184	87
368.41	88
368.636	90
368.862	89
369.089	90
369.315	94
369.541	88
369.767	97
369.993	96
370.219	88
370.445	94
370.672	79
370.898	89
371.124	94
371.35	85
371.576	85
371.802	96
372.028	90
372.254	102
372.48	93
372.706	93
372.932	102
373.158	93
373.384	85
373.61	89
373.835	102
374.061	84
374.287	99
374.513	87
374.739	102
374.965	99
375.191	99
375.416	100
375.642	85
375.868	79
376.094	115
376.319	100
376.545	88
376.771	110
376.997	86
377.222	96
377.448	77
377.674	100
377.899	81
378.125	92
378.35	90
378.576	99
378.802	92
379.027	92
379.253	107
379.478	88
379.704	91
379.929	101
380.155	78
380.38	107
380.606	94
380.831	99
381.057	80
381.282	106
381.507	104
381.733	95
381.958	99
382.184	86
382.409	97
382.634	86
382.86	92
383.085	91
383.31	82
383.535	86
383.761	82
383.986	95
384.211	85
384.436	93
384.662	95
384.887	90
385.112	107
385.337	94
385.562	91
385.787	95
386.013	98
386.238	92
386.463	80
386.688	95
386.913	89
387.138	87
387.363	98
387.588	86
387.813	87
388.038	99
388.263	82
388.488	92
388.713	73
388.938	77
389.163	98
389.387	93
389.612	92
389.837	96
390.062	93
390.287	84
390.512	85
390.736	91
390.961	103
391.186	111
391.411	81
391.636	89
391.86	89
392.085	104
392.31	82
392.534	90
392.759	92
392.984	105
393.208	103
393.433	92
393.658	98
393.882	103
394.107	81
394.331	74
394.556	83
394.78	89
395.005	90
395.229	87
395.454	92
395.678	101
395.903	94
396.127	90
396.352	84
396.576	85
396.801	98
397.025	90
397.249	96
397.474	105
397.698	89
397.922	99
398.147	83
398.371	76
398.595	91
398.82	97
399.044	99
399.268	105
399.492	103
399.717	112
399.941	113
400.165	110
400.389	98
400.613	111
400.837	104
401.062	88
401.286	90
401.51	95
401.734	93
401.958	100
402.182	82
402.406	90
402.63	99
402.854	88
403.078	108
403.302	104
403.526	95
403.75	104
403.974	85
404.198	105
404.422	113
404.645	103
404.869	107
405.093	106
405.317	99
405.541	98
405.765	101
405.988	96
406.212	93
406.436	104
406.66	91
406.883	106
407.107	97
407.331	102
407.555	95
407.778	101
408.002	99
408.226	100
408.449	87
408.673	96
408.896	95
409.12	95
409.344	91
409.567	90
409.791	99
410.014	101
410.238	102
410.461	95
410.685	98
410.908	99
411.132	100
411.355	81
411.578	95
411.802	83
412.025	97
412.249	104
412.472	90
412.695	89
412.919	97
413.142	89
413.365	87
413.589	87
413.812	102
414.035	97
414.258	87
414.482	102
414.705	89
414.928	92
415.151	102
415.374	85
415.597	78
415.821	89
416.044	98
416.267	102
416.49	108
416.713	105
416.936	95
417.159	110
417.382	91
417.605	95
417.828	94
418.051	98
418.274	83
418.497	98
418.72	87
418.943	103
419.166	103
419.389	98
419.611	94
419.834	87
420.057	88
420.28	87
420.503	93
420.726	98
420.948	100
421.171	92
421.394	96
421.617	102
421.839	102
422.062	91
422.285	100
422.507	106
422.73	83
422.953	89
423.175	98
423.398	98
423.621	89
423.843	88
424.066	99
424.288	100
424.511	116
424.733	104
424.956	108
425.178	97
425.401	98
425.623	95
425.846	89
426.068	95
426.291	94
426.513	99
426.735	91
426.958	92
427.18	104
427.402	89
427.625	94
427.847	80
428.069	112
428.292	100
428.514	92
428.736	88
428.958	86
429.181	99
429.403	107
429.625	101
429.847	89
430.069	102
430.292	101
430.514	97
430.736	97
430.958	98
431.18	79
431.402	69
431.624	101
431.846	99
432.068	110
432.29	97
432.512	94
432.734	82
432.956	101
433.178	82
433.4	81
433.622	94
433.844	96
434.066	98
434.287	98
434.509	84
434.731	92
434.953	94
435.175	98
435.397	98
435.618	103
435.84	92
436.062	82
436.284	100
436.505	97
436.727	105
436.949	82
437.17	91
437.392	93
437.614	93
437.835	90
438.057	98
438.278	91
438.5	92
438.721	99
438.943	99
439.165	92
439.386	107
439.608	94
439.829	99
440.05	84
440.272	96
440.493	95
440.715	95
440.936	95
441.158	108
441.379	107
441.6	96
441.822	102
442.043	104
442.264	99
442.486	93
442.707	110
442.928	115
443.149	109
443.371	113
443.592	114
443.813	98
444.034	104
444.255	104
444.476	99
444.698	111
444.919	90
445.14	219
445.361	152
445.582	96
445.803	98
446.024	82
446.245	92
446.466	95
446.687	85
446.908	86
447.129	107
447.35	85
447.571	93
447.792	95
448.013	85
448.234	91
448.455	86
448.675	84
448.896	95
449.117	101
449.338	115
449.559	92
449.779	87
450	110
450.221	105
450.442	88
450.662	87
450.883	98
451.104	99
451.324	87
451.545	91
451.766	98
451.986	86
452.207	83
452.428	92
452.648	88
452.869	100
453.089	80
453.31	93
453.53	87
453.751	81
453.971	83
454.192	96
454.412	98
454.633	99
454.853	95
455.073	91
455.294	97
455.514	95
455.734	88
455.955	91
456.175	92
456.395	99
456.616	95
456.836	103
457.056	92
457.276	85
457.497	92
457.717	92
457.937	83
458.157	91
458.377	100
458.598	97
458.818	91
459.038	70
459.258	84
459.478	90
459.698	92
459.918	83
460.138	91
460.358	88
460.578	95
460.798	99
461.018	87
461.238	94
461.458	99
461.678	95
461.898	91
462.118	100
462.338	104
462.558	97
462.777	100
462.997	99
463.217	103
463.437	94
463.657	100
463.876	106
464.096	113
464.316	110
464.536	105
464.755	99
464.975	107
465.195	93
465.414	96
465.634	94
465.854	90
466.073	105
466.293	100
466.512	102
466.732	92
466.951	104
467.171	110
467.391	102
467.61	94
467.829	90
468.049	94
468.268	96
468.488	93
468.707	88
468.927	91
469.146	98
469.365	84
469.585	93
469.804	91
470.023	103
470.243	99
470.462	112
470.681	98
470.901	118
471.12	102
471.339	94
471.558	82
471.777	96
471.997	106
472.216	100
472.435	111
472.654	84
472.873	92
473.092	112
473.311	101
473.53	97
473.749	90
473.968	98
474.187	90
474.406	92
474.625	99
474.844	97
475.063	101
475.282	90
475.501	104
475.72	122
475.939	98
476.158	96
476.377	93
476.596	98
476.814	104
477.033	107
477.252	87
477.471	95
477.69	103
477.908	101
478.127	113
478.346	103
478.564	102
478.783	96
479.002	92
479.22	107
479.439	100
479.658	106
479.876	112
480.095	103
480.313	103
480.532	99
480.751	106
480.969	93
481.188	103
481.406	100
481.624	99
481.843	96
482.061	104
482.28	99
482.498	97
482.717	104
482.935	88
483.153	99
483.372	96
483.59	116
483.808	103
484.027	88
484.245	77
484.463	94
484.681	102
484.9	108
485.118	96
485.336	101
485.554	102
485.772	99
485.99	112
486.209	94
486.427	106
486.645	103
486.863	87
487.081	96
487.299	94
487.517	120
487.735	122
487.953	102
488.171	118
488.389	110
488.607	122
488.825	120
489.043	115
489.261	106
489.479	104
489.696	96
489.914	100
490.132	110
490.35	105
490.568	93
490.786	103
491.003	105
491.221	112
491.439	108
491.657	108
491.874	110
492.092	120
492.31	115
492.527	103
492.745	118
492.963	122
493.18	115
493.398	114
493.615	111
493.833	113
494.05	119
494.268	110
494.485	121
494.703	123
494.92	111
495.138	114
495.355	105
495.573	113
495.79	103
496.008	110
496.225	96
496.442	105
496.66	130
496.877	103
497.094	114
497.312	108
497.529	117
497.746	116
497.963	116
498.181	122
498.398	113
498.615	128
498.832	122
499.049	116
499.267	127
499.484	128
499.701	140
499.918	143
500.135	135
500.352	153
500.569	178
500.786	161
501.003	158
501.22	146
501.437	143
501.654	130
501.871	126
502.088	122
502.305	121
502.522	129
502.739	119
502.956	122
503.172	128
503.389	119
503.606	117
503.823	111
504.04	110
504.256	106
504.473	113
504.69	119
504.907	119
505.123	118
505.34	105
505.557	113
505.773	100
505.99	103
506.207	121
506.423	95
506.64	102
506.856	98
507.073	103
507.289	113
507.506	101
507.722	92
507.939	106
508.155	96
508.372	90
508.588	103
508.805	96
509.021	99
509.238	100
509.454	106
509.67	117
509.887	115
510.103	114
510.319	102
510.536	98
510.752	98
510.968	96
511.184	99
511.401	86
511.617	102
511.833	96
512.049	102
512.265	99
512.481	91
512.698	111
512.914	104
513.13	104
513.346	108
513.562	105
513.778	102
513.994	98
514.21	99
514.426	90
514.642	103
514.858	118
515.074	96
515.29	110
515.506	97
515.721	101
515.937	122
516.153	113
516.369	92
516.585	113
516.801	104
517.016	101
517.232	103
517.448	103
517.664	99
517.879	109
518.095	116
518.311	120
518.527	111
518.742	104
518.958	105
519.173	105
519.389	99
519.605	108
519.82	100
520.036	98
520.251	99
520.467	105
520.682	99
520.898	83
521.113	105
521.329	94
521.544	100
521.76	95
521.975	96
522.19	103
522.406	106
522.621	97
522.836	92
523.052	89
523.267	86
523.482	102
523.698	101
523.913	111
524.128	101
524.343	95
524.559	104
524.774	86
524.989	107
525.204	101
525.419	92
525.634	108
525.849	94
526.064	98
526.28	114
526.495	95
526.71	100
526.925	88
527.14	87
527.355	98
527.57	97
527.785	97
527.999	87
528.214	89
528.429	93
528.644	110
528.859	118
529.074	120
529.289	105
529.503	105
529.718	100
529.933	99
530.148	98
530.363	91
530.577	105
530.792	96
531.007	111
531.221	92
531.436	101
531.651	100
531.865	100
532.08	105
532.295	95
532.509	86
532.724	111
532.938	98
533.153	103
533.367	114
533.582	99
533.796	97
534.011	104
534.225	99
534.44	90
534.654	109
534.868	97
535.083	114
535.297	102
535.511	85
535.726	103
535.94	92
536.154	80
536.369	99
536.583	99
536.797	88
537.011	89
537.225	98
537.44	100
537.654	94
537.868	91
538.082	94
538.296	85
538.51	105
538.724	105
538.938	106
539.153	102
539.367	103
539.581	117
539.795	106
540.009	91
540.222	111
540.436	89
540.65	82
540.864	98
541.078	101
541.292	119
541.506	98
541.72	96
541.934	115
542.147	112
542.361	102
542.575	107
542.789	107
543.002	82
543.216	103
543.43	94
543.644	101
543.857	92
544.071	95
544.285	95
544.498	93
544.712	96
544.925	94
545.139	99
545.352	103
545.566	104
545.779	114
545.993	112
546.206	100
546.42	124
546.633	107
546.847	114
547.06	112
547.274	103
547.487	113
547.7	105
547.914	114
548.127	113
548.34	103
548.554	99
548.767	96
548.98	109
549.193	98
549.407	108
549.62	94
549.833	97
550.046	106
550.259	113
550.473	111
550.686	110
550.899	111
551.112	122
551.325	91
551.538	91
551.751	93
551.964	114
552.177	99
552.39	94
552.603	91
552.816	106
553.029	98
553.242	91
553.455	101
553.667	118
553.88	99
554.093	118
554.306	114
554.519	107
554.732	97
554.944	105
555.157	90
555.37	118
555.583	112
555.795	106
556.008	101
556.221	102
556.433	101
556.646	107
556.859	110
557.071	96
557.284	111
557.496	102
557.709	107
557.921	97
558.134	91
558.346	104
558.559	98
558.771	100
558.984	100
559.196	89
559.409	91
559.621	104
559.833	92
560.046	95
560.258	96
560.47	99
560.683	97
560.895	100
561.107	94
561.32	111
561.532	101
561.744	104
561.956	116
562.168	88
562.381	104
562.593	90
562.805	88
563.017	94
563.229	102
563.441	100
563.653	100
563.865	78
564.077	99
564.289	95
564.501	104
564.713	104
564.925	114
565.137	90
565.349	89
565.561	80
565.773	98
565.985	113
566.197	117
566.408	104
566.62	110
566.832	115
567.044	111
567.255	109
567.467	105
567.679	105
567.891	104
568.102	103
568.314	104
568.526	94
568.737	106
568.949	90
569.161	93
569.372	94
569.584	107
569.795	102
570.007	96
570.218	96
570.43	91
570.641	84
570.853	84
571.064	94
571.276	81
571.487	100
571.698	97
571.91	95
572.121	92
572.333	83
572.544	99
572.755	95
572.966	86
573.178	89
573.389	88
573.6	91
573.811	84
574.023	94
574.234	85
574.445	98
574.656	85
574.867	74
575.078	82
575.289	91
575.501	98
575.712	91
575.923	89
576.134	97
576.345	89
576.556	92
576.767	98
576.978	106
577.188	101
577.399	79
577.61	101
577.821	96
578.032	90
578.243	85
578.454	86
578.665	89
578.875	92
579.086	100
579.297	102
579.508	85
579.718	80
579.929	93
580.14	93
580.35	94
580.561	84
580.772	86
580.982	95
581.193	107
581.403	87
581.614	97
581.825	88
582.035	82
582.246	85
582.456	96
582.667	70
582.877	83
583.087	102
583.298	86
583.508	89
583.719	90
583.929	85
584.139	92
584.35	90
584.56	91
584.77	84
584.981	81
585.191	87
585.401	94
585.611	87
585.821	87
586.032	94
586.242	86
586.452	93
586.662	94
586.872	92
587.082	93
587.292	104
587.502	101
587.713	91
587.923	90
588.133	97
588.343	94
588.553	91
588.762	91
588.972	98
589.182	90
589.392	95
589.602	87
589.812	95
590.022	91
590.232	79
590.441	75
590.651	93
590.861	86
591.071	86
591.281	82
591.49	77
591.7	79
591.91	105
592.119	101
592.329	76
592.539	85
592.748	83
592.958	87
593.167	89
593.377	86
593.587	111
593.796	105
594.006	90
594.215	97
594.424	90
594.634	90
594.843	82
595.053	90
595.262	81
595.472	97
595.681	97
595.89	83
596.1	95
596.309	92
596.518	85
596.727	108
596.937	89
597.146	94
597.355	86
597.564	92
597.774	87
597.983	94
598.192	94
598.401	89
598.61	79
598.819	84
599.028	90
599.237	88
599.446	83
599.655	91
599.864	75
600.073	91
600.282	92
600.491	91
600.7	75
600.909	93
601.118	87
601.327	86
601.536	78
601.745	96
601.953	82
602.162	97
602.371	89
602.58	97
602.789	92
602.997	95
603.206	76
603.415	79
603.623	88
603.832	87
604.041	83
604.249	88
604.458	101
604.666	103
604.875	83
605.084	64
605.292	88
605.501	62
605.709	81
605.918	94
606.126	94
606.334	102
606.543	91
606.751	89
606.96	103
607.168	86
607.376	89
607.585	100
607.793	92
608.001	85
608.21	85
608.418	104
608.626	105
608.834	92
609.043	96
609.251	96
609.459	96
609.667	91
609.875	89
610.083	94
610.291	84
610.499	80
610.707	81
610.916	85
611.124	89
611.332	87
611.54	88
611.748	102
611.955	95
612.163	97
612.371	85
612.579	75
612.787	66
612.995	91
613.203	81
613.411	75
613.618	100
613.826	65
614.034	76
614.242	80
614.449	87
614.657	86
614.865	83
615.072	88
615.28	78
615.488	75
615.695	96
615.903	87
616.111	93
616.318	95
616.526	88
616.733	82
616.941	86
617.148	96
617.356	98
617.563	76
617.771	90
617.978	83
618.185	87
618.393	102
618.6	83
618.807	88
619.015	83
619.222	84
619.429	85
619.637	77
619.844	77
620.051	75
620.258	83
620.466	90
620.673	88
620.88	84
621.087	86
621.294	97
621.501	75
621.708	83
621.915	92
622.122	101
622.329	84
622.536	85
622.743	92
622.95	89
623.157	90
623.364	89
623.571	100
623.778	88
623.985	89
624.192	97
624.399	92
624.606	83
624.812	94
625.019	84
625.226	89
625.433	85
625.639	82
625.846	83
626.053	92
626.259	93
626.466	104
626.673	100
626.879	88
627.086	91
627.293	89
627.499	72
627.706	100
627.912	85
628.119	84
628.325	90
628.532	94
628.738	104
628.945	89
629.151	90
629.357	82
629.564	87
629.77	76
629.976	87
630.183	94
630.389	70
630.595	92
630.802	79
631.008	86
631.214	81
631.42	90
631.627	86
631.833	86
632.039	90
632.245	99
632.451	68
632.657	82
632.863	88
633.069	88
633.275	89
633.481	94
633.688	91
633.893	94
634.099	80
634.305	98
634.511	81
634.717	82
634.923	105
635.129	82
635.335	85
635.541	92
635.747	92
635.952	101
636.158	94
636.364	92
636.57	82
636.775	82
636.981	85
637.187	88
637.392	91
637.598	101
637.804	78
638.009	90
638.215	85
638.421	82
638.626	94
638.832	88
639.037	105
639.243	89
639.448	79
639.654	85
639.859	88
640.065	88
640.27	100
640.475	84
640.681	80
640.886	88
641.091	86
641.297	85
641.502	86
641.707	100
641.913	87
642.118	84
642.323	90
642.528	84
642.733	98
642.939	98
643.144	95
643.349	73
643.554	85
643.759	89
643.964	75
644.169	93
644.374	86
644.579	89
644.784	83
644.989	87
645.194	88
645.399	88
645.604	81
645.809	71
646.014	81
646.219	93
646.423	85
646.628	97
646.833	91
647.038	105
647.243	89
647.447	94
647.652	86
647.857	89
648.062	90
648.266	73
648.471	89
648.676	80
648.88	82
649.085	82
649.289	82
649.494	84
649.698	95
649.903	85
650.107	96
650.312	82
650.516	99
650.721	83
650.925	95
651.13	90
651.334	90
651.539	79
651.743	83
651.947	76
652.152	92
652.356	76
652.56	79
652.764	81
652.969	76
653.173	92
653.377	94
653.581	88
653.785	78
653.99	78
654.194	76
654.398	87
654.602	83
654.806	82
655.01	71
655.214	82
655.418	77
655.622	91
655.826	80
656.03	90
656.234	79
656.438	78
656.642	86
656.846	91
657.049	97
657.253	87
657.457	94
657.661	93
657.865	96
658.068	82
658.272	80
658.476	86
658.68	94
658.883	98
659.087	85
659.291	98
659.494	91
659.698	84
659.901	72
660.105	75
660.309	90
660.512	85
660.716	77
660.919	74
661.123	90
661.326	88
661.53	65
661.733	74
661.936	89
662.14	89
662.343	81
662.546	91
662.75	87
662.953	83
663.156	87
663.36	83
663.563	74
663.766	93
663.969	86
664.173	86
664.376	79
664.579	87
664.782	82
664.985	88
665.188	81
665.391	83
665.594	86
665.797	77
666	73
666.203	84
666.406	74
666.609	80
666.812	86
667.015	97
667.218	97
667.421	85
667.624	96
667.827	80
668.03	77
668.232	70
668.435	73
668.638	79
668.841	87
669.043	90
669.246	84
669.449	70
669.651	81
669.854	89
670.057	76
670.259	91
670.462	77
670.665	87
670.867	95
671.07	70
671.272	71
671.475	89
671.677	80
671.88	80
672.082	79
672.284	73
672.487	90
672.689	88
672.892	72
