Data from Location5.07152019.Energy5.Lamp.07192019.3%Agarose_HRD10591_16-04-50-629.txt Node
Date: Fri Jul 19 16:04:50 EDT 2019
User: cochatt
Spectrometer: HR+D1059
Trigger mode: 1
Integration Time (sec): 1.000000E-1
Scans to average: 1
Electric dark correction enabled: true
Nonlinearity correction enabled: false
Boxcar width: 0
XAxis mode: Wavelengths
Number of Pixels in Spectrum: 2048
>>>>>Begin Spectral Data<<<<<
223.165	-15
223.4	-15
223.635	-15
223.869	-15
224.104	-25
224.338	-14
224.573	-6
224.808	-8
225.042	-2
225.277	-5
225.511	-1
225.746	11
225.98	-1
226.215	19
226.449	3
226.683	24
226.918	22
227.152	13
227.387	27
227.621	38
227.856	52
228.09	53
228.324	48
228.559	60
228.793	78
229.027	48
229.262	69
229.496	63
229.73	76
229.964	74
230.199	77
230.433	92
230.667	75
230.901	84
231.136	84
231.37	76
231.604	90
231.838	86
232.072	85
232.306	88
232.541	85
232.775	98
233.009	79
233.243	91
233.477	74
233.711	97
233.945	94
234.179	96
234.413	92
234.647	77
234.881	88
235.115	92
235.349	87
235.583	88
235.817	84
236.051	81
236.285	66
236.519	91
236.753	79
236.987	80
237.221	71
237.455	78
237.689	80
237.922	73
238.156	91
238.39	75
238.624	77
238.858	92
239.091	97
239.325	74
239.559	88
239.793	76
240.027	69
240.26	73
240.494	81
240.728	69
240.961	64
241.195	70
241.429	79
241.662	87
241.896	74
242.13	69
242.363	63
242.597	67
242.83	75
243.064	72
243.298	81
243.531	92
243.765	75
243.998	69
244.232	64
244.465	81
244.699	88
244.932	73
245.166	70
245.399	68
245.633	79
245.866	85
246.099	73
246.333	79
246.566	91
246.8	76
247.033	76
247.266	74
247.5	82
247.733	69
247.966	96
248.2	87
248.433	81
248.666	80
248.899	88
249.133	83
249.366	85
249.599	84
249.832	85
250.066	85
250.299	89
250.532	78
250.765	85
250.998	100
251.231	66
251.465	81
251.698	82
251.931	72
252.164	92
252.397	81
252.63	80
252.863	85
253.096	78
253.329	91
253.562	74
253.795	82
254.028	71
254.261	79
254.494	68
254.727	97
254.96	96
255.193	91
255.426	78
255.659	77
255.892	98
256.124	80
256.357	77
256.59	75
256.823	77
257.056	86
257.289	89
257.521	79
257.754	64
257.987	96
258.22	82
258.452	86
258.685	84
258.918	86
259.151	81
259.383	92
259.616	85
259.849	75
260.081	74
260.314	93
260.547	75
260.779	82
261.012	84
261.244	95
261.477	96
261.71	80
261.942	100
262.175	96
262.407	96
262.64	76
262.872	94
263.105	92
263.337	80
263.57	76
263.802	84
264.035	83
264.267	101
264.499	84
264.732	87
264.964	90
265.197	86
265.429	79
265.661	88
265.894	82
266.126	83
266.358	89
266.591	82
266.823	81
267.055	92
267.287	89
267.52	90
267.752	94
267.984	72
268.216	80
268.448	92
268.681	99
268.913	93
269.145	96
269.377	80
269.609	97
269.841	99
270.073	87
270.306	91
270.538	87
270.77	96
271.002	72
271.234	72
271.466	80
271.698	78
271.93	78
272.162	83
272.394	75
272.626	81
272.858	86
273.09	97
273.322	84
273.553	87
273.785	96
274.017	86
274.249	94
274.481	81
274.713	89
274.945	88
275.176	89
275.408	93
275.64	89
275.872	95
276.104	85
276.335	87
276.567	95
276.799	86
277.031	79
277.262	87
277.494	87
277.726	92
277.957	91
278.189	96
278.421	94
278.652	87
278.884	80
279.115	91
279.347	89
279.579	88
279.81	90
280.042	84
280.273	100
280.505	80
280.736	97
280.968	101
281.199	93
281.431	100
281.662	88
281.894	87
282.125	85
282.356	104
282.588	98
282.819	93
283.051	97
283.282	93
283.513	91
283.745	95
283.976	84
284.207	82
284.439	84
284.67	84
284.901	90
285.132	73
285.364	91
285.595	91
285.826	107
286.057	87
286.288	96
286.52	93
286.751	84
286.982	77
287.213	84
287.444	87
287.675	91
287.906	93
288.138	81
288.369	97
288.6	89
288.831	77
289.062	100
289.293	104
289.524	89
289.755	102
289.986	91
290.217	104
290.448	94
290.679	80
290.91	95
291.141	100
291.371	88
291.602	104
291.833	75
292.064	86
292.295	79
292.526	102
292.757	78
292.987	80
293.218	89
293.449	90
293.68	98
293.91	77
294.141	82
294.372	89
294.603	88
294.833	91
295.064	99
295.295	87
295.525	114
295.756	107
295.987	89
296.217	92
296.448	95
296.679	84
296.909	93
297.14	101
297.37	101
297.601	102
297.831	77
298.062	83
298.292	98
298.523	106
298.753	83
298.984	95
299.214	95
299.445	96
299.675	99
299.905	83
300.136	85
300.366	84
300.597	98
300.827	83
301.057	87
301.288	102
301.518	87
301.748	91
301.979	95
302.209	88
302.439	97
302.669	92
302.9	87
303.13	92
303.36	84
303.59	85
303.82	80
304.051	92
304.281	96
304.511	101
304.741	104
304.971	87
305.201	96
305.431	97
305.661	98
305.891	86
306.121	93
306.352	87
306.582	96
306.812	104
307.042	80
307.272	93
307.502	87
307.731	98
307.961	94
308.191	96
308.421	93
308.651	82
308.881	91
309.111	72
309.341	98
309.571	82
309.8	78
310.03	95
310.26	93
310.49	104
310.72	99
310.949	87
311.179	87
311.409	85
311.639	95
311.868	85
312.098	104
312.328	92
312.557	89
312.787	99
313.017	86
313.246	85
313.476	92
313.706	96
313.935	92
314.165	108
314.394	89
314.624	101
314.853	85
315.083	91
315.312	92
315.542	111
315.771	95
316.001	83
316.23	88
316.46	90
316.689	82
316.919	92
317.148	91
317.377	86
317.607	92
317.836	94
318.065	78
318.295	82
318.524	82
318.753	100
318.983	96
319.212	83
319.441	87
319.67	97
319.9	94
320.129	98
320.358	95
320.587	100
320.816	92
321.046	92
321.275	103
321.504	95
321.733	88
321.962	97
322.191	108
322.42	103
322.649	90
322.878	86
323.108	101
323.337	107
323.566	77
323.795	95
324.024	90
324.253	84
324.482	82
324.71	100
324.939	95
325.168	107
325.397	85
325.626	101
325.855	91
326.084	78
326.313	99
326.542	90
326.77	106
326.999	102
327.228	93
327.457	91
327.686	88
327.914	101
328.143	92
328.372	103
328.6	95
328.829	87
329.058	99
329.287	93
329.515	89
329.744	107
329.972	103
330.201	88
330.43	82
330.658	99
330.887	98
331.115	87
331.344	93
331.572	97
331.801	95
332.03	94
332.258	99
332.486	95
332.715	89
332.943	99
333.172	108
333.4	90
333.629	99
333.857	114
334.085	90
334.314	99
334.542	85
334.771	106
334.999	108
335.227	92
335.455	84
335.684	87
335.912	106
336.14	100
336.369	86
336.597	93
336.825	108
337.053	102
337.281	105
337.51	98
337.738	104
337.966	95
338.194	86
338.422	85
338.65	94
338.878	92
339.106	98
339.334	98
339.562	80
339.79	93
340.018	99
340.246	103
340.474	96
340.702	93
340.93	90
341.158	81
341.386	91
341.614	85
341.842	101
342.07	88
342.298	103
342.526	96
342.754	99
342.981	102
343.209	92
343.437	86
343.665	98
343.893	90
344.12	83
344.348	108
344.576	96
344.804	90
345.031	92
345.259	93
345.487	96
345.714	90
345.942	97
346.17	104
346.397	102
346.625	92
346.853	80
347.08	93
347.308	95
347.535	83
347.763	90
347.99	106
348.218	104
348.445	87
348.673	91
348.9	84
349.128	92
349.355	75
349.583	88
349.81	88
350.037	95
350.265	102
350.492	85
350.72	91
350.947	84
351.174	99
351.402	92
351.629	72
351.856	101
352.083	95
352.311	90
352.538	91
352.765	85
352.992	90
353.22	92
353.447	99
353.674	100
353.901	93
354.128	103
354.355	90
354.583	93
354.81	110
355.037	91
355.264	92
355.491	98
355.718	99
355.945	85
356.172	92
356.399	96
356.626	94
356.853	101
357.08	92
357.307	94
357.534	101
357.761	95
357.988	91
358.215	98
358.441	94
358.668	97
358.895	107
359.122	87
359.349	80
359.576	95
359.802	95
360.029	99
360.256	89
360.483	81
360.709	89
360.936	94
361.163	99
361.39	90
361.616	94
361.843	82
362.07	91
362.296	96
362.523	74
362.749	96
362.976	84
363.203	95
363.429	97
363.656	105
363.882	97
364.109	87
364.335	83
364.562	85
364.788	106
365.015	86
365.241	84
365.468	106
365.694	88
365.92	87
366.147	85
366.373	95
366.599	77
366.826	87
367.052	96
367.278	95
367.505	90
367.731	75
367.957	83
368.184	68
368.41	94
368.636	85
368.862	99
369.089	99
369.315	96
369.541	93
369.767	85
369.993	92
370.219	83
370.445	91
370.672	84
370.898	96
371.124	93
371.35	89
371.576	83
371.802	96
372.028	87
372.254	90
372.48	96
372.706	86
372.932	71
373.158	90
373.384	104
373.61	108
373.835	95
374.061	91
374.287	102
374.513	80
374.739	87
374.965	87
375.191	86
375.416	102
375.642	84
375.868	95
376.094	76
376.319	92
376.545	96
376.771	106
376.997	104
377.222	100
377.448	107
377.674	91
377.899	86
378.125	89
378.35	94
378.576	96
378.802	92
379.027	96
379.253	91
379.478	77
379.704	97
379.929	94
380.155	104
380.38	100
380.606	96
380.831	98
381.057	94
381.282	79
381.507	108
381.733	99
381.958	104
382.184	95
382.409	85
382.634	98
382.86	96
383.085	89
383.31	98
383.535	97
383.761	101
383.986	111
384.211	103
384.436	109
384.662	107
384.887	91
385.112	113
385.337	102
385.562	84
385.787	98
386.013	93
386.238	89
386.463	103
386.688	85
386.913	97
387.138	91
387.363	95
387.588	95
387.813	91
388.038	93
388.263	84
388.488	98
388.713	99
388.938	98
389.163	105
389.387	98
389.612	97
389.837	85
390.062	67
390.287	109
390.512	101
390.736	95
390.961	97
391.186	96
391.411	100
391.636	95
391.86	90
392.085	103
392.31	109
392.534	94
392.759	97
392.984	105
393.208	107
393.433	93
393.658	95
393.882	89
394.107	94
394.331	93
394.556	68
394.78	92
395.005	98
395.229	99
395.454	97
395.678	93
395.903	99
396.127	117
396.352	97
396.576	95
396.801	95
397.025	105
397.249	100
397.474	96
397.698	99
397.922	99
398.147	86
398.371	99
398.595	106
398.82	91
399.044	88
399.268	98
399.492	99
399.717	116
399.941	115
400.165	112
400.389	94
400.613	103
400.837	81
401.062	101
401.286	104
401.51	92
401.734	92
401.958	100
402.182	116
402.406	96
402.63	96
402.854	105
403.078	76
403.302	90
403.526	87
403.75	91
403.974	103
404.198	103
404.422	96
404.645	104
404.869	100
405.093	90
405.317	92
405.541	95
405.765	98
405.988	96
406.212	117
406.436	85
406.66	102
406.883	97
407.107	99
407.331	99
407.555	103
407.778	101
408.002	102
408.226	106
408.449	94
408.673	95
408.896	107
409.12	106
409.344	79
409.567	98
409.791	101
410.014	93
410.238	105
410.461	99
410.685	94
410.908	100
411.132	115
411.355	116
411.578	95
411.802	103
412.025	88
412.249	108
412.472	87
412.695	99
412.919	103
413.142	99
413.365	94
413.589	101
413.812	95
414.035	104
414.258	104
414.482	95
414.705	106
414.928	97
415.151	96
415.374	112
415.597	113
415.821	91
416.044	111
416.267	105
416.49	96
416.713	93
416.936	91
417.159	88
417.382	81
417.605	96
417.828	101
418.051	87
418.274	99
418.497	84
418.72	93
418.943	98
419.166	92
419.389	115
419.611	83
419.834	93
420.057	102
420.28	92
420.503	102
420.726	97
420.948	96
421.171	100
421.394	96
421.617	103
421.839	94
422.062	91
422.285	101
422.507	90
422.73	86
422.953	86
423.175	94
423.398	99
423.621	84
423.843	81
424.066	101
424.288	92
424.511	110
424.733	99
424.956	87
425.178	103
425.401	102
425.623	96
425.846	92
426.068	95
426.291	96
426.513	90
426.735	102
426.958	96
427.18	100
427.402	92
427.625	92
427.847	100
428.069	115
428.292	95
428.514	101
428.736	99
428.958	90
429.181	105
429.403	82
429.625	101
429.847	77
430.069	95
430.292	98
430.514	85
430.736	92
430.958	93
431.18	83
431.402	99
431.624	85
431.846	94
432.068	111
432.29	102
432.512	98
432.734	83
432.956	108
433.178	99
433.4	90
433.622	105
433.844	80
434.066	96
434.287	84
434.509	91
434.731	97
434.953	98
435.175	117
435.397	107
435.618	95
435.84	97
436.062	93
436.284	92
436.505	84
436.727	104
436.949	91
437.17	91
437.392	96
437.614	97
437.835	83
438.057	82
438.278	87
438.5	88
438.721	79
438.943	90
439.165	93
439.386	98
439.608	97
439.829	100
440.05	91
440.272	99
440.493	93
440.715	83
440.936	101
441.158	91
441.379	82
441.6	111
441.822	119
442.043	100
442.264	105
442.486	90
442.707	92
442.928	91
443.149	95
443.371	95
443.592	97
443.813	96
444.034	92
444.255	89
444.476	89
444.698	111
444.919	104
445.14	217
445.361	167
445.582	97
445.803	81
446.024	101
446.245	111
446.466	95
446.687	95
446.908	99
447.129	96
447.35	103
447.571	88
447.792	82
448.013	93
448.234	92
448.455	91
448.675	92
448.896	98
449.117	103
449.338	94
449.559	90
449.779	96
450	92
450.221	86
450.442	97
450.662	93
450.883	97
451.104	93
451.324	94
451.545	89
451.766	98
451.986	89
452.207	97
452.428	89
452.648	92
452.869	84
453.089	92
453.31	92
453.53	81
453.751	112
453.971	85
454.192	106
454.412	82
454.633	101
454.853	86
455.073	99
455.294	82
455.514	83
455.734	89
455.955	91
456.175	93
456.395	87
456.616	79
456.836	85
457.056	91
457.276	93
457.497	95
457.717	81
457.937	91
458.157	104
458.377	83
458.598	95
458.818	100
459.038	93
459.258	103
459.478	105
459.698	78
459.918	91
460.138	109
460.358	91
460.578	91
460.798	105
461.018	101
461.238	102
461.458	96
461.678	101
461.898	95
462.118	103
462.338	98
462.558	106
462.777	91
462.997	100
463.217	99
463.437	130
463.657	114
463.876	97
464.096	106
464.316	96
464.536	108
464.755	94
464.975	104
465.195	108
465.414	108
465.634	92
465.854	115
466.073	89
466.293	83
466.512	88
466.732	120
466.951	106
467.171	95
467.391	97
467.61	101
467.829	90
468.049	98
468.268	93
468.488	93
468.707	99
468.927	89
469.146	91
469.365	102
469.585	111
469.804	117
470.023	94
470.243	93
470.462	90
470.681	92
470.901	97
471.12	101
471.339	116
471.558	97
471.777	97
471.997	105
472.216	102
472.435	84
472.654	100
472.873	93
473.092	98
473.311	92
473.53	86
473.749	100
473.968	86
474.187	98
474.406	100
474.625	86
474.844	100
475.063	113
475.282	106
475.501	96
475.72	90
475.939	100
476.158	109
476.377	98
476.596	88
476.814	96
477.033	97
477.252	107
477.471	99
477.69	101
477.908	101
478.127	98
478.346	91
478.564	106
478.783	108
479.002	116
479.22	92
479.439	106
479.658	108
479.876	97
480.095	97
480.313	116
480.532	108
480.751	102
480.969	113
481.188	105
481.406	107
481.624	102
481.843	104
482.061	118
482.28	103
482.498	87
482.717	98
482.935	105
483.153	98
483.372	99
483.59	113
483.808	117
484.027	94
484.245	96
484.463	100
484.681	106
484.9	104
485.118	105
485.336	92
485.554	92
485.772	108
485.99	115
486.209	89
486.427	116
486.645	108
486.863	103
487.081	88
487.299	102
487.517	106
487.735	99
487.953	116
488.171	111
488.389	104
488.607	116
488.825	111
489.043	111
489.261	100
489.479	117
489.696	115
489.914	109
490.132	106
490.35	95
490.568	111
490.786	107
491.003	119
491.221	115
491.439	115
491.657	116
491.874	117
492.092	119
492.31	134
492.527	116
492.745	119
492.963	93
493.18	117
493.398	107
493.615	111
493.833	114
494.05	121
494.268	103
494.485	103
494.703	97
494.92	106
495.138	97
495.355	103
495.573	124
495.79	101
496.008	120
496.225	121
496.442	106
496.66	119
496.877	100
497.094	121
497.312	104
497.529	119
497.746	105
497.963	112
498.181	121
498.398	122
498.615	127
498.832	122
499.049	107
499.267	117
499.484	131
499.701	128
499.918	132
500.135	157
500.352	157
500.569	160
500.786	162
501.003	159
501.22	128
501.437	126
501.654	141
501.871	125
502.088	130
502.305	119
502.522	113
502.739	115
502.956	116
503.172	109
503.389	117
503.606	111
503.823	102
504.04	121
504.256	125
504.473	113
504.69	112
504.907	105
505.123	123
505.34	112
505.557	112
505.773	100
505.99	100
506.207	109
506.423	114
506.64	113
506.856	105
507.073	94
507.289	100
507.506	94
507.722	114
507.939	112
508.155	97
508.372	111
508.588	101
508.805	111
509.021	110
509.238	112
509.454	97
509.67	98
509.887	99
510.103	94
510.319	112
510.536	93
510.752	85
510.968	99
511.184	108
511.401	94
511.617	91
511.833	91
512.049	119
512.265	92
512.481	110
512.698	95
512.914	93
513.13	103
513.346	103
513.562	91
513.778	96
513.994	102
514.21	106
514.426	101
514.642	107
514.858	98
515.074	95
515.29	108
515.506	95
515.721	108
515.937	89
516.153	107
516.369	105
516.585	93
516.801	108
517.016	103
517.232	106
517.448	119
517.664	118
517.879	108
518.095	110
518.311	103
518.527	112
518.742	123
518.958	112
519.173	106
519.389	108
519.605	104
519.82	114
520.036	98
520.251	101
520.467	113
520.682	97
520.898	97
521.113	95
521.329	108
521.544	91
521.76	117
521.975	104
522.19	92
522.406	111
522.621	97
522.836	109
523.052	108
523.267	114
523.482	103
523.698	107
523.913	108
524.128	101
524.343	106
524.559	103
524.774	102
524.989	91
525.204	103
525.419	99
525.634	120
525.849	99
526.064	103
526.28	105
526.495	106
526.71	103
526.925	100
527.14	100
527.355	96
527.57	101
527.785	102
527.999	103
528.214	111
528.429	111
528.644	107
528.859	93
529.074	92
529.289	114
529.503	106
529.718	103
529.933	109
530.148	104
530.363	110
530.577	111
530.792	97
531.007	113
531.221	99
531.436	84
531.651	91
531.865	111
532.08	98
532.295	96
532.509	105
532.724	94
532.938	96
533.153	108
533.367	102
533.582	102
533.796	106
534.011	97
534.225	115
534.44	114
534.654	96
534.868	100
535.083	115
535.297	112
535.511	100
535.726	120
535.94	97
536.154	116
536.369	108
536.583	99
536.797	105
537.011	101
537.225	106
537.44	93
537.654	104
537.868	92
538.082	89
538.296	87
538.51	105
538.724	121
538.938	108
539.153	97
539.367	116
539.581	106
539.795	101
540.009	102
540.222	97
540.436	93
540.65	100
540.864	99
541.078	93
541.292	116
541.506	111
541.72	105
541.934	103
542.147	106
542.361	100
542.575	109
542.789	99
543.002	94
543.216	103
543.43	117
543.644	99
543.857	105
544.071	109
544.285	102
544.498	98
544.712	105
544.925	95
545.139	102
545.352	121
545.566	124
545.779	104
545.993	96
546.206	96
546.42	115
546.633	95
546.847	121
547.06	106
547.274	108
547.487	113
547.7	105
547.914	95
548.127	103
548.34	110
548.554	106
548.767	111
548.98	99
549.193	102
549.407	104
549.62	107
549.833	105
550.046	98
550.259	93
550.473	104
550.686	105
550.899	99
551.112	95
551.325	95
551.538	109
551.751	102
551.964	99
552.177	104
552.39	95
552.603	116
552.816	112
553.029	102
553.242	95
553.455	97
553.667	115
553.88	97
554.093	103
554.306	103
554.519	101
554.732	96
554.944	94
555.157	104
555.37	101
555.583	95
555.795	101
556.008	105
556.221	103
556.433	103
556.646	93
556.859	92
557.071	105
557.284	92
557.496	108
557.709	96
557.921	94
558.134	84
558.346	96
558.559	88
558.771	103
558.984	103
559.196	97
559.409	100
559.621	90
559.833	101
560.046	99
560.258	92
560.47	88
560.683	102
560.895	98
561.107	98
561.32	96
561.532	97
561.744	92
561.956	108
562.168	96
562.381	103
562.593	98
562.805	90
563.017	101
563.229	95
563.441	88
563.653	96
563.865	103
564.077	95
564.289	87
564.501	88
564.713	104
564.925	111
565.137	101
565.349	96
565.561	110
565.773	87
565.985	100
566.197	101
566.408	104
566.62	117
566.832	118
567.044	104
567.255	120
567.467	111
567.679	98
567.891	106
568.102	107
568.314	107
568.526	99
568.737	96
568.949	103
569.161	88
569.372	86
569.584	107
569.795	96
570.007	100
570.218	92
570.43	89
570.641	112
570.853	98
571.064	103
571.276	98
571.487	101
571.698	88
571.91	97
572.121	96
572.333	106
572.544	111
572.755	111
572.966	81
573.178	101
573.389	96
573.6	80
573.811	89
574.023	97
574.234	76
574.445	87
574.656	82
574.867	88
575.078	89
575.289	110
575.501	95
575.712	95
575.923	84
576.134	90
576.345	94
576.556	91
576.767	90
576.978	87
577.188	102
577.399	95
577.61	91
577.821	90
578.032	89
578.243	101
578.454	96
578.665	103
578.875	90
579.086	80
579.297	83
579.508	91
579.718	103
579.929	101
580.14	110
580.35	85
580.561	99
580.772	93
580.982	81
581.193	80
581.403	88
581.614	89
581.825	95
582.035	88
582.246	99
582.456	101
582.667	96
582.877	73
583.087	102
583.298	100
583.508	92
583.719	85
583.929	91
584.139	93
584.35	84
584.56	99
584.77	103
584.981	97
585.191	102
585.401	92
585.611	93
585.821	90
586.032	90
586.242	86
586.452	88
586.662	97
586.872	98
587.082	84
587.292	92
587.502	103
587.713	82
587.923	88
588.133	83
588.343	77
588.553	87
588.762	101
588.972	102
589.182	94
589.392	104
589.602	96
589.812	88
590.022	83
590.232	93
590.441	94
590.651	82
590.861	96
591.071	98
591.281	85
591.49	88
591.7	85
591.91	88
592.119	100
592.329	85
592.539	97
592.748	94
592.958	109
593.167	88
593.377	92
593.587	104
593.796	113
594.006	97
594.215	92
594.424	100
594.634	96
594.843	84
595.053	91
595.262	99
595.472	83
595.681	96
595.89	89
596.1	94
596.309	103
596.518	89
596.727	90
596.937	82
597.146	70
597.355	100
597.564	85
597.774	96
597.983	87
598.192	80
598.401	82
598.61	88
598.819	80
599.028	101
599.237	92
599.446	95
599.655	86
599.864	108
600.073	87
600.282	89
600.491	99
600.7	84
600.909	95
601.118	97
601.327	91
601.536	90
601.745	95
601.953	90
602.162	96
602.371	89
602.58	89
602.789	102
602.997	97
603.206	99
603.415	93
603.623	84
603.832	87
604.041	91
604.249	82
604.458	84
604.666	85
604.875	85
605.084	92
605.292	94
605.501	100
605.709	80
605.918	82
606.126	102
606.334	84
606.543	78
606.751	85
606.96	85
607.168	97
607.376	101
607.585	101
607.793	94
608.001	90
608.21	86
608.418	96
608.626	85
608.834	89
609.043	90
609.251	91
609.459	92
609.667	111
609.875	88
610.083	87
610.291	85
610.499	99
610.707	89
610.916	90
611.124	91
611.332	75
611.54	97
611.748	97
611.955	91
612.163	92
612.371	92
612.579	104
612.787	93
612.995	100
613.203	96
613.411	91
613.618	90
613.826	81
614.034	96
614.242	103
614.449	88
614.657	95
614.865	89
615.072	87
615.28	95
615.488	87
615.695	87
615.903	103
616.111	95
616.318	88
616.526	84
616.733	91
616.941	79
617.148	98
617.356	100
617.563	85
617.771	89
617.978	91
618.185	95
618.393	83
618.6	81
618.807	104
619.015	74
619.222	82
619.429	102
619.637	99
619.844	103
620.051	88
620.258	86
620.466	80
620.673	95
620.88	93
621.087	76
621.294	85
621.501	100
621.708	101
621.915	88
622.122	82
622.329	102
622.536	82
622.743	91
622.95	99
623.157	96
623.364	94
623.571	96
623.778	92
623.985	97
624.192	85
624.399	103
624.606	87
624.812	91
625.019	92
625.226	76
625.433	91
625.639	94
625.846	95
626.053	92
626.259	83
626.466	101
626.673	95
626.879	94
627.086	85
627.293	89
627.499	93
627.706	85
627.912	84
628.119	93
628.325	84
628.532	103
628.738	98
628.945	84
629.151	99
629.357	89
629.564	87
629.77	94
629.976	77
630.183	87
630.389	87
630.595	97
630.802	92
631.008	83
631.214	79
631.42	97
631.627	93
631.833	92
632.039	90
632.245	94
632.451	97
632.657	84
632.863	93
633.069	82
633.275	83
633.481	76
633.688	76
633.893	86
634.099	90
634.305	97
634.511	87
634.717	98
634.923	83
635.129	92
635.335	80
635.541	82
635.747	71
635.952	79
636.158	83
636.364	84
636.57	87
636.775	77
636.981	95
637.187	82
637.392	99
637.598	87
637.804	87
638.009	92
638.215	94
638.421	94
638.626	85
638.832	80
639.037	80
639.243	96
639.448	75
639.654	99
639.859	100
640.065	77
640.27	98
640.475	83
640.681	84
640.886	91
641.091	83
641.297	86
641.502	93
641.707	77
641.913	81
642.118	90
642.323	88
642.528	97
642.733	95
642.939	90
643.144	80
643.349	87
643.554	90
643.759	81
643.964	86
644.169	89
644.374	77
644.579	85
644.784	88
644.989	91
645.194	86
645.399	91
645.604	96
645.809	85
646.014	87
646.219	96
646.423	82
646.628	105
646.833	78
647.038	92
647.243	85
647.447	97
647.652	82
647.857	86
648.062	94
648.266	90
648.471	85
648.676	95
648.88	82
649.085	93
649.289	92
649.494	82
649.698	89
649.903	79
650.107	79
650.312	95
650.516	85
650.721	87
650.925	92
651.13	85
651.334	82
651.539	93
651.743	88
651.947	90
652.152	89
652.356	99
652.56	83
652.764	94
652.969	87
653.173	82
653.377	82
653.581	90
653.785	93
653.99	80
654.194	91
654.398	96
654.602	89
654.806	80
655.01	92
655.214	74
655.418	85
655.622	73
655.826	82
656.03	73
656.234	83
656.438	73
656.642	84
656.846	84
657.049	81
657.253	87
657.457	75
657.661	71
657.865	86
658.068	84
658.272	81
658.476	80
658.68	100
658.883	96
659.087	88
659.291	102
659.494	85
659.698	93
659.901	84
660.105	85
660.309	89
660.512	93
660.716	84
660.919	97
661.123	97
661.326	90
661.53	84
661.733	91
661.936	85
662.14	81
662.343	77
662.546	88
662.75	83
662.953	86
663.156	85
663.36	103
663.563	76
663.766	90
663.969	75
664.173	84
664.376	89
664.579	95
664.782	78
664.985	91
665.188	82
665.391	82
665.594	103
665.797	91
666	79
666.203	87
666.406	76
666.609	79
666.812	88
667.015	92
667.218	89
667.421	80
667.624	79
667.827	99
668.03	85
668.232	89
668.435	96
668.638	82
668.841	74
669.043	89
669.246	72
669.449	80
669.651	97
669.854	76
670.057	84
670.259	79
670.462	89
670.665	90
670.867	87
671.07	89
671.272	79
671.475	83
671.677	69
671.88	90
672.082	91
672.284	82
672.487	92
672.689	72
672.892	83
