Data from Location5.07152019.Energy5.Lamp.07192019.3%Agarose_HRD10591_15-38-16-387.txt Node
Date: Fri Jul 19 15:38:16 EDT 2019
User: cochatt
Spectrometer: HR+D1059
Trigger mode: 1
Integration Time (sec): 1.000000E-1
Scans to average: 1
Electric dark correction enabled: true
Nonlinearity correction enabled: false
Boxcar width: 0
XAxis mode: Wavelengths
Number of Pixels in Spectrum: 2048
>>>>>Begin Spectral Data<<<<<
223.165	-15
223.4	-15
223.635	-15
223.869	-9
224.104	-19
224.338	-26
224.573	0
224.808	-26
225.042	-7
225.277	2
225.511	-10
225.746	-5
225.98	3
226.215	15
226.449	33
226.683	15
226.918	17
227.152	32
227.387	29
227.621	40
227.856	41
228.09	42
228.324	48
228.559	59
228.793	64
229.027	65
229.262	68
229.496	65
229.73	65
229.964	53
230.199	58
230.433	67
230.667	77
230.901	75
231.136	84
231.37	74
231.604	63
231.838	83
232.072	86
232.306	68
232.541	75
232.775	54
233.009	77
233.243	69
233.477	82
233.711	78
233.945	78
234.179	71
234.413	80
234.647	75
234.881	87
235.115	70
235.349	75
235.583	74
235.817	75
236.051	75
236.285	65
236.519	79
236.753	63
236.987	77
237.221	60
237.455	66
237.689	71
237.922	62
238.156	66
238.39	70
238.624	83
238.858	74
239.091	80
239.325	69
239.559	76
239.793	75
240.027	63
240.26	74
240.494	82
240.728	79
240.961	69
241.195	76
241.429	71
241.662	73
241.896	76
242.13	82
242.363	70
242.597	75
242.83	88
243.064	81
243.298	84
243.531	75
243.765	87
243.998	84
244.232	67
244.465	64
244.699	81
244.932	82
245.166	71
245.399	79
245.633	75
245.866	81
246.099	72
246.333	71
246.566	63
246.8	75
247.033	72
247.266	74
247.5	78
247.733	63
247.966	78
248.2	86
248.433	81
248.666	77
248.899	75
249.133	73
249.366	82
249.599	84
249.832	71
250.066	84
250.299	70
250.532	70
250.765	85
250.998	59
251.231	83
251.465	80
251.698	67
251.931	88
252.164	85
252.397	81
252.63	81
252.863	75
253.096	78
253.329	80
253.562	65
253.795	68
254.028	77
254.261	70
254.494	81
254.727	95
254.96	93
255.193	90
255.426	78
255.659	84
255.892	76
256.124	76
256.357	86
256.59	98
256.823	72
257.056	70
257.289	74
257.521	77
257.754	63
257.987	85
258.22	74
258.452	64
258.685	70
258.918	74
259.151	77
259.383	86
259.616	76
259.849	50
260.081	80
260.314	83
260.547	73
260.779	73
261.012	64
261.244	63
261.477	90
261.71	71
261.942	67
262.175	80
262.407	79
262.64	86
262.872	87
263.105	78
263.337	56
263.57	73
263.802	85
264.035	78
264.267	63
264.499	76
264.732	78
264.964	86
265.197	80
265.429	78
265.661	80
265.894	73
266.126	85
266.358	77
266.591	86
266.823	78
267.055	72
267.287	66
267.52	81
267.752	71
267.984	80
268.216	78
268.448	78
268.681	73
268.913	81
269.145	76
269.377	76
269.609	72
269.841	81
270.073	88
270.306	80
270.538	77
270.77	79
271.002	77
271.234	71
271.466	80
271.698	68
271.93	62
272.162	64
272.394	77
272.626	82
272.858	78
273.09	86
273.322	73
273.553	72
273.785	82
274.017	74
274.249	80
274.481	69
274.713	74
274.945	79
275.176	89
275.408	99
275.64	84
275.872	83
276.104	70
276.335	92
276.567	70
276.799	76
277.031	83
277.262	78
277.494	86
277.726	94
277.957	86
278.189	84
278.421	79
278.652	73
278.884	86
279.115	79
279.347	78
279.579	72
279.81	74
280.042	79
280.273	87
280.505	69
280.736	77
280.968	79
281.199	70
281.431	68
281.662	87
281.894	79
282.125	69
282.356	74
282.588	92
282.819	82
283.051	72
283.282	88
283.513	84
283.745	92
283.976	72
284.207	83
284.439	66
284.67	75
284.901	68
285.132	87
285.364	76
285.595	86
285.826	74
286.057	84
286.288	86
286.52	68
286.751	78
286.982	76
287.213	87
287.444	80
287.675	76
287.906	82
288.138	74
288.369	93
288.6	84
288.831	79
289.062	91
289.293	85
289.524	79
289.755	91
289.986	83
290.217	82
290.448	63
290.679	82
290.91	90
291.141	79
291.371	85
291.602	86
291.833	82
292.064	75
292.295	98
292.526	73
292.757	88
292.987	72
293.218	75
293.449	66
293.68	72
293.91	77
294.141	84
294.372	76
294.603	85
294.833	84
295.064	80
295.295	87
295.525	86
295.756	74
295.987	80
296.217	84
296.448	92
296.679	88
296.909	81
297.14	76
297.37	89
297.601	91
297.831	79
298.062	75
298.292	67
298.523	84
298.753	88
298.984	80
299.214	86
299.445	62
299.675	80
299.905	75
300.136	88
300.366	85
300.597	80
300.827	66
301.057	82
301.288	75
301.518	80
301.748	78
301.979	80
302.209	81
302.439	105
302.669	92
302.9	93
303.13	79
303.36	75
303.59	73
303.82	70
304.051	68
304.281	65
304.511	82
304.741	77
304.971	67
305.201	74
305.431	70
305.661	76
305.891	73
306.121	76
306.352	88
306.582	85
306.812	76
307.042	78
307.272	78
307.502	94
307.731	82
307.961	71
308.191	75
308.421	79
308.651	97
308.881	86
309.111	79
309.341	87
309.571	84
309.8	76
310.03	64
310.26	77
310.49	86
310.72	78
310.949	60
311.179	83
311.409	84
311.639	71
311.868	86
312.098	75
312.328	77
312.557	81
312.787	79
313.017	85
313.246	93
313.476	74
313.706	86
313.935	77
314.165	75
314.394	78
314.624	73
314.853	81
315.083	88
315.312	79
315.542	64
315.771	95
316.001	82
316.23	78
316.46	83
316.689	69
316.919	80
317.148	91
317.377	74
317.607	83
317.836	70
318.065	80
318.295	87
318.524	77
318.753	88
318.983	90
319.212	74
319.441	72
319.67	90
319.9	89
320.129	91
320.358	80
320.587	86
320.816	85
321.046	79
321.275	66
321.504	73
321.733	80
321.962	72
322.191	81
322.42	87
322.649	82
322.878	75
323.108	81
323.337	76
323.566	84
323.795	83
324.024	86
324.253	79
324.482	91
324.71	83
324.939	82
325.168	79
325.397	80
325.626	91
325.855	76
326.084	90
326.313	86
326.542	66
326.77	90
326.999	86
327.228	76
327.457	86
327.686	82
327.914	66
328.143	96
328.372	86
328.6	69
328.829	85
329.058	82
329.287	74
329.515	90
329.744	91
329.972	79
330.201	81
330.43	78
330.658	63
330.887	82
331.115	70
331.344	82
331.572	72
331.801	80
332.03	75
332.258	86
332.486	79
332.715	92
332.943	94
333.172	71
333.4	83
333.629	80
333.857	84
334.085	68
334.314	83
334.542	99
334.771	83
334.999	78
335.227	79
335.455	79
335.684	77
335.912	82
336.14	87
336.369	83
336.597	91
336.825	80
337.053	79
337.281	82
337.51	90
337.738	80
337.966	72
338.194	75
338.422	77
338.65	77
338.878	94
339.106	80
339.334	83
339.562	78
339.79	83
340.018	78
340.246	72
340.474	89
340.702	93
340.93	90
341.158	74
341.386	99
341.614	90
341.842	72
342.07	72
342.298	73
342.526	69
342.754	90
342.981	87
343.209	98
343.437	85
343.665	94
343.893	94
344.12	82
344.348	86
344.576	76
344.804	81
345.031	77
345.259	84
345.487	75
345.714	79
345.942	70
346.17	79
346.397	84
346.625	82
346.853	72
347.08	67
347.308	80
347.535	84
347.763	78
347.99	82
348.218	89
348.445	70
348.673	85
348.9	75
349.128	83
349.355	84
349.583	77
349.81	72
350.037	80
350.265	80
350.492	86
350.72	76
350.947	86
351.174	80
351.402	69
351.629	76
351.856	73
352.083	87
352.311	74
352.538	84
352.765	90
352.992	95
353.22	82
353.447	90
353.674	90
353.901	68
354.128	92
354.355	83
354.583	92
354.81	80
355.037	92
355.264	90
355.491	80
355.718	88
355.945	77
356.172	75
356.399	79
356.626	75
356.853	79
357.08	82
357.307	84
357.534	87
357.761	78
357.988	74
358.215	75
358.441	71
358.668	84
358.895	90
359.122	71
359.349	77
359.576	94
359.802	80
360.029	81
360.256	84
360.483	73
360.709	75
360.936	90
361.163	72
361.39	82
361.616	78
361.843	79
362.07	72
362.296	73
362.523	69
362.749	72
362.976	93
363.203	89
363.429	77
363.656	82
363.882	82
364.109	75
364.335	75
364.562	90
364.788	87
365.015	70
365.241	64
365.468	76
365.694	78
365.92	82
366.147	80
366.373	77
366.599	72
366.826	74
367.052	75
367.278	72
367.505	75
367.731	72
367.957	65
368.184	82
368.41	75
368.636	74
368.862	81
369.089	94
369.315	77
369.541	71
369.767	82
369.993	77
370.219	81
370.445	80
370.672	81
370.898	77
371.124	72
371.35	88
371.576	71
371.802	72
372.028	83
372.254	77
372.48	67
372.706	91
372.932	85
373.158	90
373.384	85
373.61	85
373.835	67
374.061	90
374.287	77
374.513	80
374.739	92
374.965	82
375.191	79
375.416	67
375.642	87
375.868	86
376.094	78
376.319	80
376.545	78
376.771	79
376.997	93
377.222	86
377.448	74
377.674	87
377.899	78
378.125	88
378.35	71
378.576	73
378.802	81
379.027	86
379.253	67
379.478	70
379.704	80
379.929	84
380.155	94
380.38	79
380.606	74
380.831	89
381.057	75
381.282	75
381.507	71
381.733	84
381.958	87
382.184	91
382.409	82
382.634	90
382.86	87
383.085	87
383.31	78
383.535	87
383.761	85
383.986	77
384.211	85
384.436	68
384.662	76
384.887	73
385.112	84
385.337	70
385.562	70
385.787	76
386.013	92
386.238	82
386.463	84
386.688	69
386.913	87
387.138	75
387.363	67
387.588	76
387.813	78
388.038	83
388.263	73
388.488	74
388.713	66
388.938	73
389.163	78
389.387	78
389.612	82
389.837	77
390.062	76
390.287	82
390.512	71
390.736	84
390.961	70
391.186	84
391.411	86
391.636	83
391.86	76
392.085	85
392.31	94
392.534	79
392.759	89
392.984	84
393.208	83
393.433	75
393.658	85
393.882	80
394.107	84
394.331	83
394.556	89
394.78	75
395.005	83
395.229	73
395.454	83
395.678	87
395.903	91
396.127	82
396.352	84
396.576	80
396.801	89
397.025	94
397.249	94
397.474	92
397.698	98
397.922	92
398.147	82
398.371	86
398.595	64
398.82	79
399.044	96
399.268	75
399.492	76
399.717	80
399.941	90
400.165	81
400.389	84
400.613	94
400.837	82
401.062	75
401.286	84
401.51	97
401.734	91
401.958	86
402.182	88
402.406	78
402.63	71
402.854	89
403.078	93
403.302	78
403.526	92
403.75	74
403.974	81
404.198	89
404.422	102
404.645	96
404.869	80
405.093	68
405.317	78
405.541	86
405.765	89
405.988	88
406.212	96
406.436	76
406.66	84
406.883	78
407.107	74
407.331	67
407.555	91
407.778	83
408.002	100
408.226	90
408.449	95
408.673	83
408.896	85
409.12	90
409.344	76
409.567	76
409.791	80
410.014	79
410.238	69
410.461	79
410.685	85
410.908	79
411.132	69
411.355	79
411.578	88
411.802	80
412.025	80
412.249	84
412.472	94
412.695	104
412.919	94
413.142	79
413.365	80
413.589	84
413.812	89
414.035	96
414.258	87
414.482	84
414.705	78
414.928	85
415.151	91
415.374	90
415.597	86
415.821	91
416.044	83
416.267	90
416.49	75
416.713	87
416.936	112
417.159	89
417.382	91
417.605	83
417.828	81
418.051	90
418.274	90
418.497	93
418.72	99
418.943	90
419.166	92
419.389	91
419.611	79
419.834	81
420.057	79
420.28	94
420.503	94
420.726	85
420.948	92
421.171	95
421.394	96
421.617	91
421.839	100
422.062	97
422.285	79
422.507	88
422.73	95
422.953	91
423.175	94
423.398	90
423.621	87
423.843	95
424.066	88
424.288	90
424.511	94
424.733	96
424.956	80
425.178	96
425.401	85
425.623	81
425.846	76
426.068	89
426.291	102
426.513	101
426.735	81
426.958	79
427.18	94
427.402	83
427.625	89
427.847	84
428.069	94
428.292	85
428.514	95
428.736	94
428.958	98
429.181	81
429.403	89
429.625	95
429.847	90
430.069	84
430.292	75
430.514	88
430.736	87
430.958	88
431.18	91
431.402	89
431.624	86
431.846	83
432.068	80
432.29	86
432.512	76
432.734	83
432.956	94
433.178	82
433.4	102
433.622	103
433.844	89
434.066	86
434.287	80
434.509	74
434.731	66
434.953	95
435.175	83
435.397	92
435.618	105
435.84	96
436.062	92
436.284	78
436.505	91
436.727	94
436.949	90
437.17	79
437.392	76
437.614	87
437.835	78
438.057	86
438.278	85
438.5	84
438.721	93
438.943	86
439.165	100
439.386	101
439.608	102
439.829	91
440.05	89
440.272	94
440.493	90
440.715	95
440.936	82
441.158	84
441.379	84
441.6	89
441.822	98
442.043	103
442.264	90
442.486	91
442.707	93
442.928	99
443.149	100
443.371	86
443.592	94
443.813	86
444.034	94
444.255	98
444.476	90
444.698	95
444.919	99
445.14	224
445.361	139
445.582	90
445.803	94
446.024	87
446.245	96
446.466	96
446.687	88
446.908	93
447.129	90
447.35	104
447.571	89
447.792	98
448.013	96
448.234	89
448.455	77
448.675	75
448.896	94
449.117	100
449.338	96
449.559	81
449.779	83
450	91
450.221	92
450.442	96
450.662	87
450.883	92
451.104	93
451.324	83
451.545	81
451.766	95
451.986	83
452.207	74
452.428	84
452.648	94
452.869	85
453.089	82
453.31	88
453.53	83
453.751	93
453.971	85
454.192	75
454.412	88
454.633	99
454.853	87
455.073	91
455.294	73
455.514	84
455.734	98
455.955	80
456.175	77
456.395	90
456.616	87
456.836	86
457.056	86
457.276	82
457.497	86
457.717	85
457.937	91
458.157	77
458.377	79
458.598	80
458.818	75
459.038	75
459.258	75
459.478	78
459.698	78
459.918	81
460.138	96
460.358	90
460.578	81
460.798	88
461.018	83
461.238	90
461.458	72
461.678	80
461.898	78
462.118	80
462.338	89
462.558	87
462.777	82
462.997	91
463.217	91
463.437	88
463.657	97
463.876	94
464.096	81
464.316	84
464.536	79
464.755	96
464.975	105
465.195	100
465.414	92
465.634	102
465.854	88
466.073	90
466.293	93
466.512	92
466.732	91
466.951	98
467.171	94
467.391	99
467.61	97
467.829	78
468.049	88
468.268	91
468.488	98
468.707	110
468.927	87
469.146	101
469.365	90
469.585	102
469.804	96
470.023	92
470.243	98
470.462	89
470.681	87
470.901	93
471.12	94
471.339	70
471.558	99
471.777	97
471.997	97
472.216	100
472.435	84
472.654	62
472.873	80
473.092	84
473.311	100
473.53	82
473.749	100
473.968	97
474.187	91
474.406	88
474.625	88
474.844	82
475.063	93
475.282	85
475.501	89
475.72	80
475.939	95
476.158	86
476.377	82
476.596	93
476.814	95
477.033	93
477.252	79
477.471	96
477.69	93
477.908	79
478.127	96
478.346	102
478.564	79
478.783	85
479.002	86
479.22	90
479.439	84
479.658	78
479.876	88
480.095	84
480.313	95
480.532	86
480.751	94
480.969	80
481.188	78
481.406	86
481.624	72
481.843	67
482.061	81
482.28	78
482.498	86
482.717	95
482.935	93
483.153	87
483.372	74
483.59	81
483.808	87
484.027	95
484.245	103
484.463	97
484.681	107
484.9	98
485.118	102
485.336	74
485.554	86
485.772	70
485.99	70
486.209	82
486.427	100
486.645	75
486.863	100
487.081	103
487.299	89
487.517	101
487.735	101
487.953	108
488.171	105
488.389	114
488.607	95
488.825	96
489.043	89
489.261	99
489.479	87
489.696	87
489.914	92
490.132	86
490.35	96
490.568	97
490.786	100
491.003	104
491.221	117
491.439	106
491.657	109
491.874	119
492.092	123
492.31	104
492.527	119
492.745	122
492.963	107
493.18	93
493.398	112
493.615	114
493.833	108
494.05	96
494.268	111
494.485	118
494.703	111
494.92	92
495.138	101
495.355	117
495.573	112
495.79	94
496.008	103
496.225	108
496.442	96
496.66	101
496.877	88
497.094	91
497.312	101
497.529	97
497.746	103
497.963	103
498.181	87
498.398	114
498.615	97
498.832	81
499.049	80
499.267	94
499.484	88
499.701	90
499.918	96
500.135	104
500.352	108
500.569	98
500.786	112
501.003	91
501.22	103
501.437	90
501.654	110
501.871	85
502.088	95
502.305	87
502.522	85
502.739	94
502.956	97
503.172	95
503.389	91
503.606	87
503.823	101
504.04	84
504.256	95
504.473	94
504.69	83
504.907	90
505.123	85
505.34	82
505.557	81
505.773	75
505.99	90
506.207	103
506.423	96
506.64	98
506.856	91
507.073	95
507.289	80
507.506	89
507.722	94
507.939	96
508.155	97
508.372	99
508.588	91
508.805	102
509.021	87
509.238	85
509.454	91
509.67	76
509.887	80
510.103	79
510.319	80
510.536	77
510.752	83
510.968	78
511.184	76
511.401	78
511.617	80
511.833	81
512.049	78
512.265	70
512.481	82
512.698	75
512.914	78
513.13	85
513.346	83
513.562	89
513.778	87
513.994	90
514.21	79
514.426	79
514.642	85
514.858	84
515.074	70
515.29	84
515.506	73
515.721	71
515.937	82
516.153	85
516.369	87
516.585	66
516.801	87
517.016	89
517.232	74
517.448	94
517.664	62
517.879	86
518.095	77
518.311	90
518.527	79
518.742	83
518.958	87
519.173	75
519.389	82
519.605	75
519.82	71
520.036	105
520.251	91
520.467	91
520.682	76
520.898	89
521.113	76
521.329	86
521.544	75
521.76	94
521.975	84
522.19	94
522.406	72
522.621	76
522.836	83
523.052	72
523.267	96
523.482	75
523.698	88
523.913	94
524.128	86
524.343	93
524.559	93
524.774	92
524.989	94
525.204	93
525.419	109
525.634	83
525.849	76
526.064	91
526.28	77
526.495	86
526.71	81
526.925	85
527.14	64
527.355	71
527.57	82
527.785	68
527.999	78
528.214	69
528.429	84
528.644	85
528.859	94
529.074	119
529.289	116
529.503	98
529.718	88
529.933	88
530.148	89
530.363	67
530.577	91
530.792	85
531.007	80
531.221	84
531.436	72
531.651	78
531.865	85
532.08	87
532.295	88
532.509	89
532.724	65
532.938	86
533.153	76
533.367	86
533.582	81
533.796	93
534.011	87
534.225	77
534.44	80
534.654	88
534.868	84
535.083	76
535.297	75
535.511	77
535.726	77
535.94	86
536.154	89
536.369	84
536.583	90
536.797	58
537.011	82
537.225	72
537.44	87
537.654	94
537.868	77
538.082	93
538.296	80
538.51	92
538.724	87
538.938	95
539.153	93
539.367	89
539.581	100
539.795	79
540.009	100
540.222	85
540.436	101
540.65	78
540.864	82
541.078	86
541.292	91
541.506	110
541.72	114
541.934	123
542.147	122
542.361	120
542.575	100
542.789	95
543.002	97
543.216	103
543.43	96
543.644	95
543.857	111
544.071	101
544.285	95
544.498	107
544.712	99
544.925	98
545.139	105
545.352	93
545.566	102
545.779	88
545.993	95
546.206	102
546.42	109
546.633	119
546.847	104
547.06	103
547.274	88
547.487	107
547.7	111
547.914	99
548.127	106
548.34	102
548.554	97
548.767	113
548.98	101
549.193	98
549.407	111
549.62	101
549.833	107
550.046	100
550.259	100
550.473	102
550.686	103
550.899	102
551.112	101
551.325	109
551.538	86
551.751	91
551.964	95
552.177	91
552.39	104
552.603	110
552.816	93
553.029	98
553.242	104
553.455	67
553.667	92
553.88	106
554.093	90
554.306	105
554.519	98
554.732	92
554.944	100
555.157	89
555.37	110
555.583	106
555.795	99
556.008	86
556.221	91
556.433	101
556.646	89
556.859	92
557.071	95
557.284	98
557.496	106
557.709	91
557.921	98
558.134	102
558.346	88
558.559	107
558.771	89
558.984	90
559.196	94
559.409	88
559.621	101
559.833	101
560.046	99
560.258	91
560.47	90
560.683	95
560.895	96
561.107	95
561.32	101
561.532	91
561.744	98
561.956	101
562.168	91
562.381	109
562.593	85
562.805	93
563.017	108
563.229	100
563.441	93
563.653	87
563.865	97
564.077	86
564.289	96
564.501	91
564.713	86
564.925	98
565.137	95
565.349	93
565.561	90
565.773	104
565.985	82
566.197	87
566.408	102
566.62	97
566.832	91
567.044	82
567.255	87
567.467	99
567.679	106
567.891	88
568.102	95
568.314	82
568.526	78
568.737	84
568.949	73
569.161	75
569.372	79
569.584	82
569.795	84
570.007	77
570.218	80
570.43	79
570.641	69
570.853	85
571.064	81
571.276	83
571.487	93
571.698	83
571.91	95
572.121	97
572.333	95
572.544	80
572.755	82
572.966	82
573.178	86
573.389	82
573.6	90
573.811	80
574.023	86
574.234	91
574.445	86
574.656	82
574.867	72
575.078	74
575.289	90
575.501	94
575.712	85
575.923	95
576.134	88
576.345	84
576.556	94
576.767	77
576.978	83
577.188	84
577.399	93
577.61	90
577.821	77
578.032	82
578.243	78
578.454	80
578.665	72
578.875	74
579.086	77
579.297	76
579.508	78
579.718	72
579.929	78
580.14	70
580.35	77
580.561	72
580.772	87
580.982	99
581.193	76
581.403	80
581.614	86
581.825	88
582.035	82
582.246	78
582.456	81
582.667	80
582.877	96
583.087	92
583.298	89
583.508	91
583.719	84
583.929	86
584.139	80
584.35	84
584.56	70
584.77	73
584.981	78
585.191	77
585.401	78
585.611	78
585.821	82
586.032	85
586.242	81
586.452	87
586.662	72
586.872	98
587.082	86
587.292	83
587.502	72
587.713	78
587.923	85
588.133	88
588.343	79
588.553	68
588.762	76
588.972	84
589.182	83
589.392	87
589.602	84
589.812	92
590.022	83
590.232	70
590.441	90
590.651	87
590.861	96
591.071	74
591.281	73
591.49	71
591.7	82
591.91	83
592.119	86
592.329	76
592.539	93
592.748	77
592.958	67
593.167	82
593.377	62
593.587	90
593.796	83
594.006	86
594.215	82
594.424	75
594.634	77
594.843	83
595.053	78
595.262	78
595.472	85
595.681	86
595.89	82
596.1	70
596.309	94
596.518	90
596.727	87
596.937	82
597.146	74
597.355	88
597.564	80
597.774	89
597.983	82
598.192	77
598.401	77
598.61	86
598.819	90
599.028	84
599.237	70
599.446	76
599.655	83
599.864	77
600.073	92
600.282	80
600.491	66
600.7	68
600.909	83
601.118	90
601.327	80
601.536	97
601.745	86
601.953	83
602.162	94
602.371	91
602.58	82
602.789	101
602.997	91
603.206	90
603.415	97
603.623	87
603.832	94
604.041	93
604.249	83
604.458	85
604.666	86
604.875	91
605.084	92
605.292	86
605.501	70
605.709	85
605.918	84
606.126	77
606.334	91
606.543	80
606.751	93
606.96	94
607.168	80
607.376	88
607.585	91
607.793	88
608.001	84
608.21	92
608.418	90
608.626	79
608.834	79
609.043	87
609.251	79
609.459	91
609.667	90
609.875	88
610.083	94
610.291	101
610.499	92
610.707	87
610.916	85
611.124	91
611.332	85
611.54	95
611.748	86
611.955	85
612.163	88
612.371	91
612.579	99
612.787	80
612.995	85
613.203	93
613.411	98
613.618	84
613.826	83
614.034	96
614.242	87
614.449	84
614.657	88
614.865	90
615.072	78
615.28	89
615.488	78
615.695	87
615.903	73
616.111	98
616.318	99
616.526	80
616.733	93
616.941	85
617.148	93
617.356	74
617.563	88
617.771	90
617.978	93
618.185	85
618.393	106
618.6	89
618.807	81
619.015	90
619.222	93
619.429	92
619.637	87
619.844	70
620.051	84
620.258	83
620.466	86
620.673	89
620.88	91
621.087	77
621.294	86
621.501	101
621.708	77
621.915	91
622.122	91
622.329	97
622.536	90
622.743	90
622.95	103
623.157	87
623.364	84
623.571	88
623.778	82
623.985	79
624.192	87
624.399	77
624.606	94
624.812	92
625.019	94
625.226	83
625.433	93
625.639	78
625.846	83
626.053	94
626.259	70
626.466	75
626.673	79
626.879	79
627.086	75
627.293	92
627.499	77
627.706	89
627.912	86
628.119	87
628.325	83
628.532	91
628.738	98
628.945	87
629.151	78
629.357	87
629.564	89
629.77	79
629.976	76
630.183	77
630.389	86
630.595	85
630.802	96
631.008	94
631.214	80
631.42	84
631.627	100
631.833	86
632.039	86
632.245	87
632.451	75
632.657	88
632.863	89
633.069	94
633.275	89
633.481	81
633.688	82
633.893	90
634.099	71
634.305	83
634.511	79
634.717	76
634.923	74
635.129	77
635.335	95
635.541	79
635.747	87
635.952	96
636.158	79
636.364	78
636.57	82
636.775	82
636.981	72
637.187	93
637.392	94
637.598	95
637.804	82
638.009	91
638.215	87
638.421	86
638.626	89
638.832	80
639.037	91
639.243	83
639.448	90
639.654	95
639.859	94
640.065	82
640.27	80
640.475	83
640.681	82
640.886	77
641.091	77
641.297	97
641.502	70
641.707	84
641.913	96
642.118	78
642.323	79
642.528	79
642.733	75
642.939	85
643.144	73
643.349	86
643.554	83
643.759	83
643.964	83
644.169	84
644.374	97
644.579	83
644.784	85
644.989	79
645.194	76
645.399	82
645.604	74
645.809	89
646.014	88
646.219	85
646.423	77
646.628	83
646.833	68
647.038	106
647.243	81
647.447	93
647.652	91
647.857	83
648.062	80
648.266	66
648.471	75
648.676	71
648.88	78
649.085	92
649.289	75
649.494	80
649.698	88
649.903	86
650.107	74
650.312	85
650.516	74
650.721	63
650.925	78
651.13	92
651.334	85
651.539	93
651.743	78
651.947	75
652.152	90
652.356	80
652.56	77
652.764	80
652.969	82
653.173	84
653.377	91
653.581	86
653.785	78
653.99	72
654.194	80
654.398	94
654.602	84
654.806	85
655.01	91
655.214	76
655.418	80
655.622	87
655.826	76
656.03	86
656.234	95
656.438	75
656.642	79
656.846	85
657.049	79
657.253	73
657.457	83
657.661	81
657.865	84
658.068	86
658.272	69
658.476	97
658.68	85
658.883	82
659.087	80
659.291	74
659.494	72
659.698	92
659.901	93
660.105	72
660.309	76
660.512	74
660.716	70
660.919	104
661.123	91
661.326	83
661.53	87
661.733	84
661.936	80
662.14	78
662.343	70
662.546	81
662.75	82
662.953	87
663.156	88
663.36	84
663.563	84
663.766	88
663.969	79
664.173	81
664.376	73
664.579	66
664.782	83
664.985	78
665.188	77
665.391	67
665.594	81
665.797	74
666	66
666.203	78
666.406	78
666.609	86
666.812	82
667.015	67
667.218	87
667.421	82
667.624	70
667.827	76
668.03	65
668.232	64
668.435	77
668.638	67
668.841	88
669.043	72
669.246	88
669.449	79
669.651	84
669.854	76
670.057	83
670.259	88
670.462	87
670.665	77
670.867	76
671.07	86
671.272	75
671.475	84
671.677	65
671.88	77
672.082	79
672.284	81
672.487	77
672.689	95
672.892	80
