Data from Location5.07152019.Energy5.Lamp.07192019.3%Agarose_HRD10591_15-37-48-387.txt Node
Date: Fri Jul 19 15:37:48 EDT 2019
User: cochatt
Spectrometer: HR+D1059
Trigger mode: 1
Integration Time (sec): 1.000000E-1
Scans to average: 1
Electric dark correction enabled: true
Nonlinearity correction enabled: false
Boxcar width: 0
XAxis mode: Wavelengths
Number of Pixels in Spectrum: 2048
>>>>>Begin Spectral Data<<<<<
223.165	-7
223.4	-7
223.635	-7
223.869	6
224.104	-13
224.338	-3
224.573	-11
224.808	-31
225.042	0
225.277	-11
225.511	-12
225.746	-1
225.98	5
226.215	13
226.449	3
226.683	26
226.918	16
227.152	20
227.387	25
227.621	32
227.856	54
228.09	47
228.324	54
228.559	48
228.793	58
229.027	52
229.262	65
229.496	65
229.73	63
229.964	74
230.199	54
230.433	74
230.667	74
230.901	87
231.136	78
231.37	87
231.604	81
231.838	70
232.072	79
232.306	80
232.541	83
232.775	77
233.009	86
233.243	80
233.477	83
233.711	75
233.945	82
234.179	93
234.413	67
234.647	76
234.881	91
235.115	88
235.349	83
235.583	96
235.817	79
236.051	78
236.285	72
236.519	77
236.753	86
236.987	74
237.221	69
237.455	76
237.689	75
237.922	82
238.156	68
238.39	70
238.624	73
238.858	76
239.091	57
239.325	78
239.559	81
239.793	80
240.027	86
240.26	68
240.494	80
240.728	72
240.961	87
241.195	73
241.429	85
241.662	91
241.896	88
242.13	74
242.363	88
242.597	86
242.83	92
243.064	76
243.298	85
243.531	75
243.765	75
243.998	77
244.232	70
244.465	78
244.699	72
244.932	89
245.166	76
245.399	76
245.633	73
245.866	79
246.099	76
246.333	88
246.566	89
246.8	79
247.033	87
247.266	76
247.5	76
247.733	79
247.966	78
248.2	78
248.433	73
248.666	84
248.899	69
249.133	94
249.366	86
249.599	88
249.832	84
250.066	86
250.299	79
250.532	82
250.765	69
250.998	72
251.231	79
251.465	74
251.698	82
251.931	93
252.164	86
252.397	67
252.63	95
252.863	89
253.096	80
253.329	80
253.562	79
253.795	69
254.028	68
254.261	110
254.494	68
254.727	92
254.96	74
255.193	99
255.426	81
255.659	85
255.892	84
256.124	74
256.357	84
256.59	74
256.823	86
257.056	75
257.289	76
257.521	83
257.754	90
257.987	73
258.22	76
258.452	82
258.685	73
258.918	83
259.151	93
259.383	85
259.616	82
259.849	87
260.081	86
260.314	72
260.547	84
260.779	104
261.012	72
261.244	72
261.477	77
261.71	84
261.942	82
262.175	88
262.407	81
262.64	85
262.872	80
263.105	71
263.337	76
263.57	77
263.802	95
264.035	83
264.267	79
264.499	64
264.732	85
264.964	72
265.197	83
265.429	87
265.661	87
265.894	76
266.126	81
266.358	75
266.591	82
266.823	81
267.055	70
267.287	70
267.52	89
267.752	80
267.984	94
268.216	79
268.448	75
268.681	90
268.913	82
269.145	83
269.377	76
269.609	75
269.841	80
270.073	68
270.306	73
270.538	81
270.77	80
271.002	91
271.234	92
271.466	85
271.698	72
271.93	83
272.162	98
272.394	75
272.626	90
272.858	86
273.09	91
273.322	99
273.553	97
273.785	75
274.017	85
274.249	94
274.481	79
274.713	95
274.945	72
275.176	81
275.408	75
275.64	88
275.872	83
276.104	82
276.335	71
276.567	73
276.799	94
277.031	85
277.262	86
277.494	103
277.726	81
277.957	102
278.189	91
278.421	83
278.652	102
278.884	81
279.115	82
279.347	84
279.579	97
279.81	85
280.042	82
280.273	91
280.505	79
280.736	82
280.968	88
281.199	72
281.431	75
281.662	84
281.894	86
282.125	95
282.356	91
282.588	88
282.819	91
283.051	86
283.282	82
283.513	91
283.745	92
283.976	85
284.207	88
284.439	87
284.67	88
284.901	86
285.132	85
285.364	82
285.595	79
285.826	90
286.057	92
286.288	87
286.52	99
286.751	76
286.982	90
287.213	93
287.444	86
287.675	84
287.906	80
288.138	74
288.369	92
288.6	93
288.831	75
289.062	95
289.293	92
289.524	85
289.755	74
289.986	85
290.217	69
290.448	90
290.679	82
290.91	88
291.141	86
291.371	92
291.602	76
291.833	67
292.064	75
292.295	80
292.526	68
292.757	80
292.987	93
293.218	89
293.449	94
293.68	96
293.91	94
294.141	95
294.372	72
294.603	80
294.833	93
295.064	83
295.295	82
295.525	84
295.756	89
295.987	85
296.217	83
296.448	76
296.679	84
296.909	82
297.14	91
297.37	88
297.601	96
297.831	86
298.062	80
298.292	84
298.523	84
298.753	95
298.984	72
299.214	85
299.445	66
299.675	91
299.905	95
300.136	88
300.366	86
300.597	75
300.827	74
301.057	81
301.288	89
301.518	87
301.748	79
301.979	92
302.209	94
302.439	96
302.669	86
302.9	77
303.13	80
303.36	83
303.59	66
303.82	80
304.051	89
304.281	85
304.511	87
304.741	87
304.971	75
305.201	84
305.431	89
305.661	88
305.891	95
306.121	90
306.352	90
306.582	84
306.812	84
307.042	77
307.272	81
307.502	83
307.731	83
307.961	80
308.191	81
308.421	92
308.651	94
308.881	80
309.111	85
309.341	95
309.571	97
309.8	83
310.03	98
310.26	78
310.49	91
310.72	97
310.949	82
311.179	89
311.409	87
311.639	81
311.868	90
312.098	90
312.328	86
312.557	75
312.787	78
313.017	98
313.246	93
313.476	87
313.706	82
313.935	82
314.165	98
314.394	95
314.624	80
314.853	90
315.083	95
315.312	92
315.542	85
315.771	85
316.001	97
316.23	73
316.46	80
316.689	88
316.919	89
317.148	76
317.377	79
317.607	74
317.836	82
318.065	85
318.295	98
318.524	116
318.753	82
318.983	82
319.212	85
319.441	76
319.67	90
319.9	86
320.129	103
320.358	103
320.587	88
320.816	77
321.046	81
321.275	93
321.504	78
321.733	79
321.962	108
322.191	89
322.42	90
322.649	79
322.878	85
323.108	90
323.337	93
323.566	79
323.795	93
324.024	98
324.253	88
324.482	80
324.71	82
324.939	68
325.168	89
325.397	91
325.626	99
325.855	87
326.084	89
326.313	90
326.542	80
326.77	79
326.999	75
327.228	82
327.457	87
327.686	82
327.914	83
328.143	88
328.372	89
328.6	73
328.829	98
329.058	90
329.287	78
329.515	90
329.744	99
329.972	89
330.201	84
330.43	87
330.658	85
330.887	83
331.115	75
331.344	79
331.572	90
331.801	92
332.03	85
332.258	82
332.486	75
332.715	87
332.943	83
333.172	82
333.4	86
333.629	95
333.857	97
334.085	83
334.314	76
334.542	83
334.771	84
334.999	78
335.227	71
335.455	76
335.684	78
335.912	87
336.14	72
336.369	85
336.597	75
336.825	68
337.053	88
337.281	76
337.51	79
337.738	89
337.966	88
338.194	70
338.422	78
338.65	86
338.878	83
339.106	83
339.334	80
339.562	97
339.79	87
340.018	73
340.246	84
340.474	90
340.702	75
340.93	83
341.158	67
341.386	87
341.614	84
341.842	81
342.07	90
342.298	97
342.526	75
342.754	78
342.981	80
343.209	80
343.437	94
343.665	75
343.893	90
344.12	88
344.348	76
344.576	96
344.804	78
345.031	94
345.259	67
345.487	84
345.714	82
345.942	79
346.17	82
346.397	73
346.625	79
346.853	80
347.08	84
347.308	90
347.535	93
347.763	79
347.99	89
348.218	79
348.445	82
348.673	89
348.9	83
349.128	80
349.355	87
349.583	93
349.81	90
350.037	81
350.265	81
350.492	85
350.72	86
350.947	87
351.174	93
351.402	89
351.629	86
351.856	83
352.083	88
352.311	81
352.538	77
352.765	91
352.992	91
353.22	95
353.447	69
353.674	80
353.901	85
354.128	87
354.355	70
354.583	76
354.81	79
355.037	99
355.264	71
355.491	98
355.718	89
355.945	87
356.172	79
356.399	87
356.626	75
356.853	84
357.08	74
357.307	91
357.534	86
357.761	84
357.988	80
358.215	75
358.441	58
358.668	70
358.895	87
359.122	87
359.349	89
359.576	72
359.802	86
360.029	103
360.256	87
360.483	88
360.709	83
360.936	88
361.163	77
361.39	93
361.616	100
361.843	92
362.07	88
362.296	76
362.523	76
362.749	75
362.976	90
363.203	95
363.429	69
363.656	91
363.882	91
364.109	84
364.335	88
364.562	89
364.788	80
365.015	82
365.241	94
365.468	81
365.694	74
365.92	69
366.147	91
366.373	75
366.599	83
366.826	83
367.052	89
367.278	94
367.505	80
367.731	79
367.957	79
368.184	83
368.41	78
368.636	78
368.862	71
369.089	86
369.315	66
369.541	96
369.767	80
369.993	83
370.219	86
370.445	91
370.672	91
370.898	78
371.124	71
371.35	72
371.576	77
371.802	90
372.028	74
372.254	95
372.48	86
372.706	93
372.932	89
373.158	83
373.384	101
373.61	90
373.835	84
374.061	98
374.287	84
374.513	75
374.739	89
374.965	80
375.191	91
375.416	88
375.642	87
375.868	92
376.094	81
376.319	83
376.545	87
376.771	87
376.997	81
377.222	85
377.448	95
377.674	78
377.899	89
378.125	89
378.35	82
378.576	84
378.802	88
379.027	76
379.253	102
379.478	88
379.704	83
379.929	89
380.155	84
380.38	83
380.606	89
380.831	78
381.057	91
381.282	79
381.507	80
381.733	91
381.958	84
382.184	87
382.409	100
382.634	84
382.86	70
383.085	82
383.31	87
383.535	89
383.761	76
383.986	83
384.211	72
384.436	73
384.662	80
384.887	86
385.112	76
385.337	72
385.562	77
385.787	87
386.013	102
386.238	85
386.463	75
386.688	68
386.913	93
387.138	91
387.363	82
387.588	92
387.813	90
388.038	95
388.263	75
388.488	89
388.713	86
388.938	77
389.163	94
389.387	96
389.612	99
389.837	80
390.062	87
390.287	87
390.512	84
390.736	83
390.961	84
391.186	86
391.411	80
391.636	101
391.86	88
392.085	87
392.31	77
392.534	85
392.759	87
392.984	89
393.208	84
393.433	95
393.658	81
393.882	79
394.107	84
394.331	79
394.556	93
394.78	91
395.005	87
395.229	69
395.454	84
395.678	69
395.903	88
396.127	76
396.352	85
396.576	81
396.801	95
397.025	92
397.249	100
397.474	88
397.698	84
397.922	89
398.147	78
398.371	83
398.595	82
398.82	85
399.044	74
399.268	97
399.492	90
399.717	75
399.941	88
400.165	85
400.389	86
400.613	87
400.837	95
401.062	83
401.286	88
401.51	81
401.734	70
401.958	85
402.182	82
402.406	82
402.63	99
402.854	78
403.078	81
403.302	92
403.526	91
403.75	83
403.974	84
404.198	83
404.422	87
404.645	99
404.869	83
405.093	92
405.317	81
405.541	94
405.765	73
405.988	90
406.212	91
406.436	83
406.66	85
406.883	86
407.107	84
407.331	94
407.555	84
407.778	82
408.002	91
408.226	84
408.449	70
408.673	68
408.896	84
409.12	101
409.344	102
409.567	103
409.791	88
410.014	82
410.238	94
410.461	97
410.685	87
410.908	91
411.132	85
411.355	98
411.578	90
411.802	74
412.025	86
412.249	95
412.472	94
412.695	106
412.919	92
413.142	90
413.365	97
413.589	88
413.812	78
414.035	91
414.258	91
414.482	88
414.705	97
414.928	94
415.151	68
415.374	81
415.597	90
415.821	88
416.044	92
416.267	90
416.49	97
416.713	97
416.936	100
417.159	92
417.382	90
417.605	83
417.828	103
418.051	86
418.274	91
418.497	88
418.72	95
418.943	104
419.166	86
419.389	99
419.611	99
419.834	89
420.057	97
420.28	103
420.503	90
420.726	102
420.948	99
421.171	89
421.394	91
421.617	84
421.839	81
422.062	80
422.285	90
422.507	99
422.73	87
422.953	89
423.175	99
423.398	93
423.621	88
423.843	98
424.066	107
424.288	81
424.511	100
424.733	109
424.956	105
425.178	97
425.401	93
425.623	87
425.846	92
426.068	100
426.291	79
426.513	87
426.735	94
426.958	79
427.18	95
427.402	100
427.625	96
427.847	87
428.069	83
428.292	90
428.514	93
428.736	96
428.958	86
429.181	78
429.403	94
429.625	103
429.847	90
430.069	82
430.292	89
430.514	88
430.736	77
430.958	77
431.18	87
431.402	92
431.624	89
431.846	74
432.068	90
432.29	90
432.512	96
432.734	96
432.956	94
433.178	93
433.4	95
433.622	82
433.844	107
434.066	106
434.287	84
434.509	85
434.731	101
434.953	99
435.175	90
435.397	90
435.618	81
435.84	85
436.062	71
436.284	91
436.505	89
436.727	93
436.949	108
437.17	94
437.392	100
437.614	90
437.835	91
438.057	77
438.278	84
438.5	87
438.721	92
438.943	95
439.165	91
439.386	87
439.608	96
439.829	108
440.05	98
440.272	94
440.493	88
440.715	84
440.936	97
441.158	93
441.379	110
441.6	84
441.822	87
442.043	83
442.264	84
442.486	97
442.707	96
442.928	92
443.149	81
443.371	97
443.592	107
443.813	92
444.034	91
444.255	107
444.476	91
444.698	108
444.919	90
445.14	206
445.361	168
445.582	112
445.803	85
446.024	85
446.245	100
446.466	96
446.687	107
446.908	106
447.129	94
447.35	107
447.571	115
447.792	92
448.013	93
448.234	85
448.455	90
448.675	88
448.896	99
449.117	86
449.338	91
449.559	102
449.779	88
450	105
450.221	89
450.442	103
450.662	93
450.883	99
451.104	97
451.324	97
451.545	102
451.766	97
451.986	95
452.207	87
452.428	91
452.648	75
452.869	80
453.089	91
453.31	73
453.53	81
453.751	86
453.971	79
454.192	80
454.412	82
454.633	79
454.853	90
455.073	93
455.294	94
455.514	80
455.734	87
455.955	87
456.175	84
456.395	88
456.616	87
456.836	97
457.056	86
457.276	78
457.497	99
457.717	89
457.937	88
458.157	87
458.377	87
458.598	103
458.818	85
459.038	101
459.258	78
459.478	82
459.698	76
459.918	91
460.138	94
460.358	90
460.578	101
460.798	91
461.018	86
461.238	102
461.458	73
461.678	93
461.898	96
462.118	86
462.338	87
462.558	74
462.777	85
462.997	93
463.217	77
463.437	85
463.657	88
463.876	92
464.096	86
464.316	77
464.536	94
464.755	82
464.975	97
465.195	89
465.414	92
465.634	99
465.854	89
466.073	78
466.293	92
466.512	99
466.732	104
466.951	112
467.171	103
467.391	103
467.61	112
467.829	91
468.049	105
468.268	86
468.488	80
468.707	92
468.927	96
469.146	98
469.365	98
469.585	99
469.804	107
470.023	99
470.243	101
470.462	98
470.681	77
470.901	94
471.12	90
471.339	97
471.558	91
471.777	99
471.997	91
472.216	89
472.435	81
472.654	69
472.873	83
473.092	71
473.311	92
473.53	96
473.749	88
473.968	103
474.187	86
474.406	96
474.625	96
474.844	100
475.063	100
475.282	92
475.501	106
475.72	96
475.939	85
476.158	91
476.377	98
476.596	75
476.814	82
477.033	90
477.252	88
477.471	80
477.69	94
477.908	89
478.127	100
478.346	96
478.564	81
478.783	91
479.002	92
479.22	96
479.439	97
479.658	93
479.876	82
480.095	90
480.313	94
480.532	87
480.751	71
480.969	86
481.188	88
481.406	83
481.624	81
481.843	83
482.061	84
482.28	79
482.498	98
482.717	88
482.935	81
483.153	83
483.372	93
483.59	95
483.808	104
484.027	103
484.245	79
484.463	76
484.681	90
484.9	97
485.118	76
485.336	76
485.554	80
485.772	78
485.99	83
486.209	78
486.427	85
486.645	77
486.863	107
487.081	98
487.299	98
487.517	93
487.735	114
487.953	103
488.171	102
488.389	112
488.607	96
488.825	97
489.043	98
489.261	91
489.479	100
489.696	86
489.914	90
490.132	111
490.35	82
490.568	114
490.786	114
491.003	111
491.221	113
491.439	122
491.657	106
491.874	104
492.092	124
492.31	126
492.527	128
492.745	111
492.963	120
493.18	121
493.398	114
493.615	100
493.833	94
494.05	116
494.268	110
494.485	114
494.703	113
494.92	100
495.138	106
495.355	99
495.573	102
495.79	101
496.008	102
496.225	95
496.442	98
496.66	113
496.877	102
497.094	102
497.312	91
497.529	98
497.746	95
497.963	95
498.181	97
498.398	90
498.615	114
498.832	83
499.049	117
499.267	91
499.484	89
499.701	84
499.918	98
500.135	95
500.352	92
500.569	113
500.786	95
501.003	93
501.22	101
501.437	88
501.654	104
501.871	105
502.088	100
502.305	85
502.522	95
502.739	87
502.956	100
503.172	99
503.389	106
503.606	90
503.823	89
504.04	102
504.256	88
504.473	98
504.69	90
504.907	103
505.123	91
505.34	105
505.557	98
505.773	97
505.99	94
506.207	91
506.423	95
506.64	78
506.856	90
507.073	83
507.289	89
507.506	103
507.722	96
507.939	93
508.155	83
508.372	82
508.588	87
508.805	99
509.021	100
509.238	97
509.454	93
509.67	97
509.887	88
510.103	96
510.319	85
510.536	81
510.752	90
510.968	84
511.184	92
511.401	75
511.617	76
511.833	80
512.049	75
512.265	81
512.481	96
512.698	99
512.914	86
513.13	76
513.346	90
513.562	98
513.778	79
513.994	82
514.21	99
514.426	81
514.642	76
514.858	88
515.074	84
515.29	85
515.506	100
515.721	87
515.937	93
516.153	82
516.369	84
516.585	82
516.801	87
517.016	70
517.232	89
517.448	81
517.664	95
517.879	85
518.095	86
518.311	80
518.527	90
518.742	91
518.958	103
519.173	91
519.389	91
519.605	88
519.82	86
520.036	75
520.251	96
520.467	83
520.682	86
520.898	75
521.113	87
521.329	99
521.544	93
521.76	79
521.975	90
522.19	90
522.406	81
522.621	86
522.836	93
523.052	85
523.267	102
523.482	93
523.698	89
523.913	99
524.128	92
524.343	95
524.559	93
524.774	84
524.989	91
525.204	93
525.419	92
525.634	88
525.849	95
526.064	84
526.28	96
526.495	85
526.71	87
526.925	89
527.14	83
527.355	84
527.57	91
527.785	67
527.999	86
528.214	95
528.429	84
528.644	101
528.859	90
529.074	105
529.289	103
529.503	114
529.718	92
529.933	91
530.148	81
530.363	84
530.577	82
530.792	74
531.007	91
531.221	82
531.436	86
531.651	95
531.865	88
532.08	83
532.295	72
532.509	77
532.724	80
532.938	76
533.153	88
533.367	80
533.582	87
533.796	88
534.011	95
534.225	73
534.44	81
534.654	90
534.868	87
535.083	80
535.297	89
535.511	86
535.726	75
535.94	90
536.154	81
536.369	87
536.583	73
536.797	80
537.011	87
537.225	96
537.44	81
537.654	90
537.868	74
538.082	83
538.296	80
538.51	96
538.724	90
538.938	83
539.153	97
539.367	74
539.581	91
539.795	89
540.009	99
540.222	101
540.436	86
540.65	85
540.864	107
541.078	98
541.292	103
541.506	114
541.72	114
541.934	118
542.147	110
542.361	101
542.575	116
542.789	112
543.002	104
543.216	101
543.43	90
543.644	110
543.857	94
544.071	103
544.285	116
544.498	104
544.712	96
544.925	107
545.139	118
545.352	110
545.566	117
545.779	104
545.993	119
546.206	97
546.42	92
546.633	110
546.847	104
547.06	103
547.274	114
547.487	112
547.7	107
547.914	104
548.127	97
548.34	99
548.554	108
548.767	92
548.98	96
549.193	97
549.407	92
549.62	100
549.833	98
550.046	122
550.259	97
550.473	97
550.686	115
550.899	98
551.112	104
551.325	103
551.538	102
551.751	94
551.964	87
552.177	110
552.39	96
552.603	112
552.816	111
553.029	85
553.242	101
553.455	104
553.667	115
553.88	99
554.093	106
554.306	104
554.519	92
554.732	98
554.944	99
555.157	104
555.37	102
555.583	100
555.795	99
556.008	88
556.221	92
556.433	94
556.646	100
556.859	99
557.071	113
557.284	104
557.496	95
557.709	103
557.921	120
558.134	96
558.346	102
558.559	97
558.771	111
558.984	87
559.196	101
559.409	95
559.621	104
559.833	104
560.046	96
560.258	107
560.47	96
560.683	104
560.895	99
561.107	103
561.32	96
561.532	94
561.744	97
561.956	94
562.168	90
562.381	102
562.593	96
562.805	97
563.017	89
563.229	99
563.441	97
563.653	101
563.865	81
564.077	103
564.289	83
564.501	88
564.713	108
564.925	87
565.137	91
565.349	90
565.561	90
565.773	97
565.985	97
566.197	85
566.408	99
566.62	91
566.832	84
567.044	88
567.255	91
567.467	95
567.679	87
567.891	98
568.102	91
568.314	98
568.526	86
568.737	98
568.949	89
569.161	71
569.372	92
569.584	82
569.795	85
570.007	94
570.218	82
570.43	76
570.641	75
570.853	88
571.064	90
571.276	88
571.487	92
571.698	85
571.91	89
572.121	87
572.333	97
572.544	82
572.755	91
572.966	85
573.178	82
573.389	84
573.6	89
573.811	88
574.023	84
574.234	87
574.445	78
574.656	82
574.867	74
575.078	86
575.289	76
575.501	95
575.712	90
575.923	94
576.134	76
576.345	91
576.556	72
576.767	85
576.978	83
577.188	83
577.399	82
577.61	74
577.821	97
578.032	87
578.243	98
578.454	88
578.665	93
578.875	92
579.086	70
579.297	84
579.508	97
579.718	102
579.929	94
580.14	94
580.35	93
580.561	89
580.772	91
580.982	95
581.193	89
581.403	93
581.614	81
581.825	88
582.035	83
582.246	95
582.456	84
582.667	92
582.877	100
583.087	81
583.298	75
583.508	92
583.719	89
583.929	79
584.139	87
584.35	83
584.56	84
584.77	80
584.981	89
585.191	80
585.401	87
585.611	83
585.821	82
586.032	84
586.242	84
586.452	75
586.662	80
586.872	96
587.082	83
587.292	85
587.502	85
587.713	80
587.923	91
588.133	96
588.343	91
588.553	79
588.762	86
588.972	87
589.182	92
589.392	84
589.602	71
589.812	80
590.022	83
590.232	86
590.441	89
590.651	87
590.861	88
591.071	93
591.281	89
591.49	84
591.7	77
591.91	85
592.119	87
592.329	79
592.539	68
592.748	88
592.958	91
593.167	74
593.377	80
593.587	94
593.796	85
594.006	88
594.215	81
594.424	84
594.634	84
594.843	84
595.053	91
595.262	98
595.472	89
595.681	88
595.89	84
596.1	93
596.309	110
596.518	80
596.727	90
596.937	106
597.146	96
597.355	96
597.564	96
597.774	96
597.983	93
598.192	90
598.401	91
598.61	92
598.819	90
599.028	84
599.237	74
599.446	92
599.655	83
599.864	89
600.073	98
600.282	84
600.491	82
600.7	82
600.909	90
601.118	83
601.327	76
601.536	98
601.745	86
601.953	91
602.162	94
602.371	95
602.58	92
602.789	97
602.997	94
603.206	83
603.415	92
603.623	90
603.832	83
604.041	85
604.249	96
604.458	83
604.666	90
604.875	87
605.084	74
605.292	93
605.501	98
605.709	92
605.918	99
606.126	89
606.334	88
606.543	93
606.751	97
606.96	103
607.168	92
607.376	89
607.585	68
607.793	83
608.001	98
608.21	91
608.418	102
608.626	96
608.834	95
609.043	95
609.251	79
609.459	81
609.667	87
609.875	98
610.083	102
610.291	102
610.499	95
610.707	87
610.916	85
611.124	99
611.332	92
611.54	80
611.748	94
611.955	106
612.163	95
612.371	88
612.579	104
612.787	89
612.995	94
613.203	90
613.411	80
613.618	103
613.826	101
614.034	96
614.242	98
614.449	88
614.657	88
614.865	101
615.072	80
615.28	96
615.488	91
615.695	96
615.903	92
616.111	92
616.318	96
616.526	92
616.733	87
616.941	87
617.148	104
617.356	110
617.563	96
617.771	89
617.978	71
618.185	112
618.393	82
618.6	91
618.807	87
619.015	98
619.222	77
619.429	88
619.637	88
619.844	83
620.051	85
620.258	90
620.466	94
620.673	87
620.88	78
621.087	82
621.294	94
621.501	93
621.708	86
621.915	95
622.122	92
622.329	86
622.536	100
622.743	91
622.95	96
623.157	102
623.364	83
623.571	83
623.778	87
623.985	82
624.192	99
624.399	84
624.606	101
624.812	95
625.019	100
625.226	94
625.433	107
625.639	99
625.846	85
626.053	99
626.259	72
626.466	74
626.673	87
626.879	92
627.086	96
627.293	85
627.499	100
627.706	89
627.912	86
628.119	88
628.325	101
628.532	86
628.738	81
628.945	78
629.151	84
629.357	86
629.564	80
629.77	86
629.976	82
630.183	85
630.389	79
630.595	91
630.802	87
631.008	97
631.214	68
631.42	100
631.627	94
631.833	84
632.039	88
632.245	88
632.451	94
632.657	84
632.863	85
633.069	108
633.275	82
633.481	82
633.688	93
633.893	90
634.099	98
634.305	81
634.511	95
634.717	99
634.923	96
635.129	95
635.335	93
635.541	93
635.747	82
635.952	97
636.158	90
636.364	74
636.57	81
636.775	99
636.981	86
637.187	90
637.392	89
637.598	98
637.804	87
638.009	95
638.215	89
638.421	96
638.626	81
638.832	96
639.037	78
639.243	87
639.448	89
639.654	82
639.859	74
640.065	76
640.27	102
640.475	90
640.681	84
640.886	99
641.091	78
641.297	89
641.502	91
641.707	83
641.913	76
642.118	82
642.323	81
642.528	94
642.733	92
642.939	103
643.144	98
643.349	85
643.554	71
643.759	87
643.964	79
644.169	82
644.374	76
644.579	94
644.784	87
644.989	82
645.194	92
645.399	86
645.604	88
645.809	102
646.014	88
646.219	85
646.423	74
646.628	89
646.833	83
647.038	94
647.243	86
647.447	96
647.652	83
647.857	95
648.062	96
648.266	95
648.471	83
648.676	95
648.88	88
649.085	72
649.289	87
649.494	90
649.698	91
649.903	76
650.107	88
650.312	92
650.516	91
650.721	103
650.925	84
651.13	88
651.334	101
651.539	77
651.743	74
651.947	105
652.152	87
652.356	91
652.56	85
652.764	92
652.969	71
653.173	90
653.377	88
653.581	82
653.785	81
653.99	82
654.194	79
654.398	100
654.602	85
654.806	77
655.01	94
655.214	85
655.418	98
655.622	93
655.826	74
656.03	90
656.234	81
656.438	67
656.642	84
656.846	75
657.049	92
657.253	91
657.457	81
657.661	99
657.865	74
658.068	83
658.272	93
658.476	84
658.68	89
658.883	72
659.087	80
659.291	78
659.494	81
659.698	75
659.901	94
660.105	76
660.309	80
660.512	76
660.716	80
660.919	85
661.123	85
661.326	86
661.53	69
661.733	73
661.936	82
662.14	90
662.343	75
662.546	79
662.75	82
662.953	91
663.156	87
663.36	81
663.563	81
663.766	75
663.969	90
664.173	91
664.376	76
664.579	86
664.782	77
664.985	102
665.188	79
665.391	75
665.594	85
665.797	73
666	94
666.203	91
666.406	77
666.609	80
666.812	80
667.015	80
667.218	88
667.421	94
667.624	89
667.827	75
668.03	94
668.232	80
668.435	92
668.638	75
668.841	80
669.043	81
669.246	91
669.449	86
669.651	83
669.854	66
670.057	81
670.259	94
670.462	98
670.665	80
670.867	91
671.07	84
671.272	90
671.475	92
671.677	86
671.88	87
672.082	83
672.284	75
672.487	83
672.689	85
672.892	85
