Data from Location5.07152019.Energy5.Lamp.07192019.3%Agarose_HRD10591_15-39-23-389.txt Node
Date: Fri Jul 19 15:39:23 EDT 2019
User: cochatt
Spectrometer: HR+D1059
Trigger mode: 1
Integration Time (sec): 1.000000E-1
Scans to average: 1
Electric dark correction enabled: true
Nonlinearity correction enabled: false
Boxcar width: 0
XAxis mode: Wavelengths
Number of Pixels in Spectrum: 2048
>>>>>Begin Spectral Data<<<<<
223.165	-13
223.4	-13
223.635	-13
223.869	2
224.104	-1
224.338	-25
224.573	-16
224.808	-8
225.042	2
225.277	-7
225.511	-23
225.746	-5
225.98	14
226.215	7
226.449	-3
226.683	23
226.918	27
227.152	26
227.387	31
227.621	30
227.856	39
228.09	30
228.324	47
228.559	63
228.793	59
229.027	48
229.262	54
229.496	56
229.73	51
229.964	63
230.199	71
230.433	65
230.667	65
230.901	72
231.136	84
231.37	93
231.604	77
231.838	88
232.072	85
232.306	79
232.541	90
232.775	84
233.009	69
233.243	86
233.477	78
233.711	85
233.945	84
234.179	87
234.413	77
234.647	91
234.881	80
235.115	68
235.349	90
235.583	68
235.817	82
236.051	70
236.285	78
236.519	74
236.753	73
236.987	76
237.221	67
237.455	80
237.689	81
237.922	73
238.156	71
238.39	67
238.624	63
238.858	72
239.091	66
239.325	70
239.559	68
239.793	63
240.027	75
240.26	69
240.494	76
240.728	76
240.961	68
241.195	83
241.429	66
241.662	60
241.896	74
242.13	63
242.363	78
242.597	66
242.83	60
243.064	74
243.298	69
243.531	66
243.765	83
243.998	64
244.232	85
244.465	68
244.699	69
244.932	72
245.166	70
245.399	58
245.633	74
245.866	68
246.099	54
246.333	76
246.566	63
246.8	77
247.033	82
247.266	72
247.5	64
247.733	67
247.966	63
248.2	75
248.433	69
248.666	71
248.899	82
249.133	75
249.366	92
249.599	93
249.832	67
250.066	79
250.299	90
250.532	78
250.765	87
250.998	72
251.231	74
251.465	63
251.698	78
251.931	82
252.164	73
252.397	74
252.63	84
252.863	84
253.096	77
253.329	85
253.562	83
253.795	80
254.028	74
254.261	73
254.494	68
254.727	78
254.96	85
255.193	78
255.426	74
255.659	70
255.892	71
256.124	76
256.357	82
256.59	92
256.823	69
257.056	72
257.289	71
257.521	82
257.754	76
257.987	84
258.22	81
258.452	76
258.685	62
258.918	67
259.151	84
259.383	70
259.616	76
259.849	83
260.081	78
260.314	75
260.547	84
260.779	76
261.012	87
261.244	83
261.477	83
261.71	78
261.942	57
262.175	78
262.407	66
262.64	76
262.872	80
263.105	72
263.337	80
263.57	85
263.802	85
264.035	78
264.267	82
264.499	63
264.732	72
264.964	70
265.197	80
265.429	72
265.661	86
265.894	76
266.126	79
266.358	71
266.591	85
266.823	79
267.055	80
267.287	67
267.52	78
267.752	89
267.984	72
268.216	78
268.448	83
268.681	73
268.913	81
269.145	66
269.377	79
269.609	74
269.841	76
270.073	80
270.306	71
270.538	77
270.77	81
271.002	77
271.234	97
271.466	76
271.698	82
271.93	79
272.162	82
272.394	75
272.626	82
272.858	74
273.09	74
273.322	84
273.553	84
273.785	73
274.017	74
274.249	83
274.481	85
274.713	85
274.945	78
275.176	64
275.408	79
275.64	88
275.872	82
276.104	84
276.335	84
276.567	90
276.799	64
277.031	81
277.262	80
277.494	79
277.726	79
277.957	64
278.189	71
278.421	67
278.652	84
278.884	91
279.115	73
279.347	79
279.579	57
279.81	67
280.042	71
280.273	95
280.505	86
280.736	77
280.968	75
281.199	79
281.431	70
281.662	83
281.894	69
282.125	76
282.356	78
282.588	85
282.819	75
283.051	84
283.282	73
283.513	77
283.745	88
283.976	69
284.207	82
284.439	80
284.67	83
284.901	85
285.132	93
285.364	73
285.595	82
285.826	86
286.057	81
286.288	76
286.52	72
286.751	85
286.982	81
287.213	72
287.444	79
287.675	74
287.906	78
288.138	76
288.369	75
288.6	75
288.831	80
289.062	76
289.293	68
289.524	88
289.755	81
289.986	80
290.217	71
290.448	86
290.679	83
290.91	97
291.141	63
291.371	62
291.602	66
291.833	86
292.064	78
292.295	70
292.526	92
292.757	75
292.987	62
293.218	84
293.449	86
293.68	75
293.91	68
294.141	72
294.372	71
294.603	67
294.833	80
295.064	81
295.295	86
295.525	98
295.756	68
295.987	78
296.217	79
296.448	67
296.679	65
296.909	86
297.14	94
297.37	73
297.601	97
297.831	82
298.062	83
298.292	79
298.523	78
298.753	72
298.984	76
299.214	71
299.445	84
299.675	70
299.905	78
300.136	82
300.366	70
300.597	77
300.827	70
301.057	76
301.288	83
301.518	88
301.748	72
301.979	77
302.209	80
302.439	77
302.669	90
302.9	80
303.13	75
303.36	73
303.59	82
303.82	67
304.051	82
304.281	80
304.511	87
304.741	79
304.971	77
305.201	76
305.431	83
305.661	77
305.891	72
306.121	76
306.352	80
306.582	84
306.812	90
307.042	79
307.272	93
307.502	86
307.731	87
307.961	86
308.191	77
308.421	90
308.651	80
308.881	83
309.111	78
309.341	71
309.571	91
309.8	88
310.03	79
310.26	71
310.49	89
310.72	76
310.949	79
311.179	70
311.409	86
311.639	80
311.868	80
312.098	80
312.328	77
312.557	71
312.787	71
313.017	95
313.246	82
313.476	81
313.706	82
313.935	88
314.165	94
314.394	84
314.624	71
314.853	86
315.083	89
315.312	78
315.542	82
315.771	84
316.001	86
316.23	79
316.46	72
316.689	84
316.919	83
317.148	95
317.377	86
317.607	75
317.836	79
318.065	73
318.295	86
318.524	74
318.753	84
318.983	71
319.212	83
319.441	71
319.67	79
319.9	73
320.129	79
320.358	91
320.587	95
320.816	75
321.046	96
321.275	84
321.504	79
321.733	69
321.962	80
322.191	74
322.42	78
322.649	85
322.878	76
323.108	86
323.337	79
323.566	81
323.795	85
324.024	99
324.253	69
324.482	79
324.71	87
324.939	78
325.168	83
325.397	88
325.626	60
325.855	78
326.084	75
326.313	78
326.542	69
326.77	78
326.999	83
327.228	79
327.457	82
327.686	72
327.914	84
328.143	76
328.372	84
328.6	79
328.829	82
329.058	65
329.287	79
329.515	71
329.744	71
329.972	66
330.201	79
330.43	92
330.658	85
330.887	73
331.115	79
331.344	75
331.572	80
331.801	85
332.03	79
332.258	72
332.486	64
332.715	68
332.943	84
333.172	75
333.4	86
333.629	87
333.857	80
334.085	65
334.314	84
334.542	76
334.771	67
334.999	85
335.227	68
335.455	88
335.684	78
335.912	88
336.14	80
336.369	76
336.597	69
336.825	74
337.053	86
337.281	63
337.51	68
337.738	74
337.966	90
338.194	87
338.422	85
338.65	71
338.878	84
339.106	79
339.334	76
339.562	78
339.79	88
340.018	83
340.246	92
340.474	78
340.702	80
340.93	85
341.158	78
341.386	80
341.614	81
341.842	84
342.07	87
342.298	82
342.526	78
342.754	82
342.981	82
343.209	80
343.437	71
343.665	80
343.893	93
344.12	94
344.348	82
344.576	72
344.804	85
345.031	82
345.259	77
345.487	87
345.714	72
345.942	68
346.17	84
346.397	80
346.625	84
346.853	102
347.08	93
347.308	76
347.535	79
347.763	84
347.99	82
348.218	69
348.445	76
348.673	74
348.9	75
349.128	79
349.355	68
349.583	93
349.81	84
350.037	76
350.265	80
350.492	71
350.72	73
350.947	71
351.174	78
351.402	67
351.629	75
351.856	78
352.083	77
352.311	79
352.538	82
352.765	77
352.992	89
353.22	76
353.447	87
353.674	95
353.901	83
354.128	69
354.355	67
354.583	78
354.81	78
355.037	85
355.264	81
355.491	84
355.718	75
355.945	72
356.172	83
356.399	71
356.626	76
356.853	88
357.08	87
357.307	75
357.534	74
357.761	73
357.988	82
358.215	72
358.441	66
358.668	81
358.895	67
359.122	88
359.349	73
359.576	73
359.802	79
360.029	85
360.256	72
360.483	78
360.709	80
360.936	80
361.163	78
361.39	83
361.616	76
361.843	82
362.07	92
362.296	72
362.523	94
362.749	71
362.976	78
363.203	80
363.429	76
363.656	72
363.882	82
364.109	66
364.335	102
364.562	78
364.788	78
365.015	66
365.241	76
365.468	76
365.694	79
365.92	70
366.147	88
366.373	73
366.599	79
366.826	77
367.052	79
367.278	78
367.505	75
367.731	79
367.957	87
368.184	83
368.41	85
368.636	80
368.862	94
369.089	82
369.315	83
369.541	85
369.767	86
369.993	71
370.219	66
370.445	66
370.672	81
370.898	90
371.124	85
371.35	80
371.576	83
371.802	92
372.028	91
372.254	75
372.48	77
372.706	80
372.932	69
373.158	81
373.384	84
373.61	79
373.835	81
374.061	86
374.287	93
374.513	74
374.739	70
374.965	103
375.191	71
375.416	85
375.642	94
375.868	79
376.094	88
376.319	83
376.545	91
376.771	72
376.997	80
377.222	87
377.448	86
377.674	77
377.899	78
378.125	80
378.35	87
378.576	74
378.802	78
379.027	86
379.253	85
379.478	75
379.704	80
379.929	72
380.155	70
380.38	74
380.606	81
380.831	84
381.057	80
381.282	78
381.507	95
381.733	77
381.958	83
382.184	78
382.409	88
382.634	80
382.86	96
383.085	76
383.31	74
383.535	83
383.761	78
383.986	69
384.211	71
384.436	80
384.662	71
384.887	86
385.112	82
385.337	76
385.562	69
385.787	76
386.013	78
386.238	80
386.463	80
386.688	78
386.913	85
387.138	95
387.363	92
387.588	90
387.813	82
388.038	83
388.263	87
388.488	81
388.713	80
388.938	80
389.163	80
389.387	63
389.612	83
389.837	80
390.062	88
390.287	78
390.512	90
390.736	78
390.961	89
391.186	85
391.411	94
391.636	81
391.86	74
392.085	76
392.31	75
392.534	85
392.759	90
392.984	80
393.208	63
393.433	81
393.658	85
393.882	75
394.107	87
394.331	71
394.556	88
394.78	88
395.005	92
395.229	78
395.454	92
395.678	95
395.903	79
396.127	78
396.352	65
396.576	87
396.801	87
397.025	85
397.249	67
397.474	80
397.698	76
397.922	83
398.147	71
398.371	83
398.595	82
398.82	86
399.044	85
399.268	88
399.492	83
399.717	88
399.941	78
400.165	86
400.389	78
400.613	88
400.837	80
401.062	88
401.286	80
401.51	88
401.734	83
401.958	84
402.182	78
402.406	68
402.63	62
402.854	86
403.078	82
403.302	84
403.526	75
403.75	79
403.974	70
404.198	85
404.422	92
404.645	92
404.869	101
405.093	82
405.317	78
405.541	83
405.765	76
405.988	73
406.212	77
406.436	76
406.66	73
406.883	84
407.107	80
407.331	84
407.555	76
407.778	90
408.002	80
408.226	70
408.449	78
408.673	90
408.896	82
409.12	88
409.344	83
409.567	78
409.791	79
410.014	86
410.238	82
410.461	77
410.685	86
410.908	87
411.132	90
411.355	84
411.578	99
411.802	85
412.025	80
412.249	72
412.472	75
412.695	85
412.919	91
413.142	91
413.365	61
413.589	97
413.812	79
414.035	97
414.258	85
414.482	91
414.705	84
414.928	78
415.151	87
415.374	83
415.597	93
415.821	92
416.044	94
416.267	88
416.49	84
416.713	77
416.936	88
417.159	79
417.382	88
417.605	95
417.828	93
418.051	87
418.274	92
418.497	86
418.72	79
418.943	75
419.166	75
419.389	88
419.611	75
419.834	85
420.057	75
420.28	78
420.503	86
420.726	96
420.948	75
421.171	85
421.394	79
421.617	79
421.839	91
422.062	84
422.285	83
422.507	94
422.73	81
422.953	87
423.175	87
423.398	91
423.621	86
423.843	74
424.066	85
424.288	79
424.511	91
424.733	96
424.956	81
425.178	94
425.401	86
425.623	81
425.846	87
426.068	81
426.291	95
426.513	85
426.735	73
426.958	92
427.18	88
427.402	85
427.625	78
427.847	95
428.069	85
428.292	85
428.514	92
428.736	94
428.958	84
429.181	94
429.403	80
429.625	69
429.847	94
430.069	83
430.292	83
430.514	85
430.736	87
430.958	95
431.18	78
431.402	87
431.624	81
431.846	75
432.068	91
432.29	85
432.512	91
432.734	94
432.956	78
433.178	87
433.4	94
433.622	77
433.844	90
434.066	95
434.287	78
434.509	82
434.731	83
434.953	78
435.175	76
435.397	89
435.618	85
435.84	76
436.062	96
436.284	101
436.505	77
436.727	77
436.949	100
437.17	90
437.392	95
437.614	81
437.835	83
438.057	79
438.278	89
438.5	82
438.721	100
438.943	90
439.165	86
439.386	95
439.608	99
439.829	89
440.05	99
440.272	93
440.493	92
440.715	88
440.936	77
441.158	88
441.379	98
441.6	107
441.822	91
442.043	84
442.264	96
442.486	80
442.707	91
442.928	84
443.149	87
443.371	96
443.592	102
443.813	76
444.034	99
444.255	100
444.476	82
444.698	92
444.919	97
445.14	206
445.361	144
445.582	97
445.803	85
446.024	97
446.245	104
446.466	99
446.687	80
446.908	91
447.129	89
447.35	109
447.571	107
447.792	96
448.013	86
448.234	84
448.455	93
448.675	78
448.896	101
449.117	85
449.338	90
449.559	87
449.779	101
450	94
450.221	84
450.442	99
450.662	95
450.883	87
451.104	86
451.324	93
451.545	92
451.766	79
451.986	93
452.207	81
452.428	97
452.648	80
452.869	72
453.089	93
453.31	70
453.53	73
453.751	93
453.971	83
454.192	82
454.412	75
454.633	92
454.853	88
455.073	86
455.294	83
455.514	71
455.734	98
455.955	72
456.175	84
456.395	87
456.616	99
456.836	71
457.056	85
457.276	80
457.497	77
457.717	84
457.937	90
458.157	80
458.377	95
458.598	86
458.818	81
459.038	68
459.258	64
459.478	84
459.698	74
459.918	87
460.138	81
460.358	84
460.578	77
460.798	84
461.018	88
461.238	78
461.458	84
461.678	92
461.898	82
462.118	72
462.338	90
462.558	85
462.777	75
462.997	85
463.217	71
463.437	83
463.657	67
463.876	87
464.096	90
464.316	74
464.536	81
464.755	92
464.975	76
465.195	96
465.414	72
465.634	98
465.854	76
466.073	94
466.293	78
466.512	85
466.732	83
466.951	86
467.171	90
467.391	87
467.61	76
467.829	88
468.049	79
468.268	83
468.488	88
468.707	94
468.927	90
469.146	100
469.365	87
469.585	88
469.804	81
470.023	87
470.243	85
470.462	95
470.681	102
470.901	104
471.12	93
471.339	101
471.558	90
471.777	85
471.997	80
472.216	92
472.435	73
472.654	88
472.873	93
473.092	84
473.311	87
473.53	75
473.749	79
473.968	91
474.187	75
474.406	86
474.625	90
474.844	84
475.063	95
475.282	75
475.501	88
475.72	93
475.939	76
476.158	63
476.377	76
476.596	87
476.814	84
477.033	83
477.252	86
477.471	86
477.69	91
477.908	96
478.127	87
478.346	93
478.564	86
478.783	85
479.002	82
479.22	91
479.439	79
479.658	93
479.876	74
480.095	82
480.313	87
480.532	86
480.751	87
480.969	78
481.188	88
481.406	86
481.624	90
481.843	76
482.061	64
482.28	78
482.498	83
482.717	93
482.935	83
483.153	101
483.372	89
483.59	97
483.808	79
484.027	95
484.245	89
484.463	85
484.681	91
484.9	101
485.118	89
485.336	82
485.554	86
485.772	81
485.99	92
486.209	97
486.427	80
486.645	83
486.863	78
487.081	90
487.299	90
487.517	88
487.735	85
487.953	107
488.171	102
488.389	99
488.607	114
488.825	95
489.043	83
489.261	100
489.479	94
489.696	83
489.914	102
490.132	92
490.35	91
490.568	101
490.786	106
491.003	108
491.221	103
491.439	110
491.657	106
491.874	115
492.092	115
492.31	128
492.527	111
492.745	118
492.963	102
493.18	85
493.398	104
493.615	108
493.833	92
494.05	99
494.268	98
494.485	96
494.703	110
494.92	98
495.138	92
495.355	113
495.573	110
495.79	92
496.008	97
496.225	111
496.442	114
496.66	112
496.877	101
497.094	107
497.312	79
497.529	87
497.746	104
497.963	101
498.181	104
498.398	91
498.615	80
498.832	78
499.049	101
499.267	87
499.484	81
499.701	100
499.918	76
500.135	94
500.352	92
500.569	80
500.786	83
501.003	85
501.22	103
501.437	96
501.654	96
501.871	87
502.088	99
502.305	84
502.522	92
502.739	94
502.956	88
503.172	97
503.389	81
503.606	91
503.823	82
504.04	89
504.256	82
504.473	84
504.69	91
504.907	91
505.123	87
505.34	87
505.557	87
505.773	101
505.99	87
506.207	84
506.423	79
506.64	91
506.856	90
507.073	84
507.289	88
507.506	91
507.722	87
507.939	89
508.155	85
508.372	89
508.588	88
508.805	76
509.021	88
509.238	82
509.454	79
509.67	86
509.887	83
510.103	77
510.319	82
510.536	88
510.752	98
510.968	93
511.184	85
511.401	84
511.617	78
511.833	78
512.049	73
512.265	80
512.481	76
512.698	75
512.914	87
513.13	96
513.346	86
513.562	68
513.778	77
513.994	80
514.21	81
514.426	81
514.642	75
514.858	78
515.074	75
515.29	92
515.506	61
515.721	66
515.937	96
516.153	89
516.369	83
516.585	74
516.801	82
517.016	84
517.232	92
517.448	83
517.664	72
517.879	62
518.095	69
518.311	78
518.527	90
518.742	77
518.958	81
519.173	74
519.389	94
519.605	81
519.82	81
520.036	88
520.251	70
520.467	86
520.682	95
520.898	87
521.113	71
521.329	77
521.544	80
521.76	84
521.975	79
522.19	82
522.406	89
522.621	83
522.836	91
523.052	79
523.267	90
523.482	86
523.698	73
523.913	72
524.128	78
524.343	71
524.559	87
524.774	72
524.989	94
525.204	85
525.419	83
525.634	70
525.849	86
526.064	83
526.28	99
526.495	82
526.71	90
526.925	83
527.14	77
527.355	69
527.57	77
527.785	74
527.999	85
528.214	79
528.429	72
528.644	84
528.859	112
529.074	107
529.289	83
529.503	101
529.718	90
529.933	89
530.148	83
530.363	81
530.577	84
530.792	67
531.007	80
531.221	85
531.436	76
531.651	79
531.865	65
532.08	80
532.295	77
532.509	74
532.724	84
532.938	79
533.153	82
533.367	82
533.582	89
533.796	76
534.011	91
534.225	83
534.44	88
534.654	86
534.868	83
535.083	72
535.297	78
535.511	90
535.726	90
535.94	72
536.154	83
536.369	74
536.583	78
536.797	90
537.011	69
537.225	74
537.44	83
537.654	95
537.868	69
538.082	82
538.296	78
538.51	94
538.724	87
538.938	88
539.153	94
539.367	86
539.581	88
539.795	88
540.009	93
540.222	89
540.436	90
540.65	87
540.864	83
541.078	96
541.292	110
541.506	93
541.72	106
541.934	107
542.147	99
542.361	99
542.575	90
542.789	116
543.002	99
543.216	95
543.43	84
543.644	107
543.857	115
544.071	99
544.285	111
544.498	82
544.712	89
544.925	86
545.139	102
545.352	104
545.566	110
545.779	100
545.993	100
546.206	101
546.42	104
546.633	108
546.847	101
547.06	90
547.274	109
547.487	111
547.7	105
547.914	113
548.127	88
548.34	99
548.554	94
548.767	87
548.98	97
549.193	111
549.407	85
549.62	90
549.833	100
550.046	91
550.259	110
550.473	98
550.686	93
550.899	98
551.112	90
551.325	107
551.538	95
551.751	84
551.964	88
552.177	106
552.39	96
552.603	103
552.816	106
553.029	92
553.242	106
553.455	90
553.667	98
553.88	94
554.093	108
554.306	112
554.519	107
554.732	110
554.944	85
555.157	99
555.37	102
555.583	111
555.795	87
556.008	94
556.221	96
556.433	101
556.646	103
556.859	101
557.071	101
557.284	95
557.496	111
557.709	101
557.921	89
558.134	84
558.346	96
558.559	83
558.771	88
558.984	82
559.196	90
559.409	85
559.621	97
559.833	96
560.046	99
560.258	100
560.47	84
560.683	96
560.895	85
561.107	94
561.32	85
561.532	102
561.744	79
561.956	81
562.168	84
562.381	94
562.593	108
562.805	87
563.017	101
563.229	89
563.441	95
563.653	79
563.865	104
564.077	88
564.289	108
564.501	92
564.713	96
564.925	94
565.137	94
565.349	82
565.561	79
565.773	82
565.985	94
566.197	91
566.408	87
566.62	90
566.832	93
567.044	90
567.255	91
567.467	75
567.679	81
567.891	80
568.102	77
568.314	79
568.526	86
568.737	95
568.949	90
569.161	80
569.372	71
569.584	72
569.795	88
570.007	96
570.218	77
570.43	84
570.641	86
570.853	79
571.064	81
571.276	86
571.487	81
571.698	98
571.91	89
572.121	73
572.333	82
572.544	85
572.755	85
572.966	81
573.178	96
573.389	79
573.6	94
573.811	80
574.023	86
574.234	85
574.445	78
574.656	97
574.867	77
575.078	79
575.289	90
575.501	77
575.712	98
575.923	78
576.134	90
576.345	103
576.556	86
576.767	97
576.978	102
577.188	102
577.399	88
577.61	83
577.821	92
578.032	75
578.243	82
578.454	81
578.665	86
578.875	72
579.086	87
579.297	80
579.508	95
579.718	75
579.929	79
580.14	80
580.35	85
580.561	81
580.772	81
580.982	67
581.193	90
581.403	99
581.614	82
581.825	74
582.035	73
582.246	76
582.456	84
582.667	92
582.877	79
583.087	92
583.298	98
583.508	71
583.719	66
583.929	83
584.139	90
584.35	93
584.56	84
584.77	88
584.981	101
585.191	83
585.401	83
585.611	78
585.821	71
586.032	82
586.242	78
586.452	89
586.662	84
586.872	80
587.082	69
587.292	72
587.502	75
587.713	82
587.923	75
588.133	78
588.343	68
588.553	82
588.762	71
588.972	88
589.182	80
589.392	70
589.602	81
589.812	81
590.022	78
590.232	91
590.441	84
590.651	59
590.861	80
591.071	82
591.281	75
591.49	86
591.7	83
591.91	89
592.119	87
592.329	83
592.539	80
592.748	87
592.958	70
593.167	81
593.377	80
593.587	97
593.796	79
594.006	82
594.215	96
594.424	84
594.634	80
594.843	85
595.053	92
595.262	71
595.472	80
595.681	72
595.89	85
596.1	81
596.309	83
596.518	75
596.727	81
596.937	91
597.146	82
597.355	90
597.564	75
597.774	78
597.983	76
598.192	82
598.401	70
598.61	72
598.819	87
599.028	77
599.237	72
599.446	90
599.655	75
599.864	83
600.073	80
600.282	83
600.491	69
600.7	77
600.909	88
601.118	89
601.327	86
601.536	90
601.745	84
601.953	92
602.162	85
602.371	95
602.58	78
602.789	87
602.997	92
603.206	85
603.415	76
603.623	81
603.832	87
604.041	83
604.249	90
604.458	88
604.666	67
604.875	72
605.084	72
605.292	83
605.501	93
605.709	99
605.918	91
606.126	86
606.334	105
606.543	96
606.751	97
606.96	79
607.168	98
607.376	83
607.585	94
607.793	76
608.001	84
608.21	81
608.418	88
608.626	87
608.834	83
609.043	89
609.251	93
609.459	95
609.667	83
609.875	92
610.083	97
610.291	86
610.499	88
610.707	96
610.916	73
611.124	71
611.332	89
611.54	80
611.748	73
611.955	90
612.163	89
612.371	96
612.579	72
612.787	95
612.995	100
613.203	103
613.411	70
613.618	89
613.826	91
614.034	77
614.242	75
614.449	92
614.657	73
614.865	82
615.072	66
615.28	84
615.488	81
615.695	80
615.903	93
616.111	88
616.318	93
616.526	87
616.733	72
616.941	87
617.148	84
617.356	86
617.563	91
617.771	89
617.978	82
618.185	83
618.393	73
618.6	92
618.807	79
619.015	91
619.222	89
619.429	86
619.637	86
619.844	98
620.051	85
620.258	73
620.466	99
620.673	93
620.88	79
621.087	81
621.294	86
621.501	78
621.708	86
621.915	99
622.122	98
622.329	103
622.536	90
622.743	85
622.95	98
623.157	94
623.364	91
623.571	92
623.778	77
623.985	86
624.192	83
624.399	87
624.606	94
624.812	90
625.019	70
625.226	94
625.433	71
625.639	79
625.846	72
626.053	80
626.259	84
626.466	91
626.673	81
626.879	82
627.086	91
627.293	87
627.499	86
627.706	85
627.912	101
628.119	97
628.325	90
628.532	95
628.738	85
628.945	75
629.151	87
629.357	87
629.564	84
629.77	77
629.976	86
630.183	84
630.389	67
630.595	95
630.802	84
631.008	77
631.214	107
631.42	81
631.627	94
631.833	77
632.039	87
632.245	99
632.451	84
632.657	90
632.863	82
633.069	70
633.275	81
633.481	84
633.688	81
633.893	77
634.099	84
634.305	86
634.511	84
634.717	85
634.923	75
635.129	85
635.335	85
635.541	74
635.747	90
635.952	79
636.158	83
636.364	107
636.57	84
636.775	89
636.981	80
637.187	83
637.392	67
637.598	91
637.804	76
638.009	83
638.215	84
638.421	84
638.626	87
638.832	82
639.037	85
639.243	78
639.448	72
639.654	83
639.859	105
640.065	90
640.27	90
640.475	80
640.681	68
640.886	80
641.091	94
641.297	93
641.502	83
641.707	90
641.913	91
642.118	87
642.323	90
642.528	82
642.733	95
642.939	87
643.144	87
643.349	86
643.554	84
643.759	89
643.964	90
644.169	92
644.374	75
644.579	76
644.784	80
644.989	89
645.194	83
645.399	76
645.604	80
645.809	87
646.014	85
646.219	82
646.423	88
646.628	79
646.833	92
647.038	98
647.243	76
647.447	87
647.652	80
647.857	78
648.062	95
648.266	88
648.471	73
648.676	83
648.88	92
649.085	78
649.289	75
649.494	92
649.698	86
649.903	93
650.107	88
650.312	88
650.516	94
650.721	78
650.925	87
651.13	76
651.334	77
651.539	74
651.743	77
651.947	85
652.152	85
652.356	75
652.56	79
652.764	80
652.969	94
653.173	93
653.377	80
653.581	79
653.785	67
653.99	78
654.194	94
654.398	80
654.602	83
654.806	70
655.01	81
655.214	88
655.418	69
655.622	81
655.826	84
656.03	71
656.234	81
656.438	83
656.642	71
656.846	90
657.049	79
657.253	84
657.457	79
657.661	81
657.865	70
658.068	77
658.272	91
658.476	75
658.68	74
658.883	67
659.087	81
659.291	81
659.494	71
659.698	70
659.901	84
660.105	78
660.309	79
660.512	98
660.716	70
660.919	74
661.123	81
661.326	81
661.53	60
661.733	79
661.936	85
662.14	66
662.343	74
662.546	74
662.75	77
662.953	87
663.156	68
663.36	67
663.563	77
663.766	75
663.969	59
664.173	69
664.376	93
664.579	81
664.782	80
664.985	79
665.188	90
665.391	68
665.594	60
665.797	75
666	78
666.203	75
666.406	83
666.609	73
666.812	76
667.015	64
667.218	53
667.421	77
667.624	70
667.827	69
668.03	76
668.232	78
668.435	83
668.638	70
668.841	66
669.043	78
669.246	73
669.449	60
669.651	78
669.854	76
670.057	83
670.259	78
670.462	72
670.665	91
670.867	87
671.07	75
671.272	75
671.475	76
671.677	75
671.88	87
672.082	91
672.284	74
672.487	71
672.689	88
672.892	58
