Data from Location5.07152019.Energy5.Lamp.07192019.3%Agarose_HRD10591_15-39-07-388.txt Node
Date: Fri Jul 19 15:39:07 EDT 2019
User: cochatt
Spectrometer: HR+D1059
Trigger mode: 1
Integration Time (sec): 1.000000E-1
Scans to average: 1
Electric dark correction enabled: true
Nonlinearity correction enabled: false
Boxcar width: 0
XAxis mode: Wavelengths
Number of Pixels in Spectrum: 2048
>>>>>Begin Spectral Data<<<<<
223.165	-13
223.4	-13
223.635	-13
223.869	-19
224.104	-9
224.338	-19
224.573	-15
224.808	-2
225.042	-15
225.277	-10
225.511	-10
225.746	-2
225.98	27
226.215	10
226.449	16
226.683	25
226.918	19
227.152	17
227.387	31
227.621	48
227.856	47
228.09	43
228.324	46
228.559	69
228.793	60
229.027	76
229.262	70
229.496	88
229.73	78
229.964	70
230.199	69
230.433	65
230.667	68
230.901	80
231.136	75
231.37	80
231.604	92
231.838	69
232.072	76
232.306	68
232.541	85
232.775	79
233.009	87
233.243	90
233.477	79
233.711	90
233.945	70
234.179	92
234.413	81
234.647	87
234.881	86
235.115	79
235.349	84
235.583	86
235.817	91
236.051	88
236.285	75
236.519	70
236.753	71
236.987	75
237.221	85
237.455	87
237.689	80
237.922	84
238.156	75
238.39	81
238.624	79
238.858	73
239.091	65
239.325	78
239.559	72
239.793	84
240.027	85
240.26	84
240.494	79
240.728	85
240.961	72
241.195	83
241.429	90
241.662	73
241.896	85
242.13	76
242.363	81
242.597	95
242.83	88
243.064	78
243.298	90
243.531	79
243.765	75
243.998	90
244.232	82
244.465	77
244.699	77
244.932	88
245.166	73
245.399	90
245.633	73
245.866	79
246.099	77
246.333	74
246.566	86
246.8	85
247.033	81
247.266	79
247.5	87
247.733	81
247.966	76
248.2	76
248.433	86
248.666	78
248.899	92
249.133	94
249.366	84
249.599	87
249.832	73
250.066	92
250.299	83
250.532	82
250.765	62
250.998	74
251.231	70
251.465	95
251.698	92
251.931	61
252.164	101
252.397	70
252.63	73
252.863	98
253.096	80
253.329	86
253.562	76
253.795	94
254.028	90
254.261	78
254.494	81
254.727	82
254.96	88
255.193	82
255.426	81
255.659	89
255.892	82
256.124	77
256.357	85
256.59	75
256.823	91
257.056	95
257.289	80
257.521	83
257.754	76
257.987	84
258.22	82
258.452	90
258.685	90
258.918	78
259.151	81
259.383	74
259.616	79
259.849	77
260.081	94
260.314	86
260.547	83
260.779	68
261.012	91
261.244	98
261.477	85
261.71	97
261.942	83
262.175	71
262.407	76
262.64	79
262.872	84
263.105	81
263.337	90
263.57	73
263.802	77
264.035	102
264.267	93
264.499	91
264.732	83
264.964	97
265.197	84
265.429	78
265.661	71
265.894	81
266.126	77
266.358	95
266.591	78
266.823	77
267.055	64
267.287	79
267.52	85
267.752	85
267.984	64
268.216	89
268.448	80
268.681	85
268.913	81
269.145	95
269.377	84
269.609	95
269.841	75
270.073	103
270.306	87
270.538	74
270.77	72
271.002	90
271.234	79
271.466	77
271.698	80
271.93	84
272.162	96
272.394	98
272.626	88
272.858	83
273.09	92
273.322	80
273.553	86
273.785	87
274.017	85
274.249	85
274.481	79
274.713	83
274.945	91
275.176	85
275.408	75
275.64	86
275.872	84
276.104	89
276.335	77
276.567	72
276.799	85
277.031	87
277.262	93
277.494	93
277.726	84
277.957	82
278.189	86
278.421	87
278.652	93
278.884	73
279.115	81
279.347	85
279.579	85
279.81	87
280.042	92
280.273	70
280.505	77
280.736	94
280.968	75
281.199	73
281.431	80
281.662	92
281.894	85
282.125	80
282.356	84
282.588	85
282.819	87
283.051	74
283.282	88
283.513	95
283.745	82
283.976	79
284.207	94
284.439	91
284.67	71
284.901	87
285.132	89
285.364	82
285.595	84
285.826	92
286.057	82
286.288	89
286.52	88
286.751	93
286.982	94
287.213	84
287.444	77
287.675	74
287.906	85
288.138	108
288.369	85
288.6	92
288.831	85
289.062	85
289.293	88
289.524	79
289.755	78
289.986	87
290.217	80
290.448	85
290.679	83
290.91	98
291.141	95
291.371	76
291.602	97
291.833	90
292.064	86
292.295	91
292.526	86
292.757	84
292.987	82
293.218	95
293.449	85
293.68	86
293.91	100
294.141	100
294.372	90
294.603	93
294.833	79
295.064	86
295.295	87
295.525	82
295.756	86
295.987	82
296.217	84
296.448	86
296.679	97
296.909	79
297.14	87
297.37	87
297.601	88
297.831	80
298.062	86
298.292	79
298.523	84
298.753	90
298.984	82
299.214	80
299.445	74
299.675	77
299.905	89
300.136	94
300.366	91
300.597	96
300.827	79
301.057	88
301.288	92
301.518	81
301.748	85
301.979	78
302.209	75
302.439	82
302.669	87
302.9	79
303.13	76
303.36	98
303.59	93
303.82	87
304.051	86
304.281	77
304.511	79
304.741	91
304.971	89
305.201	86
305.431	92
305.661	62
305.891	92
306.121	85
306.352	86
306.582	86
306.812	73
307.042	87
307.272	92
307.502	88
307.731	89
307.961	82
308.191	78
308.421	83
308.651	83
308.881	89
309.111	94
309.341	85
309.571	79
309.8	85
310.03	86
310.26	76
310.49	80
310.72	94
310.949	72
311.179	96
311.409	81
311.639	99
311.868	92
312.098	89
312.328	90
312.557	83
312.787	93
313.017	93
313.246	94
313.476	92
313.706	94
313.935	92
314.165	84
314.394	83
314.624	98
314.853	85
315.083	84
315.312	84
315.542	84
315.771	97
316.001	98
316.23	83
316.46	93
316.689	96
316.919	95
317.148	104
317.377	70
317.607	89
317.836	75
318.065	79
318.295	90
318.524	94
318.753	73
318.983	83
319.212	92
319.441	86
319.67	94
319.9	92
320.129	92
320.358	87
320.587	84
320.816	84
321.046	79
321.275	78
321.504	77
321.733	83
321.962	77
322.191	87
322.42	82
322.649	84
322.878	90
323.108	87
323.337	99
323.566	94
323.795	101
324.024	95
324.253	73
324.482	91
324.71	89
324.939	87
325.168	92
325.397	99
325.626	104
325.855	84
326.084	77
326.313	96
326.542	86
326.77	83
326.999	90
327.228	74
327.457	82
327.686	98
327.914	70
328.143	86
328.372	92
328.6	76
328.829	88
329.058	86
329.287	76
329.515	92
329.744	97
329.972	93
330.201	90
330.43	82
330.658	75
330.887	85
331.115	74
331.344	85
331.572	100
331.801	97
332.03	91
332.258	93
332.486	78
332.715	85
332.943	71
333.172	85
333.4	84
333.629	92
333.857	96
334.085	87
334.314	90
334.542	77
334.771	89
334.999	80
335.227	89
335.455	98
335.684	85
335.912	93
336.14	86
336.369	102
336.597	89
336.825	91
337.053	83
337.281	78
337.51	74
337.738	85
337.966	91
338.194	70
338.422	75
338.65	88
338.878	87
339.106	91
339.334	97
339.562	88
339.79	73
340.018	84
340.246	81
340.474	90
340.702	86
340.93	87
341.158	86
341.386	90
341.614	84
341.842	94
342.07	85
342.298	83
342.526	77
342.754	88
342.981	94
343.209	88
343.437	88
343.665	89
343.893	87
344.12	93
344.348	87
344.576	85
344.804	89
345.031	71
345.259	89
345.487	94
345.714	84
345.942	95
346.17	87
346.397	89
346.625	72
346.853	84
347.08	85
347.308	83
347.535	78
347.763	81
347.99	96
348.218	87
348.445	93
348.673	91
348.9	89
349.128	78
349.355	89
349.583	85
349.81	79
350.037	99
350.265	84
350.492	83
350.72	84
350.947	88
351.174	76
351.402	86
351.629	80
351.856	86
352.083	91
352.311	80
352.538	82
352.765	86
352.992	93
353.22	89
353.447	86
353.674	89
353.901	86
354.128	75
354.355	88
354.583	81
354.81	79
355.037	87
355.264	80
355.491	81
355.718	82
355.945	87
356.172	79
356.399	95
356.626	80
356.853	78
357.08	65
357.307	87
357.534	72
357.761	86
357.988	97
358.215	77
358.441	85
358.668	83
358.895	89
359.122	72
359.349	89
359.576	87
359.802	89
360.029	84
360.256	70
360.483	85
360.709	92
360.936	97
361.163	75
361.39	77
361.616	89
361.843	90
362.07	71
362.296	85
362.523	75
362.749	67
362.976	88
363.203	88
363.429	75
363.656	74
363.882	82
364.109	77
364.335	81
364.562	102
364.788	94
365.015	83
365.241	80
365.468	84
365.694	77
365.92	88
366.147	87
366.373	86
366.599	86
366.826	75
367.052	79
367.278	89
367.505	81
367.731	83
367.957	88
368.184	88
368.41	71
368.636	83
368.862	85
369.089	84
369.315	102
369.541	94
369.767	94
369.993	72
370.219	85
370.445	93
370.672	89
370.898	94
371.124	77
371.35	77
371.576	79
371.802	84
372.028	83
372.254	81
372.48	84
372.706	101
372.932	89
373.158	75
373.384	91
373.61	78
373.835	92
374.061	97
374.287	91
374.513	89
374.739	84
374.965	92
375.191	93
375.416	87
375.642	85
375.868	87
376.094	80
376.319	95
376.545	80
376.771	83
376.997	84
377.222	84
377.448	78
377.674	83
377.899	83
378.125	82
378.35	76
378.576	80
378.802	73
379.027	91
379.253	94
379.478	84
379.704	82
379.929	78
380.155	96
380.38	72
380.606	76
380.831	75
381.057	98
381.282	94
381.507	82
381.733	73
381.958	97
382.184	90
382.409	77
382.634	80
382.86	101
383.085	75
383.31	94
383.535	93
383.761	93
383.986	85
384.211	77
384.436	81
384.662	93
384.887	93
385.112	98
385.337	88
385.562	80
385.787	77
386.013	73
386.238	75
386.463	84
386.688	83
386.913	80
387.138	74
387.363	82
387.588	90
387.813	92
388.038	79
388.263	87
388.488	91
388.713	78
388.938	92
389.163	88
389.387	79
389.612	92
389.837	86
390.062	99
390.287	86
390.512	109
390.736	95
390.961	78
391.186	78
391.411	81
391.636	92
391.86	94
392.085	83
392.31	90
392.534	80
392.759	80
392.984	77
393.208	78
393.433	87
393.658	85
393.882	84
394.107	96
394.331	91
394.556	86
394.78	87
395.005	93
395.229	86
395.454	75
395.678	82
395.903	84
396.127	88
396.352	78
396.576	87
396.801	101
397.025	81
397.249	85
397.474	91
397.698	78
397.922	77
398.147	77
398.371	92
398.595	90
398.82	87
399.044	89
399.268	100
399.492	91
399.717	81
399.941	96
400.165	99
400.389	75
400.613	93
400.837	86
401.062	93
401.286	86
401.51	85
401.734	91
401.958	88
402.182	79
402.406	89
402.63	91
402.854	92
403.078	70
403.302	90
403.526	83
403.75	103
403.974	83
404.198	93
404.422	94
404.645	85
404.869	86
405.093	86
405.317	90
405.541	75
405.765	102
405.988	92
406.212	85
406.436	92
406.66	87
406.883	92
407.107	83
407.331	96
407.555	82
407.778	87
408.002	92
408.226	86
408.449	92
408.673	74
408.896	93
409.12	97
409.344	97
409.567	87
409.791	79
410.014	90
410.238	93
410.461	91
410.685	92
410.908	88
411.132	100
411.355	90
411.578	86
411.802	92
412.025	80
412.249	94
412.472	85
412.695	103
412.919	89
413.142	113
413.365	94
413.589	84
413.812	102
414.035	107
414.258	98
414.482	80
414.705	81
414.928	94
415.151	99
415.374	90
415.597	97
415.821	91
416.044	91
416.267	74
416.49	89
416.713	83
416.936	99
417.159	95
417.382	97
417.605	72
417.828	98
418.051	110
418.274	96
418.497	88
418.72	108
418.943	98
419.166	100
419.389	79
419.611	86
419.834	99
420.057	93
420.28	82
420.503	91
420.726	84
420.948	89
421.171	94
421.394	78
421.617	114
421.839	94
422.062	105
422.285	95
422.507	102
422.73	102
422.953	93
423.175	92
423.398	84
423.621	97
423.843	102
424.066	91
424.288	86
424.511	88
424.733	108
424.956	91
425.178	97
425.401	82
425.623	82
425.846	91
426.068	76
426.291	91
426.513	82
426.735	96
426.958	85
427.18	105
427.402	83
427.625	91
427.847	78
428.069	84
428.292	95
428.514	81
428.736	80
428.958	99
429.181	77
429.403	105
429.625	95
429.847	102
430.069	93
430.292	95
430.514	94
430.736	106
430.958	92
431.18	87
431.402	101
431.624	77
431.846	81
432.068	90
432.29	85
432.512	77
432.734	98
432.956	87
433.178	94
433.4	84
433.622	103
433.844	102
434.066	83
434.287	83
434.509	80
434.731	86
434.953	85
435.175	94
435.397	91
435.618	85
435.84	92
436.062	97
436.284	106
436.505	99
436.727	94
436.949	103
437.17	88
437.392	84
437.614	91
437.835	98
438.057	84
438.278	80
438.5	109
438.721	92
438.943	107
439.165	103
439.386	82
439.608	94
439.829	102
440.05	94
440.272	78
440.493	98
440.715	101
440.936	99
441.158	102
441.379	92
441.6	90
441.822	89
442.043	90
442.264	93
442.486	87
442.707	86
442.928	100
443.149	86
443.371	100
443.592	106
443.813	102
444.034	89
444.255	103
444.476	113
444.698	106
444.919	95
445.14	221
445.361	149
445.582	84
445.803	95
446.024	83
446.245	98
446.466	106
446.687	96
446.908	99
447.129	97
447.35	94
447.571	99
447.792	102
448.013	100
448.234	92
448.455	84
448.675	91
448.896	86
449.117	114
449.338	94
449.559	96
449.779	86
450	99
450.221	101
450.442	108
450.662	94
450.883	85
451.104	93
451.324	102
451.545	82
451.766	106
451.986	91
452.207	92
452.428	100
452.648	84
452.869	90
453.089	94
453.31	90
453.53	92
453.751	96
453.971	77
454.192	83
454.412	89
454.633	83
454.853	92
455.073	91
455.294	102
455.514	103
455.734	97
455.955	83
456.175	76
456.395	100
456.616	85
456.836	82
457.056	84
457.276	85
457.497	98
457.717	87
457.937	95
458.157	98
458.377	87
458.598	81
458.818	79
459.038	78
459.258	84
459.478	85
459.698	84
459.918	96
460.138	91
460.358	84
460.578	103
460.798	97
461.018	93
461.238	87
461.458	90
461.678	100
461.898	99
462.118	87
462.338	83
462.558	97
462.777	99
462.997	94
463.217	82
463.437	92
463.657	80
463.876	91
464.096	81
464.316	81
464.536	77
464.755	83
464.975	79
465.195	90
465.414	100
465.634	103
465.854	93
466.073	97
466.293	92
466.512	85
466.732	88
466.951	85
467.171	95
467.391	99
467.61	98
467.829	111
468.049	94
468.268	96
468.488	99
468.707	95
468.927	91
469.146	91
469.365	106
469.585	98
469.804	89
470.023	99
470.243	106
470.462	105
470.681	93
470.901	98
471.12	101
471.339	101
471.558	97
471.777	94
471.997	93
472.216	92
472.435	83
472.654	94
472.873	100
473.092	89
473.311	89
473.53	90
473.749	102
473.968	103
474.187	94
474.406	85
474.625	77
474.844	89
475.063	88
475.282	93
475.501	94
475.72	92
475.939	85
476.158	90
476.377	88
476.596	80
476.814	82
477.033	86
477.252	99
477.471	97
477.69	85
477.908	102
478.127	103
478.346	102
478.564	99
478.783	105
479.002	83
479.22	105
479.439	101
479.658	103
479.876	82
480.095	100
480.313	105
480.532	82
480.751	87
480.969	100
481.188	80
481.406	92
481.624	77
481.843	85
482.061	88
482.28	93
482.498	98
482.717	93
482.935	86
483.153	97
483.372	114
483.59	99
483.808	115
484.027	88
484.245	95
484.463	99
484.681	103
484.9	98
485.118	87
485.336	110
485.554	87
485.772	82
485.99	87
486.209	91
486.427	85
486.645	92
486.863	100
487.081	90
487.299	85
487.517	105
487.735	108
487.953	110
488.171	116
488.389	102
488.607	104
488.825	83
489.043	80
489.261	100
489.479	93
489.696	112
489.914	101
490.132	105
490.35	104
490.568	114
490.786	117
491.003	104
491.221	103
491.439	107
491.657	103
491.874	122
492.092	117
492.31	117
492.527	120
492.745	121
492.963	109
493.18	94
493.398	105
493.615	101
493.833	103
494.05	110
494.268	117
494.485	107
494.703	94
494.92	102
495.138	119
495.355	106
495.573	100
495.79	102
496.008	113
496.225	114
496.442	117
496.66	105
496.877	114
497.094	107
497.312	104
497.529	89
497.746	103
497.963	91
498.181	104
498.398	89
498.615	83
498.832	90
499.049	89
499.267	93
499.484	96
499.701	90
499.918	98
500.135	89
500.352	92
500.569	85
500.786	107
501.003	103
501.22	80
501.437	89
501.654	89
501.871	87
502.088	97
502.305	85
502.522	88
502.739	107
502.956	95
503.172	83
503.389	97
503.606	91
503.823	96
504.04	104
504.256	90
504.473	81
504.69	79
504.907	93
505.123	106
505.34	89
505.557	97
505.773	78
505.99	80
506.207	91
506.423	94
506.64	97
506.856	105
507.073	88
507.289	99
507.506	99
507.722	116
507.939	84
508.155	86
508.372	96
508.588	89
508.805	89
509.021	87
509.238	85
509.454	86
509.67	85
509.887	91
510.103	83
510.319	94
510.536	84
510.752	99
510.968	77
511.184	76
511.401	87
511.617	91
511.833	85
512.049	83
512.265	81
512.481	86
512.698	82
512.914	91
513.13	83
513.346	80
513.562	92
513.778	94
513.994	102
514.21	86
514.426	87
514.642	79
514.858	91
515.074	93
515.29	76
515.506	94
515.721	84
515.937	91
516.153	92
516.369	89
516.585	88
516.801	90
517.016	71
517.232	81
517.448	92
517.664	80
517.879	80
518.095	100
518.311	101
518.527	75
518.742	86
518.958	88
519.173	81
519.389	90
519.605	84
519.82	90
520.036	92
520.251	87
520.467	107
520.682	91
520.898	88
521.113	73
521.329	94
521.544	92
521.76	89
521.975	88
522.19	100
522.406	93
522.621	98
522.836	82
523.052	88
523.267	99
523.482	86
523.698	86
523.913	97
524.128	90
524.343	96
524.559	99
524.774	102
524.989	104
525.204	91
525.419	78
525.634	93
525.849	85
526.064	79
526.28	89
526.495	106
526.71	84
526.925	96
527.14	84
527.355	92
527.57	94
527.785	75
527.999	90
528.214	89
528.429	77
528.644	90
528.859	102
529.074	111
529.289	104
529.503	107
529.718	94
529.933	111
530.148	86
530.363	85
530.577	93
530.792	79
531.007	88
531.221	91
531.436	85
531.651	97
531.865	78
532.08	89
532.295	92
532.509	82
532.724	87
532.938	90
533.153	103
533.367	101
533.582	93
533.796	86
534.011	95
534.225	82
534.44	98
534.654	92
534.868	90
535.083	87
535.297	83
535.511	103
535.726	87
535.94	93
536.154	97
536.369	88
536.583	79
536.797	93
537.011	83
537.225	87
537.44	79
537.654	82
537.868	84
538.082	80
538.296	93
538.51	100
538.724	87
538.938	94
539.153	95
539.367	104
539.581	99
539.795	81
540.009	88
540.222	83
540.436	94
540.65	100
540.864	95
541.078	90
541.292	106
541.506	101
541.72	118
541.934	113
542.147	127
542.361	107
542.575	100
542.789	96
543.002	102
543.216	109
543.43	101
543.644	107
543.857	100
544.071	99
544.285	110
544.498	109
544.712	101
544.925	115
545.139	125
545.352	106
545.566	113
545.779	79
545.993	97
546.206	113
546.42	110
546.633	107
546.847	109
547.06	97
547.274	106
547.487	119
547.7	117
547.914	102
548.127	111
548.34	107
548.554	105
548.767	113
548.98	84
549.193	94
549.407	108
549.62	105
549.833	108
550.046	101
550.259	107
550.473	116
550.686	110
550.899	100
551.112	116
551.325	105
551.538	98
551.751	97
551.964	104
552.177	107
552.39	94
552.603	108
552.816	102
553.029	90
553.242	111
553.455	99
553.667	95
553.88	105
554.093	94
554.306	105
554.519	113
554.732	93
554.944	83
555.157	86
555.37	101
555.583	94
555.795	106
556.008	104
556.221	94
556.433	97
556.646	109
556.859	99
557.071	103
557.284	101
557.496	102
557.709	93
557.921	105
558.134	95
558.346	107
558.559	93
558.771	99
558.984	104
559.196	107
559.409	103
559.621	83
559.833	102
560.046	106
560.258	101
560.47	95
560.683	98
560.895	98
561.107	111
561.32	98
561.532	97
561.744	97
561.956	106
562.168	98
562.381	116
562.593	97
562.805	89
563.017	102
563.229	100
563.441	101
563.653	95
563.865	96
564.077	101
564.289	95
564.501	105
564.713	95
564.925	101
565.137	106
565.349	91
565.561	93
565.773	97
565.985	83
566.197	91
566.408	94
566.62	98
566.832	103
567.044	97
567.255	100
567.467	107
567.679	79
567.891	82
568.102	101
568.314	97
568.526	90
568.737	92
568.949	97
569.161	90
569.372	70
569.584	91
569.795	89
570.007	82
570.218	91
570.43	91
570.641	99
570.853	97
571.064	99
571.276	86
571.487	92
571.698	84
571.91	92
572.121	91
572.333	95
572.544	94
572.755	91
572.966	87
573.178	81
573.389	100
573.6	77
573.811	84
574.023	93
574.234	76
574.445	93
574.656	75
574.867	81
575.078	93
575.289	91
575.501	80
575.712	93
575.923	102
576.134	78
576.345	97
576.556	107
576.767	101
576.978	90
577.188	86
577.399	94
577.61	93
577.821	84
578.032	83
578.243	92
578.454	81
578.665	92
578.875	73
579.086	92
579.297	90
579.508	74
579.718	99
579.929	93
580.14	87
580.35	80
580.561	89
580.772	86
580.982	71
581.193	86
581.403	85
581.614	90
581.825	80
582.035	94
582.246	95
582.456	87
582.667	79
582.877	79
583.087	77
583.298	91
583.508	86
583.719	86
583.929	90
584.139	94
584.35	85
584.56	86
584.77	79
584.981	76
585.191	90
585.401	102
585.611	88
585.821	93
586.032	94
586.242	76
586.452	83
586.662	92
586.872	71
587.082	77
587.292	86
587.502	94
587.713	83
587.923	97
588.133	82
588.343	95
588.553	86
588.762	100
588.972	98
589.182	76
589.392	82
589.602	90
589.812	59
590.022	93
590.232	86
590.441	85
590.651	104
590.861	78
591.071	84
591.281	107
591.49	100
591.7	91
591.91	85
592.119	88
592.329	87
592.539	89
592.748	91
592.958	78
593.167	87
593.377	99
593.587	97
593.796	89
594.006	92
594.215	93
594.424	89
594.634	94
594.843	91
595.053	102
595.262	89
595.472	89
595.681	87
595.89	94
596.1	86
596.309	86
596.518	79
596.727	85
596.937	89
597.146	74
597.355	90
597.564	92
597.774	80
597.983	84
598.192	79
598.401	78
598.61	94
598.819	94
599.028	83
599.237	79
599.446	86
599.655	87
599.864	98
600.073	90
600.282	78
600.491	91
600.7	76
600.909	93
601.118	91
601.327	86
601.536	96
601.745	85
601.953	90
602.162	90
602.371	76
602.58	96
602.789	94
602.997	91
603.206	105
603.415	87
603.623	99
603.832	88
604.041	97
604.249	77
604.458	95
604.666	85
604.875	90
605.084	85
605.292	91
605.501	83
605.709	87
605.918	79
606.126	94
606.334	76
606.543	107
606.751	88
606.96	109
607.168	100
607.376	88
607.585	95
607.793	102
608.001	102
608.21	90
608.418	106
608.626	82
608.834	100
609.043	107
609.251	96
609.459	97
609.667	91
609.875	84
610.083	102
610.291	104
610.499	93
610.707	102
610.916	99
611.124	89
611.332	101
611.54	102
611.748	91
611.955	92
612.163	86
612.371	90
612.579	75
612.787	84
612.995	100
613.203	97
613.411	100
613.618	102
613.826	100
614.034	84
614.242	92
614.449	98
614.657	112
614.865	89
615.072	102
615.28	78
615.488	102
615.695	100
615.903	91
616.111	83
616.318	94
616.526	118
616.733	78
616.941	90
617.148	105
617.356	86
617.563	92
617.771	85
617.978	93
618.185	101
618.393	98
618.6	92
618.807	91
619.015	97
619.222	86
619.429	86
619.637	97
619.844	97
620.051	84
620.258	83
620.466	97
620.673	108
620.88	88
621.087	87
621.294	91
621.501	85
621.708	69
621.915	86
622.122	97
622.329	97
622.536	82
622.743	93
622.95	93
623.157	87
623.364	99
623.571	92
623.778	88
623.985	90
624.192	102
624.399	81
624.606	100
624.812	91
625.019	93
625.226	85
625.433	94
625.639	91
625.846	76
626.053	87
626.259	88
626.466	90
626.673	93
626.879	104
627.086	92
627.293	109
627.499	95
627.706	95
627.912	93
628.119	93
628.325	92
628.532	87
628.738	91
628.945	102
629.151	98
629.357	92
629.564	87
629.77	82
629.976	74
630.183	90
630.389	88
630.595	87
630.802	76
631.008	87
631.214	83
631.42	96
631.627	83
631.833	68
632.039	90
632.245	85
632.451	80
632.657	106
632.863	96
633.069	98
633.275	94
633.481	92
633.688	79
633.893	85
634.099	86
634.305	91
634.511	93
634.717	81
634.923	86
635.129	79
635.335	83
635.541	93
635.747	83
635.952	85
636.158	70
636.364	93
636.57	93
636.775	74
636.981	91
637.187	95
637.392	99
637.598	90
637.804	88
638.009	78
638.215	97
638.421	97
638.626	85
638.832	93
639.037	95
639.243	85
639.448	86
639.654	88
639.859	94
640.065	82
640.27	93
640.475	88
640.681	92
640.886	79
641.091	90
641.297	104
641.502	105
641.707	80
641.913	86
642.118	79
642.323	83
642.528	78
642.733	105
642.939	78
643.144	85
643.349	89
643.554	78
643.759	90
643.964	91
644.169	94
644.374	90
644.579	93
644.784	84
644.989	89
645.194	79
645.399	81
645.604	83
645.809	102
646.014	89
646.219	85
646.423	77
646.628	85
646.833	69
647.038	79
647.243	90
647.447	89
647.652	97
647.857	92
648.062	90
648.266	81
648.471	90
648.676	101
648.88	81
649.085	106
649.289	99
649.494	85
649.698	96
649.903	91
650.107	90
650.312	86
650.516	91
650.721	88
650.925	90
651.13	82
651.334	89
651.539	91
651.743	78
651.947	90
652.152	81
652.356	81
652.56	90
652.764	80
652.969	99
653.173	91
653.377	83
653.581	71
653.785	94
653.99	75
654.194	86
654.398	90
654.602	84
654.806	84
655.01	87
655.214	79
655.418	85
655.622	85
655.826	80
656.03	87
656.234	88
656.438	83
656.642	88
656.846	81
657.049	98
657.253	85
657.457	77
657.661	89
657.865	82
658.068	83
658.272	85
658.476	95
658.68	85
658.883	86
659.087	78
659.291	79
659.494	77
659.698	85
659.901	84
660.105	83
660.309	76
660.512	93
660.716	73
660.919	84
661.123	86
661.326	84
661.53	88
661.733	85
661.936	88
662.14	90
662.343	85
662.546	87
662.75	79
662.953	81
663.156	83
663.36	101
663.563	101
663.766	81
663.969	74
664.173	71
664.376	87
664.579	86
664.782	81
664.985	87
665.188	76
665.391	88
665.594	83
665.797	83
666	95
666.203	82
666.406	66
666.609	87
666.812	80
667.015	83
667.218	88
667.421	91
667.624	76
667.827	90
668.03	88
668.232	78
668.435	79
668.638	88
668.841	81
669.043	78
669.246	81
669.449	75
669.651	75
669.854	83
670.057	78
670.259	81
670.462	89
670.665	90
670.867	96
671.07	80
671.272	81
671.475	87
671.677	87
671.88	82
672.082	98
672.284	88
672.487	80
672.689	71
672.892	94
