Data from Location5.07152019.Energy5.Lamp.07192019.3%Agarose_HRD10591_15-38-29-389.txt Node
Date: Fri Jul 19 15:38:29 EDT 2019
User: cochatt
Spectrometer: HR+D1059
Trigger mode: 1
Integration Time (sec): 1.000000E-1
Scans to average: 1
Electric dark correction enabled: true
Nonlinearity correction enabled: false
Boxcar width: 0
XAxis mode: Wavelengths
Number of Pixels in Spectrum: 2048
>>>>>Begin Spectral Data<<<<<
223.165	-21
223.4	-21
223.635	-21
223.869	-15
224.104	-18
224.338	-17
224.573	-19
224.808	-16
225.042	-18
225.277	-2
225.511	-2
225.746	4
225.98	8
226.215	8
226.449	27
226.683	17
226.918	26
227.152	38
227.387	33
227.621	39
227.856	40
228.09	45
228.324	47
228.559	47
228.793	49
229.027	56
229.262	72
229.496	64
229.73	61
229.964	61
230.199	71
230.433	82
230.667	65
230.901	76
231.136	83
231.37	66
231.604	86
231.838	77
232.072	77
232.306	80
232.541	84
232.775	89
233.009	82
233.243	59
233.477	83
233.711	77
233.945	70
234.179	74
234.413	81
234.647	89
234.881	76
235.115	75
235.349	75
235.583	93
235.817	79
236.051	69
236.285	62
236.519	79
236.753	66
236.987	73
237.221	77
237.455	68
237.689	73
237.922	64
238.156	69
238.39	69
238.624	76
238.858	72
239.091	66
239.325	72
239.559	81
239.793	67
240.027	83
240.26	68
240.494	103
240.728	75
240.961	68
241.195	93
241.429	79
241.662	80
241.896	69
242.13	70
242.363	87
242.597	71
242.83	87
243.064	78
243.298	80
243.531	65
243.765	80
243.998	73
244.232	74
244.465	82
244.699	91
244.932	68
245.166	68
245.399	73
245.633	86
245.866	69
246.099	68
246.333	76
246.566	58
246.8	75
247.033	88
247.266	81
247.5	64
247.733	85
247.966	65
248.2	74
248.433	79
248.666	70
248.899	79
249.133	77
249.366	73
249.599	89
249.832	87
250.066	86
250.299	81
250.532	68
250.765	79
250.998	83
251.231	81
251.465	65
251.698	80
251.931	73
252.164	84
252.397	77
252.63	81
252.863	67
253.096	81
253.329	81
253.562	86
253.795	76
254.028	76
254.261	79
254.494	79
254.727	85
254.96	79
255.193	88
255.426	67
255.659	74
255.892	81
256.124	94
256.357	93
256.59	74
256.823	75
257.056	81
257.289	80
257.521	83
257.754	83
257.987	72
258.22	67
258.452	73
258.685	72
258.918	68
259.151	83
259.383	82
259.616	71
259.849	80
260.081	81
260.314	78
260.547	67
260.779	66
261.012	78
261.244	81
261.477	83
261.71	83
261.942	79
262.175	84
262.407	81
262.64	67
262.872	67
263.105	82
263.337	98
263.57	78
263.802	90
264.035	72
264.267	74
264.499	74
264.732	92
264.964	80
265.197	79
265.429	65
265.661	80
265.894	81
266.126	88
266.358	65
266.591	77
266.823	84
267.055	78
267.287	78
267.52	68
267.752	81
267.984	74
268.216	89
268.448	84
268.681	81
268.913	76
269.145	81
269.377	83
269.609	71
269.841	86
270.073	70
270.306	84
270.538	89
270.77	66
271.002	85
271.234	73
271.466	79
271.698	79
271.93	88
272.162	101
272.394	69
272.626	82
272.858	71
273.09	82
273.322	79
273.553	71
273.785	90
274.017	78
274.249	78
274.481	82
274.713	81
274.945	84
275.176	79
275.408	86
275.64	96
275.872	80
276.104	76
276.335	89
276.567	87
276.799	80
277.031	84
277.262	82
277.494	89
277.726	81
277.957	88
278.189	90
278.421	84
278.652	92
278.884	84
279.115	88
279.347	81
279.579	82
279.81	78
280.042	99
280.273	80
280.505	87
280.736	75
280.968	78
281.199	77
281.431	68
281.662	75
281.894	85
282.125	80
282.356	76
282.588	91
282.819	81
283.051	83
283.282	87
283.513	100
283.745	85
283.976	85
284.207	88
284.439	85
284.67	71
284.901	79
285.132	91
285.364	78
285.595	80
285.826	71
286.057	77
286.288	80
286.52	73
286.751	83
286.982	94
287.213	79
287.444	83
287.675	83
287.906	80
288.138	80
288.369	85
288.6	77
288.831	81
289.062	80
289.293	96
289.524	79
289.755	87
289.986	88
290.217	87
290.448	90
290.679	87
290.91	87
291.141	81
291.371	95
291.602	91
291.833	93
292.064	89
292.295	74
292.526	74
292.757	65
292.987	80
293.218	64
293.449	86
293.68	77
293.91	83
294.141	77
294.372	81
294.603	94
294.833	84
295.064	98
295.295	79
295.525	85
295.756	73
295.987	70
296.217	80
296.448	87
296.679	73
296.909	77
297.14	75
297.37	80
297.601	80
297.831	71
298.062	72
298.292	85
298.523	86
298.753	83
298.984	96
299.214	87
299.445	68
299.675	81
299.905	84
300.136	87
300.366	86
300.597	89
300.827	78
301.057	81
301.288	89
301.518	73
301.748	78
301.979	74
302.209	85
302.439	63
302.669	93
302.9	92
303.13	91
303.36	78
303.59	90
303.82	86
304.051	85
304.281	82
304.511	89
304.741	80
304.971	84
305.201	88
305.431	86
305.661	98
305.891	95
306.121	91
306.352	91
306.582	86
306.812	93
307.042	78
307.272	82
307.502	73
307.731	68
307.961	78
308.191	80
308.421	87
308.651	81
308.881	84
309.111	75
309.341	86
309.571	91
309.8	86
310.03	97
310.26	73
310.49	90
310.72	86
310.949	96
311.179	81
311.409	84
311.639	93
311.868	98
312.098	81
312.328	95
312.557	63
312.787	93
313.017	93
313.246	78
313.476	80
313.706	75
313.935	79
314.165	72
314.394	83
314.624	65
314.853	97
315.083	84
315.312	74
315.542	77
315.771	90
316.001	86
316.23	85
316.46	80
316.689	73
316.919	77
317.148	78
317.377	83
317.607	81
317.836	81
318.065	83
318.295	87
318.524	94
318.753	86
318.983	96
319.212	78
319.441	72
319.67	93
319.9	86
320.129	82
320.358	74
320.587	67
320.816	101
321.046	85
321.275	86
321.504	91
321.733	82
321.962	78
322.191	78
322.42	64
322.649	83
322.878	95
323.108	79
323.337	98
323.566	90
323.795	79
324.024	77
324.253	85
324.482	73
324.71	80
324.939	83
325.168	79
325.397	82
325.626	89
325.855	91
326.084	86
326.313	80
326.542	77
326.77	83
326.999	91
327.228	75
327.457	95
327.686	88
327.914	77
328.143	82
328.372	72
328.6	80
328.829	71
329.058	84
329.287	79
329.515	87
329.744	84
329.972	86
330.201	76
330.43	93
330.658	100
330.887	87
331.115	85
331.344	82
331.572	83
331.801	96
332.03	76
332.258	75
332.486	80
332.715	86
332.943	81
333.172	78
333.4	70
333.629	74
333.857	72
334.085	66
334.314	89
334.542	86
334.771	72
334.999	90
335.227	82
335.455	93
335.684	82
335.912	100
336.14	82
336.369	66
336.597	75
336.825	84
337.053	80
337.281	82
337.51	75
337.738	97
337.966	90
338.194	66
338.422	90
338.65	74
338.878	78
339.106	71
339.334	87
339.562	86
339.79	87
340.018	63
340.246	79
340.474	81
340.702	86
340.93	85
341.158	83
341.386	83
341.614	72
341.842	88
342.07	84
342.298	76
342.526	66
342.754	86
342.981	82
343.209	78
343.437	80
343.665	86
343.893	91
344.12	86
344.348	78
344.576	79
344.804	73
345.031	81
345.259	67
345.487	81
345.714	85
345.942	74
346.17	73
346.397	100
346.625	83
346.853	62
347.08	83
347.308	80
347.535	82
347.763	73
347.99	73
348.218	89
348.445	86
348.673	79
348.9	91
349.128	82
349.355	81
349.583	85
349.81	91
350.037	82
350.265	80
350.492	71
350.72	73
350.947	86
351.174	95
351.402	93
351.629	85
351.856	73
352.083	75
352.311	83
352.538	80
352.765	87
352.992	89
353.22	76
353.447	73
353.674	79
353.901	81
354.128	80
354.355	78
354.583	81
354.81	80
355.037	96
355.264	73
355.491	90
355.718	76
355.945	88
356.172	87
356.399	71
356.626	84
356.853	85
357.08	87
357.307	81
357.534	89
357.761	79
357.988	78
358.215	85
358.441	77
358.668	74
358.895	76
359.122	85
359.349	92
359.576	83
359.802	76
360.029	83
360.256	89
360.483	80
360.709	74
360.936	88
361.163	77
361.39	82
361.616	96
361.843	72
362.07	83
362.296	71
362.523	80
362.749	77
362.976	86
363.203	91
363.429	87
363.656	86
363.882	89
364.109	85
364.335	75
364.562	69
364.788	85
365.015	81
365.241	80
365.468	86
365.694	83
365.92	74
366.147	78
366.373	78
366.599	79
366.826	81
367.052	81
367.278	86
367.505	91
367.731	85
367.957	73
368.184	78
368.41	87
368.636	91
368.862	85
369.089	79
369.315	74
369.541	75
369.767	91
369.993	65
370.219	72
370.445	82
370.672	80
370.898	87
371.124	68
371.35	73
371.576	88
371.802	83
372.028	80
372.254	76
372.48	83
372.706	72
372.932	85
373.158	99
373.384	75
373.61	75
373.835	83
374.061	71
374.287	80
374.513	76
374.739	83
374.965	87
375.191	93
375.416	74
375.642	80
375.868	81
376.094	81
376.319	96
376.545	86
376.771	72
376.997	72
377.222	82
377.448	100
377.674	85
377.899	86
378.125	83
378.35	79
378.576	85
378.802	97
379.027	82
379.253	79
379.478	80
379.704	101
379.929	86
380.155	80
380.38	80
380.606	75
380.831	88
381.057	100
381.282	79
381.507	77
381.733	80
381.958	75
382.184	93
382.409	78
382.634	94
382.86	84
383.085	85
383.31	81
383.535	71
383.761	78
383.986	87
384.211	87
384.436	83
384.662	89
384.887	82
385.112	75
385.337	86
385.562	85
385.787	90
386.013	103
386.238	70
386.463	88
386.688	90
386.913	83
387.138	86
387.363	81
387.588	80
387.813	76
388.038	84
388.263	85
388.488	81
388.713	69
388.938	95
389.163	88
389.387	83
389.612	73
389.837	81
390.062	76
390.287	92
390.512	96
390.736	81
390.961	89
391.186	89
391.411	76
391.636	82
391.86	81
392.085	80
392.31	98
392.534	85
392.759	94
392.984	91
393.208	95
393.433	82
393.658	74
393.882	80
394.107	83
394.331	83
394.556	85
394.78	79
395.005	79
395.229	85
395.454	84
395.678	81
395.903	63
396.127	87
396.352	90
396.576	91
396.801	83
397.025	87
397.249	94
397.474	74
397.698	93
397.922	85
398.147	97
398.371	80
398.595	95
398.82	93
399.044	101
399.268	96
399.492	80
399.717	99
399.941	69
400.165	94
400.389	98
400.613	63
400.837	90
401.062	77
401.286	87
401.51	83
401.734	82
401.958	87
402.182	94
402.406	83
402.63	86
402.854	73
403.078	87
403.302	91
403.526	82
403.75	100
403.974	81
404.198	95
404.422	96
404.645	74
404.869	89
405.093	65
405.317	92
405.541	79
405.765	67
405.988	79
406.212	75
406.436	80
406.66	97
406.883	107
407.107	84
407.331	79
407.555	81
407.778	82
408.002	88
408.226	91
408.449	90
408.673	81
408.896	78
409.12	86
409.344	78
409.567	82
409.791	98
410.014	99
410.238	97
410.461	92
410.685	93
410.908	88
411.132	90
411.355	86
411.578	98
411.802	92
412.025	85
412.249	94
412.472	84
412.695	89
412.919	91
413.142	90
413.365	95
413.589	87
413.812	94
414.035	77
414.258	98
414.482	73
414.705	84
414.928	92
415.151	74
415.374	82
415.597	83
415.821	76
416.044	74
416.267	65
416.49	89
416.713	83
416.936	93
417.159	91
417.382	91
417.605	83
417.828	103
418.051	90
418.274	84
418.497	86
418.72	91
418.943	89
419.166	95
419.389	101
419.611	89
419.834	101
420.057	82
420.28	93
420.503	78
420.726	84
420.948	84
421.171	94
421.394	87
421.617	96
421.839	87
422.062	99
422.285	98
422.507	87
422.73	77
422.953	88
423.175	92
423.398	89
423.621	89
423.843	93
424.066	89
424.288	97
424.511	105
424.733	88
424.956	94
425.178	93
425.401	89
425.623	102
425.846	83
426.068	85
426.291	77
426.513	87
426.735	91
426.958	84
427.18	88
427.402	110
427.625	87
427.847	86
428.069	105
428.292	92
428.514	114
428.736	102
428.958	93
429.181	67
429.403	85
429.625	96
429.847	89
430.069	87
430.292	98
430.514	98
430.736	91
430.958	94
431.18	94
431.402	82
431.624	98
431.846	78
432.068	92
432.29	88
432.512	79
432.734	81
432.956	97
433.178	85
433.4	92
433.622	83
433.844	88
434.066	93
434.287	89
434.509	87
434.731	83
434.953	88
435.175	93
435.397	79
435.618	96
435.84	72
436.062	79
436.284	72
436.505	84
436.727	89
436.949	111
437.17	93
437.392	101
437.614	103
437.835	80
438.057	100
438.278	94
438.5	87
438.721	90
438.943	85
439.165	92
439.386	97
439.608	106
439.829	94
440.05	97
440.272	101
440.493	86
440.715	79
440.936	97
441.158	94
441.379	96
441.6	93
441.822	95
442.043	93
442.264	91
442.486	94
442.707	91
442.928	90
443.149	97
443.371	102
443.592	87
443.813	94
444.034	85
444.255	87
444.476	95
444.698	89
444.919	89
445.14	221
445.361	152
445.582	99
445.803	94
446.024	86
446.245	99
446.466	93
446.687	88
446.908	89
447.129	109
447.35	87
447.571	102
447.792	95
448.013	86
448.234	106
448.455	90
448.675	97
448.896	106
449.117	91
449.338	93
449.559	96
449.779	77
450	87
450.221	85
450.442	93
450.662	98
450.883	83
451.104	87
451.324	90
451.545	84
451.766	94
451.986	95
452.207	78
452.428	88
452.648	89
452.869	95
453.089	79
453.31	88
453.53	91
453.751	89
453.971	74
454.192	95
454.412	83
454.633	86
454.853	90
455.073	89
455.294	86
455.514	89
455.734	91
455.955	73
456.175	80
456.395	81
456.616	100
456.836	85
457.056	86
457.276	89
457.497	82
457.717	85
457.937	90
458.157	86
458.377	94
458.598	90
458.818	65
459.038	79
459.258	89
459.478	72
459.698	82
459.918	82
460.138	75
460.358	85
460.578	100
460.798	74
461.018	90
461.238	90
461.458	83
461.678	90
461.898	79
462.118	87
462.338	79
462.558	84
462.777	84
462.997	84
463.217	93
463.437	107
463.657	75
463.876	83
464.096	85
464.316	88
464.536	103
464.755	83
464.975	73
465.195	93
465.414	102
465.634	85
465.854	97
466.073	81
466.293	92
466.512	99
466.732	94
466.951	87
467.171	95
467.391	100
467.61	89
467.829	82
468.049	93
468.268	93
468.488	88
468.707	93
468.927	84
469.146	79
469.365	81
469.585	83
469.804	91
470.023	89
470.243	86
470.462	103
470.681	91
470.901	88
471.12	85
471.339	84
471.558	85
471.777	97
471.997	100
472.216	95
472.435	84
472.654	92
472.873	80
473.092	81
473.311	72
473.53	86
473.749	90
473.968	89
474.187	107
474.406	110
474.625	100
474.844	99
475.063	81
475.282	109
475.501	75
475.72	91
475.939	93
476.158	96
476.377	87
476.596	95
476.814	79
477.033	85
477.252	90
477.471	93
477.69	87
477.908	92
478.127	99
478.346	107
478.564	101
478.783	85
479.002	95
479.22	98
479.439	92
479.658	89
479.876	85
480.095	85
480.313	81
480.532	98
480.751	83
480.969	99
481.188	82
481.406	83
481.624	84
481.843	83
482.061	101
482.28	94
482.498	93
482.717	83
482.935	79
483.153	102
483.372	106
483.59	104
483.808	90
484.027	110
484.245	106
484.463	77
484.681	105
484.9	86
485.118	97
485.336	94
485.554	93
485.772	98
485.99	86
486.209	94
486.427	88
486.645	93
486.863	85
487.081	99
487.299	92
487.517	104
487.735	99
487.953	99
488.171	117
488.389	109
488.607	101
488.825	84
489.043	91
489.261	98
489.479	96
489.696	95
489.914	97
490.132	94
490.35	85
490.568	113
490.786	111
491.003	105
491.221	102
491.439	103
491.657	130
491.874	107
492.092	107
492.31	125
492.527	129
492.745	112
492.963	110
493.18	103
493.398	120
493.615	118
493.833	105
494.05	107
494.268	102
494.485	109
494.703	109
494.92	108
495.138	118
495.355	97
495.573	114
495.79	106
496.008	106
496.225	99
496.442	97
496.66	100
496.877	103
497.094	99
497.312	110
497.529	102
497.746	105
497.963	101
498.181	102
498.398	87
498.615	85
498.832	85
499.049	89
499.267	79
499.484	83
499.701	100
499.918	106
500.135	88
500.352	93
500.569	101
500.786	102
501.003	95
501.22	91
501.437	92
501.654	98
501.871	104
502.088	88
502.305	97
502.522	96
502.739	95
502.956	105
503.172	83
503.389	96
503.606	89
503.823	90
504.04	94
504.256	85
504.473	86
504.69	92
504.907	106
505.123	84
505.34	82
505.557	87
505.773	89
505.99	93
506.207	96
506.423	84
506.64	90
506.856	84
507.073	86
507.289	107
507.506	92
507.722	91
507.939	80
508.155	93
508.372	83
508.588	97
508.805	97
509.021	90
509.238	81
509.454	87
509.67	84
509.887	75
510.103	84
510.319	87
510.536	87
510.752	92
510.968	83
511.184	79
511.401	79
511.617	72
511.833	86
512.049	87
512.265	85
512.481	86
512.698	80
512.914	79
513.13	83
513.346	85
513.562	83
513.778	75
513.994	81
514.21	81
514.426	84
514.642	109
514.858	83
515.074	94
515.29	83
515.506	79
515.721	76
515.937	84
516.153	70
516.369	86
516.585	63
516.801	77
517.016	79
517.232	90
517.448	80
517.664	85
517.879	91
518.095	75
518.311	76
518.527	90
518.742	86
518.958	81
519.173	82
519.389	86
519.605	90
519.82	82
520.036	90
520.251	98
520.467	109
520.682	86
520.898	87
521.113	82
521.329	78
521.544	95
521.76	85
521.975	78
522.19	78
522.406	69
522.621	73
522.836	85
523.052	98
523.267	94
523.482	87
523.698	92
523.913	84
524.128	85
524.343	96
524.559	86
524.774	103
524.989	101
525.204	106
525.419	97
525.634	78
525.849	80
526.064	95
526.28	97
526.495	82
526.71	70
526.925	83
527.14	83
527.355	86
527.57	74
527.785	84
527.999	70
528.214	67
528.429	86
528.644	86
528.859	92
529.074	85
529.289	97
529.503	95
529.718	93
529.933	88
530.148	75
530.363	86
530.577	73
530.792	85
531.007	83
531.221	81
531.436	75
531.651	79
531.865	73
532.08	78
532.295	80
532.509	84
532.724	86
532.938	95
533.153	85
533.367	85
533.582	90
533.796	86
534.011	89
534.225	98
534.44	91
534.654	84
534.868	74
535.083	95
535.297	88
535.511	80
535.726	82
535.94	78
536.154	88
536.369	94
536.583	87
536.797	83
537.011	86
537.225	84
537.44	84
537.654	98
537.868	78
538.082	84
538.296	66
538.51	92
538.724	89
538.938	90
539.153	84
539.367	88
539.581	94
539.795	75
540.009	90
540.222	81
540.436	85
540.65	89
540.864	89
541.078	92
541.292	112
541.506	115
541.72	102
541.934	108
542.147	103
542.361	97
542.575	98
542.789	104
543.002	96
543.216	90
543.43	76
543.644	98
543.857	96
544.071	103
544.285	105
544.498	106
544.712	95
544.925	113
545.139	112
545.352	95
545.566	97
545.779	97
545.993	105
546.206	94
546.42	96
546.633	106
546.847	99
547.06	99
547.274	124
547.487	104
547.7	114
547.914	104
548.127	111
548.34	100
548.554	101
548.767	103
548.98	93
549.193	97
549.407	99
549.62	101
549.833	94
550.046	91
550.259	97
550.473	100
550.686	104
550.899	105
551.112	109
551.325	82
551.538	98
551.751	96
551.964	101
552.177	84
552.39	99
552.603	86
552.816	115
553.029	102
553.242	107
553.455	98
553.667	104
553.88	97
554.093	98
554.306	90
554.519	102
554.732	102
554.944	99
555.157	104
555.37	98
555.583	98
555.795	93
556.008	94
556.221	94
556.433	94
556.646	88
556.859	103
557.071	98
557.284	102
557.496	106
557.709	91
557.921	97
558.134	70
558.346	91
558.559	94
558.771	89
558.984	93
559.196	95
559.409	82
559.621	99
559.833	93
560.046	88
560.258	99
560.47	107
560.683	87
560.895	97
561.107	89
561.32	90
561.532	96
561.744	95
561.956	108
562.168	87
562.381	105
562.593	106
562.805	88
563.017	86
563.229	104
563.441	98
563.653	97
563.865	99
564.077	84
564.289	95
564.501	93
564.713	84
564.925	87
565.137	88
565.349	82
565.561	105
565.773	95
565.985	86
566.197	88
566.408	88
566.62	99
566.832	111
567.044	104
567.255	107
567.467	89
567.679	83
567.891	93
568.102	96
568.314	83
568.526	71
568.737	87
568.949	76
569.161	85
569.372	74
569.584	75
569.795	94
570.007	91
570.218	83
570.43	92
570.641	82
570.853	79
571.064	82
571.276	89
571.487	84
571.698	95
571.91	98
572.121	86
572.333	75
572.544	86
572.755	100
572.966	89
573.178	86
573.389	78
573.6	89
573.811	82
574.023	78
574.234	97
574.445	89
574.656	79
574.867	73
575.078	88
575.289	86
575.501	83
575.712	81
575.923	83
576.134	86
576.345	71
576.556	76
576.767	88
576.978	90
577.188	90
577.399	76
577.61	106
577.821	97
578.032	86
578.243	89
578.454	95
578.665	83
578.875	89
579.086	98
579.297	84
579.508	84
579.718	98
579.929	98
580.14	88
580.35	89
580.561	77
580.772	87
580.982	83
581.193	70
581.403	87
581.614	92
581.825	85
582.035	79
582.246	73
582.456	98
582.667	90
582.877	84
583.087	82
583.298	82
583.508	96
583.719	81
583.929	85
584.139	75
584.35	82
584.56	89
584.77	69
584.981	90
585.191	79
585.401	81
585.611	71
585.821	76
586.032	95
586.242	97
586.452	86
586.662	93
586.872	81
587.082	85
587.292	81
587.502	86
587.713	78
587.923	85
588.133	89
588.343	82
588.553	90
588.762	89
588.972	75
589.182	78
589.392	85
589.602	95
589.812	74
590.022	87
590.232	82
590.441	82
590.651	76
590.861	81
591.071	89
591.281	80
591.49	70
591.7	86
591.91	87
592.119	84
592.329	97
592.539	84
592.748	82
592.958	87
593.167	91
593.377	78
593.587	87
593.796	80
594.006	88
594.215	79
594.424	81
594.634	77
594.843	93
595.053	75
595.262	87
595.472	98
595.681	67
595.89	73
596.1	83
596.309	89
596.518	88
596.727	85
596.937	77
597.146	93
597.355	90
597.564	79
597.774	101
597.983	81
598.192	82
598.401	81
598.61	71
598.819	76
599.028	71
599.237	79
599.446	80
599.655	81
599.864	86
600.073	91
600.282	75
600.491	80
600.7	87
600.909	80
601.118	85
601.327	85
601.536	84
601.745	84
601.953	100
602.162	91
602.371	82
602.58	84
602.789	91
602.997	90
603.206	102
603.415	95
603.623	78
603.832	94
604.041	78
604.249	89
604.458	83
604.666	91
604.875	80
605.084	95
605.292	90
605.501	83
605.709	98
605.918	85
606.126	103
606.334	81
606.543	83
606.751	96
606.96	102
607.168	94
607.376	92
607.585	83
607.793	98
608.001	87
608.21	76
608.418	87
608.626	98
608.834	105
609.043	91
609.251	96
609.459	87
609.667	101
609.875	89
610.083	102
610.291	88
610.499	72
610.707	87
610.916	87
611.124	93
611.332	90
611.54	71
611.748	106
611.955	86
612.163	89
612.371	90
612.579	89
612.787	85
612.995	91
613.203	103
613.411	96
613.618	82
613.826	84
614.034	90
614.242	80
614.449	78
614.657	90
614.865	93
615.072	95
615.28	88
615.488	83
615.695	91
615.903	86
616.111	99
616.318	96
616.526	85
616.733	106
616.941	89
617.148	85
617.356	99
617.563	99
617.771	96
617.978	81
618.185	101
618.393	69
618.6	85
618.807	93
619.015	93
619.222	89
619.429	80
619.637	83
619.844	84
620.051	96
620.258	80
620.466	94
620.673	81
620.88	89
621.087	87
621.294	81
621.501	94
621.708	96
621.915	74
622.122	91
622.329	72
622.536	102
622.743	92
622.95	93
623.157	90
623.364	93
623.571	92
623.778	86
623.985	93
624.192	85
624.399	95
624.606	84
624.812	94
625.019	84
625.226	96
625.433	72
625.639	82
625.846	85
626.053	93
626.259	83
626.466	74
626.673	77
626.879	91
627.086	91
627.293	91
627.499	87
627.706	79
627.912	86
628.119	85
628.325	94
628.532	65
628.738	95
628.945	77
629.151	77
629.357	86
629.564	72
629.77	88
629.976	99
630.183	87
630.389	77
630.595	74
630.802	93
631.008	81
631.214	102
631.42	82
631.627	92
631.833	101
632.039	75
632.245	93
632.451	91
632.657	82
632.863	95
633.069	86
633.275	88
633.481	87
633.688	74
633.893	86
634.099	103
634.305	83
634.511	86
634.717	81
634.923	85
635.129	89
635.335	87
635.541	75
635.747	97
635.952	83
636.158	76
636.364	96
636.57	85
636.775	86
636.981	84
637.187	82
637.392	86
637.598	94
637.804	87
638.009	100
638.215	86
638.421	93
638.626	81
638.832	88
639.037	82
639.243	76
639.448	85
639.654	94
639.859	86
640.065	78
640.27	96
640.475	78
640.681	81
640.886	83
641.091	79
641.297	80
641.502	86
641.707	85
641.913	83
642.118	78
642.323	93
642.528	96
642.733	88
642.939	90
643.144	96
643.349	95
643.554	81
643.759	89
643.964	83
644.169	84
644.374	82
644.579	88
644.784	82
644.989	82
645.194	76
645.399	77
645.604	83
645.809	84
646.014	84
646.219	83
646.423	93
646.628	68
646.833	85
647.038	82
647.243	83
647.447	79
647.652	89
647.857	99
648.062	81
648.266	75
648.471	94
648.676	90
648.88	80
649.085	85
649.289	84
649.494	82
649.698	85
649.903	108
650.107	92
650.312	89
650.516	82
650.721	102
650.925	86
651.13	65
651.334	84
651.539	102
651.743	95
651.947	97
652.152	87
652.356	102
652.56	76
652.764	88
652.969	83
653.173	100
653.377	87
653.581	74
653.785	81
653.99	79
654.194	68
654.398	86
654.602	103
654.806	100
655.01	65
655.214	86
655.418	69
655.622	86
655.826	81
656.03	70
656.234	93
656.438	79
656.642	69
656.846	78
657.049	96
657.253	89
657.457	86
657.661	89
657.865	81
658.068	62
658.272	80
658.476	80
658.68	82
658.883	95
659.087	83
659.291	71
659.494	82
659.698	79
659.901	80
660.105	72
660.309	68
660.512	80
660.716	86
660.919	82
661.123	84
661.326	78
661.53	90
661.733	81
661.936	86
662.14	87
662.343	82
662.546	81
662.75	86
662.953	81
663.156	74
663.36	91
663.563	87
663.766	89
663.969	82
664.173	89
664.376	79
664.579	83
664.782	86
664.985	79
665.188	76
665.391	82
665.594	80
665.797	84
666	82
666.203	75
666.406	79
666.609	94
666.812	65
667.015	75
667.218	81
667.421	86
667.624	78
667.827	82
668.03	72
668.232	80
668.435	75
668.638	72
668.841	71
669.043	73
669.246	84
669.449	64
669.651	75
669.854	90
670.057	74
670.259	85
670.462	80
670.665	79
670.867	75
671.07	82
671.272	91
671.475	86
671.677	95
671.88	81
672.082	83
672.284	94
672.487	86
672.689	78
672.892	78
