Data from Location5.07152019.Energy5.Lamp.07192019.3%Agarose_HRD10591_16-05-08-630.txt Node
Date: Fri Jul 19 16:05:08 EDT 2019
User: cochatt
Spectrometer: HR+D1059
Trigger mode: 1
Integration Time (sec): 1.000000E-1
Scans to average: 1
Electric dark correction enabled: true
Nonlinearity correction enabled: false
Boxcar width: 0
XAxis mode: Wavelengths
Number of Pixels in Spectrum: 2048
>>>>>Begin Spectral Data<<<<<
223.165	-12
223.4	-12
223.635	-12
223.869	-16
224.104	-25
224.338	-16
224.573	-9
224.808	-12
225.042	-18
225.277	-5
225.511	5
225.746	-5
225.98	-1
226.215	26
226.449	7
226.683	34
226.918	21
227.152	26
227.387	36
227.621	36
227.856	33
228.09	47
228.324	38
228.559	51
228.793	59
229.027	55
229.262	77
229.496	61
229.73	64
229.964	67
230.199	93
230.433	68
230.667	77
230.901	65
231.136	72
231.37	75
231.604	84
231.838	79
232.072	93
232.306	89
232.541	79
232.775	95
233.009	81
233.243	76
233.477	74
233.711	90
233.945	72
234.179	91
234.413	104
234.647	76
234.881	82
235.115	70
235.349	79
235.583	91
235.817	72
236.051	76
236.285	83
236.519	74
236.753	75
236.987	78
237.221	85
237.455	84
237.689	70
237.922	66
238.156	85
238.39	85
238.624	78
238.858	75
239.091	74
239.325	69
239.559	63
239.793	69
240.027	86
240.26	67
240.494	61
240.728	77
240.961	85
241.195	70
241.429	51
241.662	71
241.896	86
242.13	85
242.363	75
242.597	79
242.83	75
243.064	77
243.298	65
243.531	93
243.765	76
243.998	78
244.232	66
244.465	83
244.699	79
244.932	89
245.166	87
245.399	74
245.633	72
245.866	68
246.099	71
246.333	74
246.566	90
246.8	74
247.033	86
247.266	78
247.5	81
247.733	83
247.966	82
248.2	86
248.433	81
248.666	66
248.899	66
249.133	84
249.366	77
249.599	82
249.832	81
250.066	80
250.299	82
250.532	68
250.765	78
250.998	81
251.231	87
251.465	85
251.698	77
251.931	76
252.164	83
252.397	74
252.63	69
252.863	72
253.096	70
253.329	78
253.562	85
253.795	90
254.028	74
254.261	83
254.494	66
254.727	86
254.96	98
255.193	83
255.426	75
255.659	71
255.892	90
256.124	85
256.357	64
256.59	93
256.823	71
257.056	88
257.289	80
257.521	92
257.754	98
257.987	86
258.22	75
258.452	89
258.685	81
258.918	81
259.151	69
259.383	72
259.616	86
259.849	84
260.081	79
260.314	90
260.547	68
260.779	84
261.012	83
261.244	98
261.477	97
261.71	92
261.942	97
262.175	80
262.407	90
262.64	89
262.872	85
263.105	87
263.337	77
263.57	86
263.802	84
264.035	78
264.267	99
264.499	83
264.732	66
264.964	81
265.197	96
265.429	89
265.661	87
265.894	88
266.126	83
266.358	81
266.591	78
266.823	86
267.055	95
267.287	84
267.52	97
267.752	79
267.984	86
268.216	74
268.448	89
268.681	84
268.913	95
269.145	85
269.377	86
269.609	68
269.841	84
270.073	68
270.306	80
270.538	75
270.77	78
271.002	82
271.234	86
271.466	87
271.698	81
271.93	87
272.162	97
272.394	91
272.626	82
272.858	88
273.09	83
273.322	89
273.553	94
273.785	97
274.017	84
274.249	90
274.481	90
274.713	80
274.945	88
275.176	89
275.408	102
275.64	85
275.872	95
276.104	77
276.335	84
276.567	85
276.799	94
277.031	92
277.262	94
277.494	79
277.726	97
277.957	74
278.189	85
278.421	93
278.652	86
278.884	94
279.115	84
279.347	86
279.579	83
279.81	85
280.042	90
280.273	99
280.505	104
280.736	92
280.968	88
281.199	83
281.431	85
281.662	86
281.894	89
282.125	74
282.356	92
282.588	83
282.819	97
283.051	81
283.282	100
283.513	97
283.745	89
283.976	87
284.207	83
284.439	84
284.67	80
284.901	99
285.132	81
285.364	91
285.595	82
285.826	74
286.057	93
286.288	90
286.52	94
286.751	79
286.982	106
287.213	76
287.444	89
287.675	93
287.906	94
288.138	85
288.369	85
288.6	93
288.831	71
289.062	90
289.293	105
289.524	77
289.755	85
289.986	89
290.217	94
290.448	106
290.679	100
290.91	88
291.141	98
291.371	88
291.602	85
291.833	90
292.064	81
292.295	76
292.526	83
292.757	89
292.987	81
293.218	99
293.449	99
293.68	82
293.91	82
294.141	91
294.372	97
294.603	90
294.833	97
295.064	67
295.295	81
295.525	87
295.756	103
295.987	78
296.217	89
296.448	85
296.679	86
296.909	81
297.14	92
297.37	97
297.601	99
297.831	95
298.062	84
298.292	93
298.523	88
298.753	82
298.984	97
299.214	78
299.445	97
299.675	86
299.905	91
300.136	88
300.366	77
300.597	93
300.827	101
301.057	88
301.288	104
301.518	84
301.748	110
301.979	105
302.209	95
302.439	98
302.669	91
302.9	102
303.13	85
303.36	77
303.59	90
303.82	100
304.051	107
304.281	99
304.511	78
304.741	84
304.971	83
305.201	80
305.431	88
305.661	93
305.891	84
306.121	84
306.352	77
306.582	90
306.812	92
307.042	100
307.272	72
307.502	76
307.731	94
307.961	85
308.191	87
308.421	85
308.651	80
308.881	73
309.111	82
309.341	81
309.571	91
309.8	86
310.03	96
310.26	86
310.49	84
310.72	80
310.949	96
311.179	94
311.409	104
311.639	90
311.868	97
312.098	103
312.328	87
312.557	78
312.787	88
313.017	103
313.246	94
313.476	105
313.706	88
313.935	93
314.165	105
314.394	90
314.624	99
314.853	90
315.083	94
315.312	99
315.542	99
315.771	90
316.001	98
316.23	97
316.46	91
316.689	84
316.919	89
317.148	94
317.377	90
317.607	83
317.836	81
318.065	102
318.295	102
318.524	82
318.753	94
318.983	103
319.212	97
319.441	98
319.67	93
319.9	89
320.129	96
320.358	89
320.587	86
320.816	75
321.046	106
321.275	97
321.504	87
321.733	83
321.962	77
322.191	86
322.42	97
322.649	94
322.878	100
323.108	85
323.337	83
323.566	100
323.795	87
324.024	79
324.253	89
324.482	105
324.71	98
324.939	93
325.168	94
325.397	107
325.626	96
325.855	80
326.084	90
326.313	86
326.542	87
326.77	97
326.999	90
327.228	94
327.457	65
327.686	104
327.914	103
328.143	102
328.372	105
328.6	97
328.829	97
329.058	95
329.287	96
329.515	81
329.744	107
329.972	93
330.201	84
330.43	82
330.658	87
330.887	83
331.115	84
331.344	90
331.572	77
331.801	97
332.03	101
332.258	85
332.486	85
332.715	101
332.943	92
333.172	102
333.4	101
333.629	111
333.857	102
334.085	83
334.314	103
334.542	97
334.771	85
334.999	100
335.227	114
335.455	94
335.684	92
335.912	106
336.14	88
336.369	102
336.597	100
336.825	98
337.053	107
337.281	93
337.51	95
337.738	85
337.966	93
338.194	95
338.422	88
338.65	99
338.878	95
339.106	97
339.334	114
339.562	101
339.79	83
340.018	96
340.246	97
340.474	94
340.702	87
340.93	96
341.158	94
341.386	85
341.614	95
341.842	89
342.07	107
342.298	95
342.526	89
342.754	101
342.981	92
343.209	89
343.437	93
343.665	81
343.893	88
344.12	96
344.348	84
344.576	77
344.804	94
345.031	94
345.259	95
345.487	95
345.714	84
345.942	85
346.17	91
346.397	82
346.625	79
346.853	102
347.08	110
347.308	83
347.535	95
347.763	101
347.99	82
348.218	101
348.445	95
348.673	100
348.9	99
349.128	85
349.355	86
349.583	85
349.81	84
350.037	76
350.265	93
350.492	96
350.72	96
350.947	98
351.174	85
351.402	78
351.629	81
351.856	80
352.083	87
352.311	84
352.538	83
352.765	80
352.992	88
353.22	102
353.447	98
353.674	79
353.901	75
354.128	103
354.355	84
354.583	81
354.81	88
355.037	95
355.264	92
355.491	82
355.718	78
355.945	97
356.172	81
356.399	76
356.626	84
356.853	113
357.08	85
357.307	89
357.534	100
357.761	94
357.988	82
358.215	101
358.441	86
358.668	90
358.895	74
359.122	92
359.349	90
359.576	95
359.802	84
360.029	89
360.256	99
360.483	109
360.709	85
360.936	90
361.163	76
361.39	95
361.616	103
361.843	86
362.07	91
362.296	74
362.523	73
362.749	84
362.976	102
363.203	97
363.429	89
363.656	87
363.882	87
364.109	93
364.335	91
364.562	103
364.788	94
365.015	92
365.241	96
365.468	99
365.694	92
365.92	92
366.147	97
366.373	90
366.599	85
366.826	96
367.052	93
367.278	85
367.505	65
367.731	88
367.957	83
368.184	96
368.41	99
368.636	81
368.862	65
369.089	97
369.315	89
369.541	86
369.767	78
369.993	98
370.219	80
370.445	89
370.672	85
370.898	99
371.124	89
371.35	87
371.576	89
371.802	104
372.028	95
372.254	81
372.48	99
372.706	85
372.932	83
373.158	82
373.384	87
373.61	109
373.835	94
374.061	89
374.287	100
374.513	84
374.739	90
374.965	97
375.191	97
375.416	90
375.642	89
375.868	93
376.094	93
376.319	86
376.545	81
376.771	80
376.997	85
377.222	79
377.448	85
377.674	90
377.899	89
378.125	77
378.35	89
378.576	112
378.802	93
379.027	91
379.253	85
379.478	91
379.704	88
379.929	89
380.155	106
380.38	86
380.606	78
380.831	90
381.057	86
381.282	84
381.507	88
381.733	97
381.958	102
382.184	85
382.409	82
382.634	86
382.86	91
383.085	93
383.31	86
383.535	82
383.761	96
383.986	98
384.211	82
384.436	84
384.662	82
384.887	89
385.112	79
385.337	82
385.562	104
385.787	93
386.013	99
386.238	86
386.463	102
386.688	92
386.913	90
387.138	88
387.363	98
387.588	94
387.813	87
388.038	91
388.263	90
388.488	81
388.713	103
388.938	75
389.163	94
389.387	88
389.612	88
389.837	84
390.062	78
390.287	90
390.512	90
390.736	93
390.961	88
391.186	85
391.411	83
391.636	83
391.86	101
392.085	91
392.31	106
392.534	99
392.759	93
392.984	103
393.208	102
393.433	95
393.658	94
393.882	91
394.107	114
394.331	102
394.556	90
394.78	92
395.005	95
395.229	95
395.454	94
395.678	97
395.903	103
396.127	99
396.352	91
396.576	91
396.801	79
397.025	105
397.249	78
397.474	81
397.698	91
397.922	101
398.147	91
398.371	91
398.595	100
398.82	98
399.044	91
399.268	106
399.492	122
399.717	97
399.941	98
400.165	109
400.389	90
400.613	89
400.837	112
401.062	94
401.286	89
401.51	97
401.734	94
401.958	93
402.182	81
402.406	82
402.63	93
402.854	86
403.078	100
403.302	99
403.526	110
403.75	92
403.974	93
404.198	89
404.422	96
404.645	106
404.869	92
405.093	90
405.317	99
405.541	89
405.765	95
405.988	98
406.212	110
406.436	89
406.66	98
406.883	113
407.107	100
407.331	101
407.555	94
407.778	90
408.002	89
408.226	86
408.449	106
408.673	111
408.896	102
409.12	90
409.344	102
409.567	101
409.791	102
410.014	100
410.238	88
410.461	88
410.685	100
410.908	85
411.132	86
411.355	103
411.578	113
411.802	102
412.025	98
412.249	96
412.472	85
412.695	93
412.919	89
413.142	87
413.365	85
413.589	96
413.812	81
414.035	109
414.258	91
414.482	93
414.705	94
414.928	99
415.151	85
415.374	94
415.597	89
415.821	90
416.044	99
416.267	81
416.49	85
416.713	92
416.936	96
417.159	87
417.382	89
417.605	97
417.828	78
418.051	84
418.274	94
418.497	93
418.72	92
418.943	95
419.166	93
419.389	94
419.611	98
419.834	99
420.057	111
420.28	84
420.503	88
420.726	95
420.948	100
421.171	96
421.394	97
421.617	98
421.839	110
422.062	95
422.285	79
422.507	97
422.73	87
422.953	94
423.175	106
423.398	95
423.621	91
423.843	81
424.066	105
424.288	88
424.511	101
424.733	109
424.956	98
425.178	94
425.401	101
425.623	86
425.846	80
426.068	87
426.291	95
426.513	90
426.735	101
426.958	91
427.18	101
427.402	98
427.625	102
427.847	87
428.069	81
428.292	101
428.514	101
428.736	93
428.958	87
429.181	94
429.403	89
429.625	88
429.847	87
430.069	92
430.292	99
430.514	90
430.736	83
430.958	90
431.18	85
431.402	104
431.624	78
431.846	90
432.068	90
432.29	98
432.512	89
432.734	96
432.956	90
433.178	83
433.4	97
433.622	91
433.844	98
434.066	97
434.287	81
434.509	93
434.731	87
434.953	87
435.175	86
435.397	76
435.618	90
435.84	90
436.062	89
436.284	100
436.505	98
436.727	84
436.949	88
437.17	87
437.392	90
437.614	79
437.835	89
438.057	85
438.278	82
438.5	95
438.721	99
438.943	100
439.165	101
439.386	99
439.608	78
439.829	97
440.05	79
440.272	93
440.493	92
440.715	98
440.936	92
441.158	90
441.379	104
441.6	106
441.822	111
442.043	104
442.264	98
442.486	98
442.707	98
442.928	87
443.149	85
443.371	93
443.592	91
443.813	96
444.034	94
444.255	95
444.476	88
444.698	96
444.919	113
445.14	232
445.361	130
445.582	104
445.803	89
446.024	77
446.245	105
446.466	88
446.687	97
446.908	102
447.129	94
447.35	81
447.571	81
447.792	69
448.013	85
448.234	93
448.455	78
448.675	82
448.896	79
449.117	82
449.338	95
449.559	98
449.779	96
450	98
450.221	94
450.442	91
450.662	96
450.883	95
451.104	88
451.324	88
451.545	94
451.766	101
451.986	106
452.207	89
452.428	103
452.648	84
452.869	99
453.089	94
453.31	89
453.53	93
453.751	97
453.971	89
454.192	101
454.412	89
454.633	92
454.853	98
455.073	92
455.294	87
455.514	83
455.734	109
455.955	85
456.175	77
456.395	98
456.616	95
456.836	98
457.056	84
457.276	78
457.497	93
457.717	87
457.937	71
458.157	84
458.377	78
458.598	81
458.818	81
459.038	93
459.258	89
459.478	83
459.698	93
459.918	94
460.138	115
460.358	80
460.578	75
460.798	99
461.018	79
461.238	98
461.458	93
461.678	103
461.898	99
462.118	96
462.338	89
462.558	106
462.777	96
462.997	105
463.217	101
463.437	104
463.657	106
463.876	95
464.096	100
464.316	89
464.536	105
464.755	100
464.975	91
465.195	102
465.414	78
465.634	97
465.854	95
466.073	85
466.293	81
466.512	90
466.732	92
466.951	100
467.171	87
467.391	88
467.61	104
467.829	98
468.049	83
468.268	86
468.488	98
468.707	94
468.927	99
469.146	100
469.365	87
469.585	98
469.804	92
470.023	90
470.243	90
470.462	98
470.681	96
470.901	94
471.12	95
471.339	101
471.558	89
471.777	109
471.997	90
472.216	94
472.435	95
472.654	102
472.873	103
473.092	82
473.311	86
473.53	88
473.749	105
473.968	111
474.187	94
474.406	88
474.625	102
474.844	103
475.063	98
475.282	82
475.501	97
475.72	100
475.939	94
476.158	103
476.377	88
476.596	99
476.814	89
477.033	100
477.252	101
477.471	86
477.69	88
477.908	107
478.127	105
478.346	110
478.564	90
478.783	102
479.002	99
479.22	103
479.439	104
479.658	93
479.876	107
480.095	106
480.313	115
480.532	78
480.751	96
480.969	97
481.188	109
481.406	111
481.624	103
481.843	99
482.061	101
482.28	110
482.498	98
482.717	100
482.935	99
483.153	99
483.372	103
483.59	99
483.808	97
484.027	101
484.245	109
484.463	98
484.681	112
484.9	98
485.118	101
485.336	99
485.554	88
485.772	97
485.99	104
486.209	97
486.427	83
486.645	94
486.863	94
487.081	95
487.299	104
487.517	97
487.735	104
487.953	115
488.171	114
488.389	109
488.607	98
488.825	93
489.043	114
489.261	113
489.479	110
489.696	117
489.914	111
490.132	114
490.35	97
490.568	99
490.786	104
491.003	122
491.221	105
491.439	111
491.657	114
491.874	112
492.092	112
492.31	108
492.527	106
492.745	109
492.963	113
493.18	124
493.398	121
493.615	99
493.833	104
494.05	102
494.268	102
494.485	102
494.703	103
494.92	107
495.138	119
495.355	117
495.573	112
495.79	114
496.008	104
496.225	95
496.442	98
496.66	111
496.877	104
497.094	100
497.312	104
497.529	112
497.746	120
497.963	117
498.181	111
498.398	131
498.615	93
498.832	117
499.049	118
499.267	130
499.484	118
499.701	144
499.918	124
500.135	142
500.352	137
500.569	152
500.786	170
501.003	155
501.22	151
501.437	138
501.654	131
501.871	122
502.088	115
502.305	114
502.522	102
502.739	109
502.956	129
503.172	125
503.389	116
503.606	106
503.823	97
504.04	107
504.256	105
504.473	99
504.69	114
504.907	106
505.123	111
505.34	105
505.557	95
505.773	95
505.99	102
506.207	105
506.423	119
506.64	110
506.856	94
507.073	93
507.289	105
507.506	84
507.722	97
507.939	99
508.155	115
508.372	95
508.588	100
508.805	104
509.021	103
509.238	105
509.454	103
509.67	94
509.887	92
510.103	94
510.319	109
510.536	96
510.752	99
510.968	100
511.184	90
511.401	94
511.617	97
511.833	113
512.049	101
512.265	86
512.481	93
512.698	102
512.914	104
513.13	95
513.346	114
513.562	106
513.778	97
513.994	112
514.21	97
514.426	102
514.642	100
514.858	87
515.074	101
515.29	105
515.506	107
515.721	111
515.937	106
516.153	106
516.369	107
516.585	96
516.801	111
517.016	111
517.232	99
517.448	109
517.664	93
517.879	109
518.095	117
518.311	96
518.527	105
518.742	95
518.958	94
519.173	110
519.389	99
519.605	99
519.82	91
520.036	93
520.251	105
520.467	104
520.682	103
520.898	87
521.113	109
521.329	102
521.544	96
521.76	112
521.975	98
522.19	117
522.406	86
522.621	94
522.836	103
523.052	87
523.267	90
523.482	93
523.698	84
523.913	104
524.128	103
524.343	104
524.559	100
524.774	106
524.989	81
525.204	114
525.419	103
525.634	89
525.849	111
526.064	103
526.28	103
526.495	85
526.71	100
526.925	89
527.14	96
527.355	100
527.57	98
527.785	88
527.999	106
528.214	99
528.429	91
528.644	105
528.859	97
529.074	103
529.289	102
529.503	106
529.718	97
529.933	114
530.148	107
530.363	101
530.577	103
530.792	97
531.007	95
531.221	98
531.436	101
531.651	116
531.865	105
532.08	93
532.295	99
532.509	89
532.724	90
532.938	90
533.153	107
533.367	112
533.582	107
533.796	101
534.011	105
534.225	90
534.44	100
534.654	87
534.868	104
535.083	98
535.297	104
535.511	102
535.726	95
535.94	97
536.154	95
536.369	106
536.583	97
536.797	105
537.011	100
537.225	106
537.44	106
537.654	105
537.868	114
538.082	97
538.296	114
538.51	101
538.724	109
538.938	98
539.153	99
539.367	104
539.581	109
539.795	100
540.009	97
540.222	97
540.436	106
540.65	105
540.864	104
541.078	102
541.292	113
541.506	120
541.72	102
541.934	96
542.147	87
542.361	113
542.575	113
542.789	106
543.002	93
543.216	106
543.43	88
543.644	97
543.857	100
544.071	110
544.285	98
544.498	89
544.712	89
544.925	108
545.139	91
545.352	110
545.566	103
545.779	106
545.993	105
546.206	111
546.42	98
546.633	93
546.847	114
547.06	107
547.274	105
547.487	111
547.7	100
547.914	109
548.127	104
548.34	93
548.554	94
548.767	98
548.98	105
549.193	96
549.407	104
549.62	95
549.833	106
550.046	91
550.259	100
550.473	101
550.686	98
550.899	84
551.112	94
551.325	94
551.538	103
551.751	101
551.964	94
552.177	92
552.39	89
552.603	113
552.816	113
553.029	98
553.242	92
553.455	88
553.667	112
553.88	93
554.093	111
554.306	97
554.519	104
554.732	104
554.944	102
555.157	109
555.37	109
555.583	110
555.795	105
556.008	97
556.221	90
556.433	97
556.646	101
556.859	91
557.071	107
557.284	105
557.496	96
557.709	99
557.921	98
558.134	92
558.346	86
558.559	93
558.771	98
558.984	100
559.196	102
559.409	82
559.621	90
559.833	85
560.046	109
560.258	107
560.47	95
560.683	98
560.895	103
561.107	105
561.32	101
561.532	92
561.744	86
561.956	94
562.168	98
562.381	92
562.593	108
562.805	92
563.017	103
563.229	97
563.441	94
563.653	94
563.865	101
564.077	83
564.289	97
564.501	103
564.713	105
564.925	88
565.137	102
565.349	88
565.561	102
565.773	108
565.985	100
566.197	92
566.408	97
566.62	103
566.832	94
567.044	114
567.255	98
567.467	103
567.679	98
567.891	114
568.102	107
568.314	106
568.526	104
568.737	114
568.949	109
569.161	102
569.372	103
569.584	96
569.795	91
570.007	90
570.218	87
570.43	91
570.641	106
570.853	101
571.064	94
571.276	96
571.487	85
571.698	98
571.91	102
572.121	95
572.333	78
572.544	92
572.755	89
572.966	74
573.178	90
573.389	91
573.6	82
573.811	88
574.023	99
574.234	96
574.445	95
574.656	93
574.867	98
575.078	99
575.289	98
575.501	101
575.712	99
575.923	86
576.134	93
576.345	82
576.556	92
576.767	89
576.978	89
577.188	96
577.399	100
577.61	83
577.821	88
578.032	94
578.243	94
578.454	89
578.665	75
578.875	90
579.086	91
579.297	83
579.508	88
579.718	96
579.929	88
580.14	90
580.35	81
580.561	85
580.772	89
580.982	92
581.193	86
581.403	90
581.614	85
581.825	85
582.035	85
582.246	100
582.456	89
582.667	88
582.877	94
583.087	85
583.298	93
583.508	82
583.719	83
583.929	91
584.139	99
584.35	99
584.56	91
584.77	88
584.981	72
585.191	97
585.401	91
585.611	90
585.821	88
586.032	88
586.242	86
586.452	104
586.662	87
586.872	89
587.082	94
587.292	97
587.502	82
587.713	83
587.923	86
588.133	103
588.343	88
588.553	91
588.762	100
588.972	100
589.182	94
589.392	89
589.602	95
589.812	93
590.022	95
590.232	89
590.441	91
590.651	99
590.861	77
591.071	85
591.281	81
591.49	95
591.7	80
591.91	70
592.119	99
592.329	102
592.539	99
592.748	87
592.958	96
593.167	81
593.377	86
593.587	108
593.796	90
594.006	102
594.215	96
594.424	97
594.634	94
594.843	92
595.053	82
595.262	87
595.472	88
595.681	82
595.89	87
596.1	89
596.309	87
596.518	95
596.727	95
596.937	89
597.146	91
597.355	91
597.564	93
597.774	91
597.983	88
598.192	83
598.401	70
598.61	92
598.819	87
599.028	96
599.237	84
599.446	98
599.655	88
599.864	95
600.073	100
600.282	89
600.491	90
600.7	96
600.909	76
601.118	103
601.327	79
601.536	83
601.745	79
601.953	88
602.162	95
602.371	85
602.58	88
602.789	94
602.997	94
603.206	88
603.415	93
603.623	77
603.832	85
604.041	79
604.249	92
604.458	100
604.666	88
604.875	89
605.084	94
605.292	85
605.501	82
605.709	86
605.918	105
606.126	94
606.334	93
606.543	87
606.751	84
606.96	86
607.168	82
607.376	83
607.585	86
607.793	97
608.001	85
608.21	74
608.418	90
608.626	79
608.834	91
609.043	92
609.251	88
609.459	84
609.667	94
609.875	89
610.083	95
610.291	90
610.499	87
610.707	95
610.916	72
611.124	95
611.332	70
611.54	99
611.748	86
611.955	92
612.163	85
612.371	87
612.579	81
612.787	91
612.995	99
613.203	92
613.411	99
613.618	85
613.826	99
614.034	80
614.242	64
614.449	77
614.657	84
614.865	78
615.072	81
615.28	103
615.488	90
615.695	97
615.903	95
616.111	89
616.318	90
616.526	71
616.733	83
616.941	96
617.148	86
617.356	84
617.563	72
617.771	77
617.978	92
618.185	86
618.393	98
618.6	85
618.807	103
619.015	81
619.222	81
619.429	82
619.637	89
619.844	82
620.051	82
620.258	82
620.466	82
620.673	91
620.88	78
621.087	94
621.294	91
621.501	84
621.708	88
621.915	105
622.122	91
622.329	90
622.536	95
622.743	84
622.95	89
623.157	93
623.364	105
623.571	89
623.778	90
623.985	95
624.192	84
624.399	84
624.606	88
624.812	86
625.019	82
625.226	71
625.433	88
625.639	93
625.846	94
626.053	84
626.259	90
626.466	91
626.673	93
626.879	71
627.086	71
627.293	78
627.499	93
627.706	96
627.912	77
628.119	83
628.325	73
628.532	82
628.738	98
628.945	87
629.151	86
629.357	84
629.564	90
629.77	78
629.976	85
630.183	86
630.389	93
630.595	82
630.802	79
631.008	84
631.214	87
631.42	82
631.627	93
631.833	90
632.039	87
632.245	84
632.451	73
632.657	81
632.863	87
633.069	83
633.275	85
633.481	87
633.688	75
633.893	83
634.099	75
634.305	89
634.511	89
634.717	84
634.923	86
635.129	82
635.335	91
635.541	85
635.747	78
635.952	93
636.158	88
636.364	93
636.57	86
636.775	99
636.981	72
637.187	100
637.392	103
637.598	86
637.804	82
638.009	85
638.215	88
638.421	82
638.626	87
638.832	80
639.037	79
639.243	94
639.448	88
639.654	105
639.859	94
640.065	73
640.27	96
640.475	79
640.681	88
640.886	99
641.091	101
641.297	82
641.502	86
641.707	77
641.913	83
642.118	80
642.323	82
642.528	92
642.733	96
642.939	81
643.144	88
643.349	82
643.554	100
643.759	98
643.964	93
644.169	85
644.374	73
644.579	104
644.784	88
644.989	93
645.194	84
645.399	88
645.604	89
645.809	91
646.014	87
646.219	88
646.423	103
646.628	90
646.833	93
647.038	80
647.243	88
647.447	93
647.652	87
647.857	85
648.062	74
648.266	85
648.471	91
648.676	94
648.88	94
649.085	68
649.289	88
649.494	86
649.698	90
649.903	89
650.107	91
650.312	74
650.516	95
650.721	93
650.925	92
651.13	93
651.334	83
651.539	87
651.743	107
651.947	74
652.152	86
652.356	85
652.56	87
652.764	82
652.969	86
653.173	82
653.377	68
653.581	80
653.785	85
653.99	89
654.194	78
654.398	80
654.602	90
654.806	76
655.01	84
655.214	79
655.418	87
655.622	85
655.826	101
656.03	81
656.234	85
656.438	89
656.642	88
656.846	72
657.049	82
657.253	91
657.457	87
657.661	78
657.865	87
658.068	72
658.272	74
658.476	90
658.68	73
658.883	71
659.087	89
659.291	92
659.494	89
659.698	73
659.901	93
660.105	75
660.309	98
660.512	92
660.716	74
660.919	78
661.123	89
661.326	90
661.53	83
661.733	87
661.936	81
662.14	87
662.343	78
662.546	67
662.75	82
662.953	87
663.156	80
663.36	105
663.563	90
663.766	84
663.969	89
664.173	78
664.376	82
664.579	78
664.782	84
664.985	85
665.188	81
665.391	70
665.594	87
665.797	78
666	79
666.203	75
666.406	75
666.609	79
666.812	91
667.015	88
667.218	90
667.421	81
667.624	74
667.827	74
668.03	80
668.232	86
668.435	87
668.638	81
668.841	73
669.043	70
669.246	81
669.449	101
669.651	88
669.854	100
670.057	74
670.259	77
670.462	91
670.665	83
670.867	82
671.07	82
671.272	79
671.475	84
671.677	82
671.88	87
672.082	82
672.284	85
672.487	78
672.689	83
672.892	101
