Data from Location5.07152019.Energy5.Lamp.07192019.3%Agarose_HRD10591_15-39-21-389.txt Node
Date: Fri Jul 19 15:39:21 EDT 2019
User: cochatt
Spectrometer: HR+D1059
Trigger mode: 1
Integration Time (sec): 1.000000E-1
Scans to average: 1
Electric dark correction enabled: true
Nonlinearity correction enabled: false
Boxcar width: 0
XAxis mode: Wavelengths
Number of Pixels in Spectrum: 2048
>>>>>Begin Spectral Data<<<<<
223.165	-13
223.4	-13
223.635	-13
223.869	-16
224.104	-20
224.338	-15
224.573	-19
224.808	-5
225.042	-3
225.277	-4
225.511	-20
225.746	0
225.98	1
226.215	16
226.449	5
226.683	32
226.918	36
227.152	25
227.387	48
227.621	46
227.856	40
228.09	50
228.324	62
228.559	62
228.793	42
229.027	67
229.262	67
229.496	66
229.73	79
229.964	84
230.199	79
230.433	75
230.667	83
230.901	83
231.136	77
231.37	88
231.604	81
231.838	91
232.072	86
232.306	91
232.541	94
232.775	73
233.009	102
233.243	84
233.477	86
233.711	86
233.945	91
234.179	70
234.413	76
234.647	90
234.881	98
235.115	77
235.349	90
235.583	80
235.817	77
236.051	74
236.285	81
236.519	88
236.753	70
236.987	69
237.221	78
237.455	84
237.689	84
237.922	88
238.156	88
238.39	75
238.624	62
238.858	75
239.091	82
239.325	85
239.559	84
239.793	78
240.027	72
240.26	78
240.494	76
240.728	70
240.961	75
241.195	78
241.429	72
241.662	84
241.896	81
242.13	80
242.363	74
242.597	81
242.83	96
243.064	89
243.298	68
243.531	89
243.765	62
243.998	78
244.232	86
244.465	75
244.699	81
244.932	77
245.166	89
245.399	78
245.633	82
245.866	84
246.099	76
246.333	75
246.566	76
246.8	88
247.033	81
247.266	74
247.5	79
247.733	74
247.966	82
248.2	73
248.433	90
248.666	90
248.899	84
249.133	74
249.366	81
249.599	86
249.832	92
250.066	90
250.299	79
250.532	92
250.765	81
250.998	84
251.231	92
251.465	97
251.698	74
251.931	84
252.164	83
252.397	80
252.63	76
252.863	77
253.096	94
253.329	73
253.562	64
253.795	70
254.028	85
254.261	88
254.494	86
254.727	89
254.96	83
255.193	80
255.426	70
255.659	76
255.892	101
256.124	67
256.357	77
256.59	93
256.823	67
257.056	83
257.289	79
257.521	81
257.754	85
257.987	91
258.22	101
258.452	92
258.685	90
258.918	86
259.151	72
259.383	81
259.616	76
259.849	97
260.081	76
260.314	94
260.547	83
260.779	76
261.012	83
261.244	92
261.477	83
261.71	76
261.942	73
262.175	74
262.407	93
262.64	84
262.872	89
263.105	82
263.337	87
263.57	84
263.802	88
264.035	74
264.267	88
264.499	93
264.732	86
264.964	81
265.197	89
265.429	85
265.661	87
265.894	79
266.126	101
266.358	90
266.591	86
266.823	86
267.055	84
267.287	95
267.52	82
267.752	93
267.984	93
268.216	96
268.448	92
268.681	74
268.913	92
269.145	89
269.377	83
269.609	63
269.841	97
270.073	88
270.306	84
270.538	81
270.77	76
271.002	80
271.234	73
271.466	87
271.698	94
271.93	81
272.162	74
272.394	90
272.626	81
272.858	102
273.09	85
273.322	92
273.553	83
273.785	86
274.017	87
274.249	86
274.481	83
274.713	86
274.945	81
275.176	93
275.408	72
275.64	80
275.872	96
276.104	77
276.335	76
276.567	77
276.799	81
277.031	73
277.262	90
277.494	90
277.726	81
277.957	82
278.189	70
278.421	76
278.652	93
278.884	77
279.115	93
279.347	105
279.579	85
279.81	93
280.042	88
280.273	82
280.505	84
280.736	78
280.968	90
281.199	72
281.431	94
281.662	90
281.894	86
282.125	92
282.356	91
282.588	82
282.819	77
283.051	86
283.282	95
283.513	83
283.745	92
283.976	91
284.207	97
284.439	82
284.67	83
284.901	76
285.132	76
285.364	77
285.595	98
285.826	76
286.057	78
286.288	71
286.52	90
286.751	88
286.982	84
287.213	82
287.444	92
287.675	76
287.906	92
288.138	74
288.369	90
288.6	88
288.831	79
289.062	90
289.293	89
289.524	91
289.755	81
289.986	89
290.217	78
290.448	85
290.679	93
290.91	102
291.141	85
291.371	70
291.602	86
291.833	92
292.064	93
292.295	90
292.526	84
292.757	86
292.987	86
293.218	79
293.449	101
293.68	117
293.91	84
294.141	89
294.372	83
294.603	84
294.833	82
295.064	100
295.295	87
295.525	92
295.756	77
295.987	94
296.217	84
296.448	77
296.679	78
296.909	97
297.14	81
297.37	90
297.601	75
297.831	100
298.062	84
298.292	77
298.523	84
298.753	78
298.984	77
299.214	88
299.445	82
299.675	82
299.905	79
300.136	80
300.366	94
300.597	97
300.827	66
301.057	90
301.288	96
301.518	86
301.748	91
301.979	83
302.209	94
302.439	90
302.669	94
302.9	94
303.13	94
303.36	101
303.59	106
303.82	75
304.051	87
304.281	95
304.511	91
304.741	91
304.971	79
305.201	88
305.431	84
305.661	89
305.891	86
306.121	88
306.352	85
306.582	89
306.812	69
307.042	93
307.272	80
307.502	85
307.731	81
307.961	79
308.191	86
308.421	89
308.651	96
308.881	75
309.111	78
309.341	75
309.571	88
309.8	89
310.03	66
310.26	78
310.49	88
310.72	88
310.949	89
311.179	89
311.409	95
311.639	88
311.868	90
312.098	71
312.328	74
312.557	107
312.787	89
313.017	80
313.246	85
313.476	86
313.706	81
313.935	82
314.165	88
314.394	73
314.624	78
314.853	86
315.083	73
315.312	90
315.542	105
315.771	84
316.001	98
316.23	84
316.46	81
316.689	82
316.919	96
317.148	88
317.377	100
317.607	84
317.836	90
318.065	81
318.295	100
318.524	87
318.753	75
318.983	89
319.212	76
319.441	99
319.67	102
319.9	86
320.129	86
320.358	97
320.587	76
320.816	99
321.046	81
321.275	96
321.504	74
321.733	68
321.962	82
322.191	91
322.42	89
322.649	99
322.878	95
323.108	96
323.337	76
323.566	83
323.795	84
324.024	89
324.253	82
324.482	82
324.71	92
324.939	89
325.168	87
325.397	82
325.626	80
325.855	83
326.084	88
326.313	83
326.542	95
326.77	74
326.999	86
327.228	83
327.457	89
327.686	101
327.914	83
328.143	90
328.372	78
328.6	88
328.829	85
329.058	88
329.287	78
329.515	101
329.744	101
329.972	95
330.201	91
330.43	78
330.658	101
330.887	82
331.115	91
331.344	76
331.572	97
331.801	99
332.03	94
332.258	85
332.486	78
332.715	87
332.943	75
333.172	82
333.4	101
333.629	88
333.857	82
334.085	87
334.314	89
334.542	91
334.771	75
334.999	84
335.227	79
335.455	88
335.684	93
335.912	79
336.14	94
336.369	97
336.597	89
336.825	91
337.053	85
337.281	91
337.51	89
337.738	88
337.966	85
338.194	85
338.422	83
338.65	82
338.878	94
339.106	90
339.334	96
339.562	87
339.79	88
340.018	89
340.246	84
340.474	99
340.702	90
340.93	83
341.158	72
341.386	80
341.614	70
341.842	85
342.07	83
342.298	91
342.526	81
342.754	83
342.981	61
343.209	82
343.437	73
343.665	89
343.893	89
344.12	82
344.348	82
344.576	76
344.804	83
345.031	102
345.259	93
345.487	94
345.714	81
345.942	93
346.17	84
346.397	87
346.625	92
346.853	86
347.08	91
347.308	94
347.535	86
347.763	81
347.99	73
348.218	87
348.445	72
348.673	91
348.9	91
349.128	88
349.355	90
349.583	89
349.81	86
350.037	72
350.265	88
350.492	80
350.72	73
350.947	86
351.174	83
351.402	73
351.629	90
351.856	75
352.083	82
352.311	93
352.538	80
352.765	80
352.992	85
353.22	82
353.447	85
353.674	79
353.901	85
354.128	78
354.355	82
354.583	88
354.81	83
355.037	85
355.264	92
355.491	77
355.718	69
355.945	84
356.172	93
356.399	77
356.626	90
356.853	87
357.08	86
357.307	78
357.534	85
357.761	86
357.988	95
358.215	95
358.441	91
358.668	90
358.895	90
359.122	86
359.349	86
359.576	81
359.802	82
360.029	73
360.256	85
360.483	96
360.709	84
360.936	87
361.163	92
361.39	82
361.616	83
361.843	75
362.07	77
362.296	72
362.523	86
362.749	102
362.976	85
363.203	100
363.429	72
363.656	68
363.882	88
364.109	80
364.335	88
364.562	82
364.788	79
365.015	89
365.241	92
365.468	102
365.694	89
365.92	85
366.147	82
366.373	98
366.599	85
366.826	84
367.052	77
367.278	101
367.505	85
367.731	86
367.957	69
368.184	86
368.41	89
368.636	82
368.862	88
369.089	87
369.315	100
369.541	100
369.767	89
369.993	91
370.219	71
370.445	85
370.672	81
370.898	74
371.124	80
371.35	93
371.576	78
371.802	89
372.028	85
372.254	81
372.48	67
372.706	81
372.932	74
373.158	78
373.384	85
373.61	97
373.835	95
374.061	85
374.287	97
374.513	86
374.739	95
374.965	103
375.191	80
375.416	74
375.642	92
375.868	81
376.094	84
376.319	86
376.545	96
376.771	80
376.997	77
377.222	88
377.448	91
377.674	85
377.899	71
378.125	80
378.35	90
378.576	94
378.802	87
379.027	95
379.253	100
379.478	83
379.704	84
379.929	82
380.155	85
380.38	95
380.606	88
380.831	85
381.057	90
381.282	89
381.507	99
381.733	92
381.958	87
382.184	105
382.409	85
382.634	97
382.86	83
383.085	76
383.31	92
383.535	105
383.761	88
383.986	101
384.211	92
384.436	86
384.662	94
384.887	85
385.112	91
385.337	84
385.562	83
385.787	84
386.013	91
386.238	78
386.463	80
386.688	96
386.913	86
387.138	86
387.363	104
387.588	97
387.813	78
388.038	84
388.263	79
388.488	73
388.713	93
388.938	72
389.163	92
389.387	94
389.612	72
389.837	87
390.062	91
390.287	85
390.512	75
390.736	73
390.961	85
391.186	89
391.411	75
391.636	76
391.86	77
392.085	75
392.31	92
392.534	95
392.759	83
392.984	83
393.208	75
393.433	73
393.658	83
393.882	84
394.107	90
394.331	83
394.556	78
394.78	79
395.005	90
395.229	88
395.454	88
395.678	102
395.903	96
396.127	88
396.352	80
396.576	77
396.801	87
397.025	92
397.249	84
397.474	101
397.698	84
397.922	74
398.147	85
398.371	88
398.595	89
398.82	86
399.044	87
399.268	92
399.492	84
399.717	92
399.941	88
400.165	99
400.389	90
400.613	86
400.837	84
401.062	96
401.286	96
401.51	85
401.734	83
401.958	87
402.182	97
402.406	84
402.63	83
402.854	103
403.078	89
403.302	80
403.526	100
403.75	84
403.974	82
404.198	99
404.422	83
404.645	91
404.869	81
405.093	79
405.317	85
405.541	86
405.765	97
405.988	91
406.212	88
406.436	68
406.66	95
406.883	100
407.107	105
407.331	88
407.555	106
407.778	83
408.002	94
408.226	96
408.449	85
408.673	81
408.896	80
409.12	84
409.344	93
409.567	86
409.791	92
410.014	94
410.238	91
410.461	84
410.685	93
410.908	80
411.132	86
411.355	93
411.578	81
411.802	101
412.025	90
412.249	85
412.472	101
412.695	81
412.919	82
413.142	87
413.365	78
413.589	88
413.812	75
414.035	76
414.258	89
414.482	90
414.705	89
414.928	77
415.151	83
415.374	92
415.597	92
415.821	92
416.044	93
416.267	86
416.49	82
416.713	88
416.936	98
417.159	88
417.382	88
417.605	88
417.828	104
418.051	89
418.274	104
418.497	91
418.72	101
418.943	88
419.166	91
419.389	98
419.611	103
419.834	93
420.057	103
420.28	88
420.503	89
420.726	81
420.948	87
421.171	96
421.394	93
421.617	90
421.839	83
422.062	97
422.285	95
422.507	104
422.73	97
422.953	89
423.175	90
423.398	90
423.621	84
423.843	90
424.066	96
424.288	93
424.511	103
424.733	96
424.956	83
425.178	89
425.401	82
425.623	92
425.846	91
426.068	84
426.291	86
426.513	115
426.735	113
426.958	87
427.18	107
427.402	105
427.625	96
427.847	93
428.069	95
428.292	90
428.514	88
428.736	88
428.958	109
429.181	85
429.403	85
429.625	91
429.847	97
430.069	97
430.292	90
430.514	92
430.736	92
430.958	83
431.18	79
431.402	102
431.624	98
431.846	97
432.068	92
432.29	86
432.512	72
432.734	79
432.956	90
433.178	86
433.4	104
433.622	86
433.844	86
434.066	96
434.287	87
434.509	84
434.731	101
434.953	86
435.175	89
435.397	99
435.618	89
435.84	81
436.062	94
436.284	88
436.505	94
436.727	89
436.949	90
437.17	81
437.392	89
437.614	105
437.835	91
438.057	78
438.278	78
438.5	94
438.721	78
438.943	87
439.165	95
439.386	107
439.608	95
439.829	89
440.05	94
440.272	108
440.493	113
440.715	92
440.936	94
441.158	112
441.379	92
441.6	90
441.822	107
442.043	98
442.264	103
442.486	85
442.707	93
442.928	93
443.149	98
443.371	103
443.592	95
443.813	89
444.034	93
444.255	105
444.476	90
444.698	91
444.919	110
445.14	212
445.361	154
445.582	107
445.803	91
446.024	102
446.245	97
446.466	98
446.687	110
446.908	105
447.129	99
447.35	101
447.571	92
447.792	97
448.013	98
448.234	100
448.455	93
448.675	90
448.896	102
449.117	95
449.338	92
449.559	98
449.779	101
450	100
450.221	90
450.442	91
450.662	97
450.883	93
451.104	97
451.324	91
451.545	95
451.766	89
451.986	97
452.207	96
452.428	96
452.648	110
452.869	107
453.089	89
453.31	84
453.53	82
453.751	101
453.971	82
454.192	87
454.412	87
454.633	91
454.853	84
455.073	78
455.294	83
455.514	95
455.734	92
455.955	79
456.175	86
456.395	76
456.616	108
456.836	93
457.056	88
457.276	92
457.497	83
457.717	85
457.937	84
458.157	98
458.377	84
458.598	86
458.818	84
459.038	88
459.258	76
459.478	90
459.698	98
459.918	92
460.138	89
460.358	94
460.578	99
460.798	102
461.018	77
461.238	78
461.458	88
461.678	80
461.898	101
462.118	99
462.338	88
462.558	89
462.777	91
462.997	86
463.217	92
463.437	90
463.657	92
463.876	104
464.096	88
464.316	94
464.536	103
464.755	87
464.975	97
465.195	82
465.414	90
465.634	97
465.854	96
466.073	96
466.293	85
466.512	104
466.732	90
466.951	89
467.171	105
467.391	95
467.61	95
467.829	103
468.049	93
468.268	94
468.488	97
468.707	98
468.927	85
469.146	93
469.365	98
469.585	96
469.804	104
470.023	90
470.243	104
470.462	101
470.681	95
470.901	97
471.12	82
471.339	101
471.558	108
471.777	93
471.997	96
472.216	99
472.435	96
472.654	69
472.873	88
473.092	96
473.311	101
473.53	100
473.749	100
473.968	87
474.187	101
474.406	91
474.625	87
474.844	98
475.063	97
475.282	79
475.501	94
475.72	96
475.939	90
476.158	100
476.377	81
476.596	100
476.814	87
477.033	87
477.252	97
477.471	87
477.69	100
477.908	101
478.127	82
478.346	91
478.564	101
478.783	90
479.002	97
479.22	90
479.439	102
479.658	99
479.876	82
480.095	103
480.313	113
480.532	84
480.751	101
480.969	89
481.188	87
481.406	92
481.624	85
481.843	95
482.061	83
482.28	97
482.498	88
482.717	92
482.935	91
483.153	96
483.372	91
483.59	119
483.808	103
484.027	92
484.245	91
484.463	98
484.681	112
484.9	97
485.118	89
485.336	100
485.554	101
485.772	90
485.99	86
486.209	91
486.427	83
486.645	98
486.863	96
487.081	94
487.299	85
487.517	87
487.735	115
487.953	112
488.171	109
488.389	111
488.607	89
488.825	103
489.043	98
489.261	103
489.479	109
489.696	98
489.914	101
490.132	99
490.35	109
490.568	94
490.786	92
491.003	106
491.221	115
491.439	93
491.657	112
491.874	134
492.092	112
492.31	125
492.527	125
492.745	124
492.963	99
493.18	109
493.398	118
493.615	103
493.833	114
494.05	109
494.268	101
494.485	112
494.703	110
494.92	116
495.138	94
495.355	96
495.573	110
495.79	101
496.008	119
496.225	115
496.442	103
496.66	109
496.877	117
497.094	119
497.312	101
497.529	99
497.746	69
497.963	96
498.181	97
498.398	89
498.615	108
498.832	91
499.049	94
499.267	91
499.484	97
499.701	99
499.918	96
500.135	96
500.352	88
500.569	99
500.786	102
501.003	102
501.22	106
501.437	100
501.654	107
501.871	104
502.088	86
502.305	102
502.522	92
502.739	75
502.956	95
503.172	91
503.389	102
503.606	97
503.823	96
504.04	99
504.256	82
504.473	85
504.69	94
504.907	104
505.123	96
505.34	85
505.557	88
505.773	102
505.99	88
506.207	98
506.423	85
506.64	105
506.856	97
507.073	90
507.289	95
507.506	103
507.722	90
507.939	93
508.155	96
508.372	89
508.588	89
508.805	99
509.021	86
509.238	87
509.454	94
509.67	97
509.887	87
510.103	80
510.319	83
510.536	81
510.752	78
510.968	86
511.184	78
511.401	85
511.617	89
511.833	84
512.049	81
512.265	96
512.481	84
512.698	76
512.914	82
513.13	88
513.346	84
513.562	74
513.778	92
513.994	85
514.21	80
514.426	86
514.642	93
514.858	72
515.074	74
515.29	83
515.506	88
515.721	91
515.937	77
516.153	88
516.369	81
516.585	87
516.801	85
517.016	83
517.232	100
517.448	84
517.664	98
517.879	82
518.095	95
518.311	87
518.527	94
518.742	75
518.958	88
519.173	94
519.389	104
519.605	99
519.82	92
520.036	100
520.251	103
520.467	92
520.682	86
520.898	98
521.113	71
521.329	85
521.544	80
521.76	91
521.975	89
522.19	102
522.406	92
522.621	90
522.836	91
523.052	97
523.267	89
523.482	99
523.698	77
523.913	93
524.128	74
524.343	96
524.559	94
524.774	89
524.989	96
525.204	93
525.419	94
525.634	83
525.849	91
526.064	85
526.28	98
526.495	116
526.71	84
526.925	90
527.14	80
527.355	86
527.57	102
527.785	94
527.999	85
528.214	89
528.429	94
528.644	92
528.859	101
529.074	99
529.289	107
529.503	93
529.718	85
529.933	83
530.148	79
530.363	82
530.577	95
530.792	98
531.007	91
531.221	90
531.436	77
531.651	93
531.865	89
532.08	78
532.295	99
532.509	83
532.724	76
532.938	88
533.153	87
533.367	95
533.582	102
533.796	94
534.011	95
534.225	94
534.44	88
534.654	83
534.868	76
535.083	100
535.297	106
535.511	96
535.726	92
535.94	104
536.154	87
536.369	104
536.583	88
536.797	86
537.011	85
537.225	88
537.44	85
537.654	105
537.868	101
538.082	84
538.296	86
538.51	85
538.724	87
538.938	110
539.153	99
539.367	92
539.581	99
539.795	100
540.009	88
540.222	88
540.436	86
540.65	78
540.864	102
541.078	100
541.292	105
541.506	109
541.72	115
541.934	114
542.147	114
542.361	112
542.575	109
542.789	88
543.002	102
543.216	109
543.43	90
543.644	97
543.857	99
544.071	116
544.285	116
544.498	107
544.712	120
544.925	103
545.139	94
545.352	94
545.566	89
545.779	85
545.993	124
546.206	107
546.42	116
546.633	106
546.847	98
547.06	96
547.274	121
547.487	109
547.7	120
547.914	118
548.127	106
548.34	112
548.554	110
548.767	106
548.98	105
549.193	106
549.407	105
549.62	100
549.833	118
550.046	108
550.259	109
550.473	101
550.686	101
550.899	91
551.112	104
551.325	94
551.538	102
551.751	98
551.964	102
552.177	97
552.39	84
552.603	105
552.816	114
553.029	110
553.242	118
553.455	112
553.667	108
553.88	118
554.093	104
554.306	109
554.519	105
554.732	106
554.944	107
555.157	95
555.37	106
555.583	96
555.795	100
556.008	95
556.221	98
556.433	86
556.646	104
556.859	117
557.071	89
557.284	92
557.496	105
557.709	85
557.921	109
558.134	81
558.346	100
558.559	98
558.771	92
558.984	114
559.196	104
559.409	96
559.621	99
559.833	100
560.046	103
560.258	100
560.47	104
560.683	99
560.895	103
561.107	96
561.32	94
561.532	93
561.744	101
561.956	106
562.168	93
562.381	100
562.593	91
562.805	100
563.017	93
563.229	92
563.441	100
563.653	104
563.865	96
564.077	90
564.289	100
564.501	101
564.713	100
564.925	100
565.137	93
565.349	102
565.561	95
565.773	106
565.985	102
566.197	97
566.408	99
566.62	93
566.832	97
567.044	89
567.255	89
567.467	103
567.679	84
567.891	96
568.102	103
568.314	86
568.526	101
568.737	88
568.949	91
569.161	101
569.372	83
569.584	89
569.795	86
570.007	88
570.218	91
570.43	90
570.641	87
570.853	90
571.064	96
571.276	91
571.487	86
571.698	92
571.91	90
572.121	95
572.333	90
572.544	84
572.755	80
572.966	78
573.178	92
573.389	76
573.6	88
573.811	87
574.023	84
574.234	84
574.445	92
574.656	97
574.867	85
575.078	83
575.289	91
575.501	75
575.712	85
575.923	88
576.134	91
576.345	76
576.556	95
576.767	92
576.978	90
577.188	91
577.399	92
577.61	88
577.821	78
578.032	82
578.243	85
578.454	86
578.665	89
578.875	79
579.086	93
579.297	83
579.508	99
579.718	94
579.929	81
580.14	85
580.35	89
580.561	81
580.772	87
580.982	89
581.193	78
581.403	88
581.614	86
581.825	74
582.035	90
582.246	72
582.456	78
582.667	86
582.877	79
583.087	98
583.298	85
583.508	92
583.719	92
583.929	98
584.139	78
584.35	77
584.56	86
584.77	84
584.981	95
585.191	81
585.401	75
585.611	79
585.821	87
586.032	93
586.242	89
586.452	94
586.662	88
586.872	69
587.082	103
587.292	80
587.502	90
587.713	94
587.923	89
588.133	78
588.343	89
588.553	83
588.762	93
588.972	70
589.182	84
589.392	76
589.602	91
589.812	91
590.022	76
590.232	80
590.441	95
590.651	90
590.861	82
591.071	93
591.281	93
591.49	69
591.7	76
591.91	90
592.119	83
592.329	97
592.539	87
592.748	91
592.958	84
593.167	82
593.377	82
593.587	90
593.796	86
594.006	89
594.215	81
594.424	79
594.634	85
594.843	93
595.053	79
595.262	100
595.472	88
595.681	93
595.89	102
596.1	97
596.309	90
596.518	80
596.727	86
596.937	104
597.146	90
597.355	90
597.564	85
597.774	85
597.983	92
598.192	84
598.401	81
598.61	82
598.819	95
599.028	93
599.237	75
599.446	86
599.655	76
599.864	84
600.073	80
600.282	87
600.491	92
600.7	96
600.909	87
601.118	92
601.327	93
601.536	85
601.745	95
601.953	103
602.162	85
602.371	95
602.58	85
602.789	94
602.997	97
603.206	98
603.415	103
603.623	85
603.832	87
604.041	84
604.249	85
604.458	99
604.666	102
604.875	82
605.084	89
605.292	92
605.501	95
605.709	90
605.918	89
606.126	84
606.334	108
606.543	92
606.751	101
606.96	100
607.168	91
607.376	100
607.585	91
607.793	90
608.001	82
608.21	90
608.418	92
608.626	89
608.834	107
609.043	77
609.251	85
609.459	97
609.667	94
609.875	99
610.083	88
610.291	94
610.499	96
610.707	85
610.916	109
611.124	88
611.332	86
611.54	80
611.748	93
611.955	89
612.163	96
612.371	89
612.579	103
612.787	101
612.995	97
613.203	89
613.411	102
613.618	97
613.826	110
614.034	90
614.242	101
614.449	100
614.657	93
614.865	96
615.072	105
615.28	90
615.488	81
615.695	94
615.903	88
616.111	81
616.318	100
616.526	92
616.733	97
616.941	78
617.148	93
617.356	94
617.563	88
617.771	93
617.978	93
618.185	97
618.393	87
618.6	85
618.807	87
619.015	82
619.222	91
619.429	93
619.637	101
619.844	108
620.051	103
620.258	77
620.466	88
620.673	95
620.88	92
621.087	108
621.294	97
621.501	92
621.708	102
621.915	98
622.122	93
622.329	93
622.536	110
622.743	93
622.95	92
623.157	91
623.364	94
623.571	84
623.778	89
623.985	90
624.192	90
624.399	86
624.606	97
624.812	89
625.019	95
625.226	76
625.433	91
625.639	85
625.846	93
626.053	85
626.259	92
626.466	92
626.673	86
626.879	83
627.086	95
627.293	93
627.499	91
627.706	94
627.912	78
628.119	98
628.325	82
628.532	80
628.738	84
628.945	85
629.151	100
629.357	74
629.564	87
629.77	100
629.976	83
630.183	87
630.389	88
630.595	83
630.802	74
631.008	80
631.214	88
631.42	78
631.627	86
631.833	89
632.039	86
632.245	107
632.451	74
632.657	101
632.863	102
633.069	94
633.275	91
633.481	83
633.688	84
633.893	93
634.099	84
634.305	87
634.511	97
634.717	89
634.923	84
635.129	90
635.335	79
635.541	70
635.747	92
635.952	91
636.158	79
636.364	78
636.57	84
636.775	89
636.981	99
637.187	82
637.392	82
637.598	96
637.804	78
638.009	83
638.215	82
638.421	84
638.626	86
638.832	92
639.037	81
639.243	77
639.448	89
639.654	98
639.859	72
640.065	90
640.27	105
640.475	84
640.681	81
640.886	87
641.091	78
641.297	89
641.502	93
641.707	98
641.913	94
642.118	81
642.323	91
642.528	93
642.733	99
642.939	103
643.144	97
643.349	85
643.554	93
643.759	85
643.964	93
644.169	86
644.374	85
644.579	88
644.784	95
644.989	87
645.194	83
645.399	93
645.604	78
645.809	100
646.014	94
646.219	78
646.423	83
646.628	84
646.833	75
647.038	102
647.243	95
647.447	82
647.652	97
647.857	81
648.062	91
648.266	82
648.471	89
648.676	90
648.88	99
649.085	108
649.289	85
649.494	84
649.698	96
649.903	83
650.107	93
650.312	78
650.516	76
650.721	72
650.925	94
651.13	90
651.334	88
651.539	80
651.743	76
651.947	78
652.152	90
652.356	89
652.56	88
652.764	81
652.969	76
653.173	82
653.377	77
653.581	101
653.785	90
653.99	84
654.194	79
654.398	85
654.602	88
654.806	89
655.01	84
655.214	91
655.418	85
655.622	94
655.826	92
656.03	92
656.234	95
656.438	68
656.642	77
656.846	87
657.049	82
657.253	76
657.457	84
657.661	86
657.865	76
658.068	83
658.272	90
658.476	83
658.68	81
658.883	81
659.087	92
659.291	90
659.494	84
659.698	78
659.901	80
660.105	81
660.309	82
660.512	90
660.716	96
660.919	92
661.123	100
661.326	86
661.53	82
661.733	86
661.936	92
662.14	89
662.343	92
662.546	79
662.75	80
662.953	85
663.156	80
663.36	78
663.563	72
663.766	80
663.969	86
664.173	82
664.376	76
664.579	72
664.782	80
664.985	83
665.188	77
665.391	72
665.594	83
665.797	82
666	69
666.203	73
666.406	83
666.609	66
666.812	89
667.015	82
667.218	88
667.421	91
667.624	85
667.827	85
668.03	89
668.232	83
668.435	89
668.638	82
668.841	68
669.043	87
669.246	78
669.449	87
669.651	96
669.854	81
670.057	82
670.259	93
670.462	82
670.665	71
670.867	97
671.07	83
671.272	91
671.475	85
671.677	69
671.88	83
672.082	80
672.284	79
672.487	81
672.689	92
672.892	85
