Data from Location5.07152019.Energy5.Lamp.07192019.3%Agarose_HRD10591_16-03-13-628.txt Node
Date: Fri Jul 19 16:03:13 EDT 2019
User: cochatt
Spectrometer: HR+D1059
Trigger mode: 1
Integration Time (sec): 1.000000E-1
Scans to average: 1
Electric dark correction enabled: true
Nonlinearity correction enabled: false
Boxcar width: 0
XAxis mode: Wavelengths
Number of Pixels in Spectrum: 2048
>>>>>Begin Spectral Data<<<<<
223.165	-12
223.4	-12
223.635	-12
223.869	-9
224.104	-13
224.338	-8
224.573	3
224.808	-8
225.042	-22
225.277	-10
225.511	-6
225.746	-7
225.98	1
226.215	12
226.449	13
226.683	20
226.918	21
227.152	25
227.387	26
227.621	36
227.856	45
228.09	54
228.324	59
228.559	61
228.793	60
229.027	54
229.262	59
229.496	67
229.73	81
229.964	64
230.199	84
230.433	73
230.667	91
230.901	90
231.136	76
231.37	66
231.604	66
231.838	71
232.072	84
232.306	90
232.541	78
232.775	83
233.009	68
233.243	70
233.477	81
233.711	90
233.945	83
234.179	86
234.413	82
234.647	79
234.881	82
235.115	70
235.349	73
235.583	78
235.817	83
236.051	71
236.285	76
236.519	67
236.753	92
236.987	74
237.221	76
237.455	91
237.689	84
237.922	79
238.156	75
238.39	89
238.624	75
238.858	83
239.091	75
239.325	93
239.559	79
239.793	91
240.027	67
240.26	87
240.494	80
240.728	70
240.961	73
241.195	79
241.429	79
241.662	62
241.896	85
242.13	86
242.363	84
242.597	90
242.83	84
243.064	69
243.298	80
243.531	78
243.765	78
243.998	83
244.232	64
244.465	88
244.699	85
244.932	74
245.166	76
245.399	80
245.633	79
245.866	61
246.099	80
246.333	81
246.566	75
246.8	81
247.033	74
247.266	82
247.5	76
247.733	73
247.966	75
248.2	79
248.433	87
248.666	81
248.899	82
249.133	71
249.366	87
249.599	83
249.832	87
250.066	80
250.299	85
250.532	68
250.765	71
250.998	84
251.231	78
251.465	89
251.698	89
251.931	79
252.164	86
252.397	75
252.63	82
252.863	84
253.096	80
253.329	83
253.562	90
253.795	71
254.028	91
254.261	67
254.494	82
254.727	94
254.96	77
255.193	85
255.426	72
255.659	82
255.892	83
256.124	76
256.357	86
256.59	80
256.823	83
257.056	83
257.289	86
257.521	89
257.754	76
257.987	78
258.22	82
258.452	96
258.685	82
258.918	77
259.151	74
259.383	85
259.616	72
259.849	75
260.081	83
260.314	88
260.547	76
260.779	80
261.012	85
261.244	89
261.477	90
261.71	72
261.942	81
262.175	82
262.407	85
262.64	87
262.872	75
263.105	81
263.337	82
263.57	90
263.802	89
264.035	72
264.267	90
264.499	83
264.732	83
264.964	79
265.197	86
265.429	96
265.661	97
265.894	88
266.126	91
266.358	80
266.591	63
266.823	75
267.055	84
267.287	90
267.52	80
267.752	81
267.984	75
268.216	82
268.448	88
268.681	83
268.913	81
269.145	83
269.377	78
269.609	95
269.841	83
270.073	84
270.306	84
270.538	99
270.77	87
271.002	76
271.234	87
271.466	82
271.698	85
271.93	86
272.162	91
272.394	85
272.626	98
272.858	95
273.09	90
273.322	86
273.553	79
273.785	82
274.017	80
274.249	91
274.481	87
274.713	84
274.945	84
275.176	82
275.408	75
275.64	95
275.872	89
276.104	97
276.335	81
276.567	90
276.799	87
277.031	90
277.262	95
277.494	91
277.726	95
277.957	80
278.189	85
278.421	84
278.652	88
278.884	81
279.115	91
279.347	101
279.579	81
279.81	95
280.042	94
280.273	96
280.505	75
280.736	92
280.968	84
281.199	84
281.431	92
281.662	77
281.894	82
282.125	91
282.356	90
282.588	85
282.819	87
283.051	71
283.282	103
283.513	89
283.745	100
283.976	89
284.207	82
284.439	84
284.67	74
284.901	94
285.132	86
285.364	69
285.595	80
285.826	84
286.057	92
286.288	92
286.52	90
286.751	88
286.982	96
287.213	85
287.444	90
287.675	88
287.906	101
288.138	89
288.369	91
288.6	86
288.831	93
289.062	91
289.293	89
289.524	78
289.755	88
289.986	77
290.217	85
290.448	78
290.679	75
290.91	77
291.141	83
291.371	72
291.602	98
291.833	83
292.064	86
292.295	87
292.526	99
292.757	76
292.987	98
293.218	94
293.449	90
293.68	87
293.91	75
294.141	86
294.372	94
294.603	84
294.833	96
295.064	90
295.295	93
295.525	99
295.756	94
295.987	92
296.217	87
296.448	69
296.679	83
296.909	80
297.14	100
297.37	83
297.601	89
297.831	83
298.062	96
298.292	83
298.523	89
298.753	85
298.984	98
299.214	96
299.445	86
299.675	74
299.905	91
300.136	100
300.366	90
300.597	93
300.827	112
301.057	100
301.288	96
301.518	80
301.748	105
301.979	92
302.209	77
302.439	70
302.669	107
302.9	83
303.13	87
303.36	91
303.59	100
303.82	91
304.051	93
304.281	98
304.511	88
304.741	99
304.971	104
305.201	95
305.431	77
305.661	98
305.891	90
306.121	95
306.352	99
306.582	92
306.812	87
307.042	102
307.272	83
307.502	83
307.731	86
307.961	90
308.191	93
308.421	72
308.651	95
308.881	97
309.111	84
309.341	88
309.571	97
309.8	92
310.03	91
310.26	83
310.49	96
310.72	97
310.949	90
311.179	91
311.409	98
311.639	83
311.868	82
312.098	104
312.328	90
312.557	70
312.787	82
313.017	91
313.246	77
313.476	83
313.706	99
313.935	97
314.165	99
314.394	93
314.624	81
314.853	83
315.083	89
315.312	78
315.542	82
315.771	85
316.001	90
316.23	95
316.46	92
316.689	84
316.919	87
317.148	89
317.377	93
317.607	91
317.836	100
318.065	81
318.295	86
318.524	104
318.753	90
318.983	87
319.212	85
319.441	90
319.67	82
319.9	87
320.129	84
320.358	113
320.587	91
320.816	82
321.046	73
321.275	90
321.504	91
321.733	83
321.962	80
322.191	93
322.42	96
322.649	95
322.878	90
323.108	78
323.337	84
323.566	91
323.795	94
324.024	91
324.253	94
324.482	94
324.71	96
324.939	84
325.168	93
325.397	68
325.626	81
325.855	81
326.084	92
326.313	103
326.542	92
326.77	94
326.999	100
327.228	98
327.457	100
327.686	87
327.914	102
328.143	85
328.372	99
328.6	104
328.829	88
329.058	89
329.287	98
329.515	107
329.744	101
329.972	96
330.201	74
330.43	100
330.658	89
330.887	112
331.115	100
331.344	96
331.572	83
331.801	97
332.03	95
332.258	86
332.486	92
332.715	93
332.943	87
333.172	102
333.4	89
333.629	86
333.857	104
334.085	103
334.314	89
334.542	84
334.771	78
334.999	87
335.227	83
335.455	89
335.684	77
335.912	98
336.14	99
336.369	88
336.597	88
336.825	72
337.053	89
337.281	101
337.51	86
337.738	99
337.966	80
338.194	90
338.422	100
338.65	91
338.878	97
339.106	102
339.334	97
339.562	93
339.79	88
340.018	95
340.246	91
340.474	82
340.702	87
340.93	91
341.158	82
341.386	80
341.614	84
341.842	97
342.07	95
342.298	90
342.526	82
342.754	92
342.981	96
343.209	84
343.437	103
343.665	99
343.893	99
344.12	101
344.348	90
344.576	97
344.804	90
345.031	95
345.259	89
345.487	94
345.714	88
345.942	91
346.17	87
346.397	90
346.625	98
346.853	90
347.08	94
347.308	97
347.535	107
347.763	82
347.99	84
348.218	83
348.445	82
348.673	85
348.9	79
349.128	100
349.355	94
349.583	86
349.81	88
350.037	84
350.265	100
350.492	91
350.72	92
350.947	78
351.174	85
351.402	83
351.629	95
351.856	102
352.083	88
352.311	91
352.538	83
352.765	91
352.992	92
353.22	94
353.447	83
353.674	82
353.901	96
354.128	81
354.355	91
354.583	89
354.81	93
355.037	78
355.264	90
355.491	102
355.718	80
355.945	86
356.172	96
356.399	97
356.626	103
356.853	107
357.08	92
357.307	87
357.534	91
357.761	105
357.988	102
358.215	95
358.441	83
358.668	101
358.895	93
359.122	86
359.349	85
359.576	86
359.802	96
360.029	106
360.256	96
360.483	95
360.709	96
360.936	88
361.163	94
361.39	87
361.616	99
361.843	94
362.07	95
362.296	88
362.523	93
362.749	94
362.976	84
363.203	92
363.429	79
363.656	100
363.882	83
364.109	91
364.335	87
364.562	98
364.788	100
365.015	94
365.241	88
365.468	93
365.694	104
365.92	90
366.147	101
366.373	95
366.599	98
366.826	105
367.052	98
367.278	86
367.505	87
367.731	77
367.957	83
368.184	86
368.41	83
368.636	96
368.862	101
369.089	76
369.315	82
369.541	102
369.767	91
369.993	89
370.219	92
370.445	83
370.672	87
370.898	92
371.124	96
371.35	82
371.576	99
371.802	91
372.028	98
372.254	85
372.48	82
372.706	81
372.932	106
373.158	87
373.384	100
373.61	96
373.835	88
374.061	95
374.287	83
374.513	84
374.739	88
374.965	91
375.191	75
375.416	94
375.642	92
375.868	97
376.094	88
376.319	80
376.545	85
376.771	97
376.997	91
377.222	82
377.448	88
377.674	95
377.899	86
378.125	88
378.35	103
378.576	88
378.802	95
379.027	99
379.253	86
379.478	98
379.704	97
379.929	89
380.155	87
380.38	97
380.606	105
380.831	95
381.057	97
381.282	87
381.507	86
381.733	95
381.958	99
382.184	86
382.409	96
382.634	88
382.86	81
383.085	108
383.31	79
383.535	79
383.761	98
383.986	91
384.211	87
384.436	91
384.662	94
384.887	96
385.112	92
385.337	105
385.562	104
385.787	87
386.013	91
386.238	94
386.463	94
386.688	101
386.913	101
387.138	79
387.363	96
387.588	112
387.813	93
388.038	82
388.263	79
388.488	85
388.713	81
388.938	92
389.163	99
389.387	92
389.612	88
389.837	94
390.062	99
390.287	110
390.512	96
390.736	77
390.961	106
391.186	103
391.411	100
391.636	108
391.86	93
392.085	99
392.31	106
392.534	82
392.759	101
392.984	92
393.208	105
393.433	99
393.658	98
393.882	92
394.107	97
394.331	90
394.556	95
394.78	100
395.005	100
395.229	88
395.454	96
395.678	100
395.903	93
396.127	91
396.352	91
396.576	71
396.801	94
397.025	106
397.249	95
397.474	95
397.698	95
397.922	80
398.147	90
398.371	96
398.595	101
398.82	100
399.044	91
399.268	108
399.492	110
399.717	106
399.941	108
400.165	100
400.389	100
400.613	102
400.837	94
401.062	106
401.286	92
401.51	98
401.734	87
401.958	104
402.182	88
402.406	93
402.63	96
402.854	104
403.078	103
403.302	112
403.526	113
403.75	100
403.974	90
404.198	106
404.422	111
404.645	97
404.869	95
405.093	96
405.317	95
405.541	89
405.765	103
405.988	97
406.212	93
406.436	107
406.66	103
406.883	105
407.107	107
407.331	111
407.555	120
407.778	120
408.002	104
408.226	112
408.449	98
408.673	107
408.896	105
409.12	91
409.344	92
409.567	86
409.791	100
410.014	112
410.238	111
410.461	98
410.685	78
410.908	92
411.132	99
411.355	89
411.578	104
411.802	96
412.025	98
412.249	87
412.472	89
412.695	101
412.919	98
413.142	96
413.365	107
413.589	106
413.812	94
414.035	99
414.258	102
414.482	83
414.705	103
414.928	96
415.151	96
415.374	92
415.597	89
415.821	98
416.044	99
416.267	94
416.49	91
416.713	89
416.936	94
417.159	104
417.382	88
417.605	94
417.828	97
418.051	98
418.274	86
418.497	75
418.72	88
418.943	96
419.166	85
419.389	98
419.611	90
419.834	95
420.057	92
420.28	98
420.503	98
420.726	114
420.948	90
421.171	104
421.394	87
421.617	97
421.839	100
422.062	94
422.285	102
422.507	86
422.73	111
422.953	98
423.175	89
423.398	87
423.621	90
423.843	102
424.066	97
424.288	106
424.511	94
424.733	108
424.956	94
425.178	87
425.401	93
425.623	114
425.846	92
426.068	91
426.291	101
426.513	99
426.735	93
426.958	99
427.18	105
427.402	96
427.625	98
427.847	105
428.069	93
428.292	107
428.514	91
428.736	107
428.958	99
429.181	99
429.403	104
429.625	115
429.847	87
430.069	95
430.292	97
430.514	79
430.736	116
430.958	98
431.18	89
431.402	112
431.624	102
431.846	107
432.068	100
432.29	78
432.512	104
432.734	96
432.956	97
433.178	108
433.4	97
433.622	103
433.844	89
434.066	111
434.287	99
434.509	95
434.731	102
434.953	98
435.175	93
435.397	108
435.618	112
435.84	87
436.062	91
436.284	96
436.505	109
436.727	87
436.949	100
437.17	95
437.392	104
437.614	101
437.835	99
438.057	103
438.278	87
438.5	99
438.721	103
438.943	89
439.165	100
439.386	100
439.608	95
439.829	87
440.05	110
440.272	107
440.493	114
440.715	93
440.936	90
441.158	86
441.379	89
441.6	104
441.822	104
442.043	96
442.264	106
442.486	103
442.707	98
442.928	107
443.149	99
443.371	98
443.592	80
443.813	88
444.034	100
444.255	108
444.476	110
444.698	97
444.919	98
445.14	207
445.361	136
445.582	107
445.803	98
446.024	115
446.245	101
446.466	100
446.687	91
446.908	100
447.129	114
447.35	95
447.571	86
447.792	95
448.013	83
448.234	94
448.455	108
448.675	80
448.896	92
449.117	73
449.338	96
449.559	114
449.779	86
450	94
450.221	88
450.442	85
450.662	82
450.883	91
451.104	78
451.324	103
451.545	95
451.766	107
451.986	86
452.207	111
452.428	97
452.648	100
452.869	99
453.089	83
453.31	106
453.53	94
453.751	101
453.971	87
454.192	100
454.412	102
454.633	90
454.853	89
455.073	87
455.294	74
455.514	100
455.734	96
455.955	107
456.175	96
456.395	79
456.616	84
456.836	106
457.056	85
457.276	92
457.497	101
457.717	86
457.937	102
458.157	86
458.377	87
458.598	92
458.818	107
459.038	86
459.258	78
459.478	103
459.698	84
459.918	85
460.138	91
460.358	103
460.578	110
460.798	97
461.018	98
461.238	87
461.458	106
461.678	92
461.898	109
462.118	112
462.338	119
462.558	110
462.777	120
462.997	99
463.217	96
463.437	103
463.657	111
463.876	102
464.096	100
464.316	109
464.536	112
464.755	94
464.975	96
465.195	100
465.414	102
465.634	86
465.854	99
466.073	103
466.293	100
466.512	98
466.732	94
466.951	93
467.171	105
467.391	101
467.61	92
467.829	101
468.049	83
468.268	90
468.488	88
468.707	95
468.927	110
469.146	79
469.365	95
469.585	94
469.804	103
470.023	101
470.243	90
470.462	102
470.681	101
470.901	113
471.12	101
471.339	112
471.558	87
471.777	99
471.997	105
472.216	92
472.435	95
472.654	103
472.873	95
473.092	99
473.311	104
473.53	106
473.749	119
473.968	107
474.187	94
474.406	91
474.625	94
474.844	98
475.063	92
475.282	91
475.501	107
475.72	103
475.939	97
476.158	104
476.377	102
476.596	106
476.814	91
477.033	106
477.252	98
477.471	100
477.69	112
477.908	105
478.127	107
478.346	115
478.564	90
478.783	112
479.002	113
479.22	96
479.439	96
479.658	121
479.876	105
480.095	86
480.313	113
480.532	104
480.751	101
480.969	98
481.188	110
481.406	112
481.624	102
481.843	96
482.061	94
482.28	113
482.498	114
482.717	95
482.935	98
483.153	104
483.372	106
483.59	116
483.808	112
484.027	92
484.245	95
484.463	121
484.681	118
484.9	102
485.118	99
485.336	104
485.554	86
485.772	108
485.99	104
486.209	99
486.427	98
486.645	103
486.863	104
487.081	114
487.299	99
487.517	103
487.735	111
487.953	98
488.171	106
488.389	116
488.607	102
488.825	103
489.043	90
489.261	104
489.479	108
489.696	85
489.914	114
490.132	116
490.35	112
490.568	92
490.786	112
491.003	123
491.221	122
491.439	117
491.657	120
491.874	99
492.092	103
492.31	122
492.527	110
492.745	110
492.963	119
493.18	112
493.398	120
493.615	120
493.833	121
494.05	104
494.268	120
494.485	122
494.703	110
494.92	98
495.138	116
495.355	109
495.573	110
495.79	116
496.008	111
496.225	110
496.442	106
496.66	117
496.877	110
497.094	119
497.312	119
497.529	117
497.746	118
497.963	111
498.181	99
498.398	110
498.615	114
498.832	117
499.049	123
499.267	124
499.484	124
499.701	124
499.918	135
500.135	148
500.352	150
500.569	166
500.786	160
501.003	160
501.22	162
501.437	154
501.654	126
501.871	114
502.088	104
502.305	130
502.522	121
502.739	123
502.956	107
503.172	120
503.389	128
503.606	116
503.823	121
504.04	115
504.256	90
504.473	115
504.69	115
504.907	111
505.123	95
505.34	120
505.557	114
505.773	98
505.99	105
506.207	96
506.423	99
506.64	100
506.856	89
507.073	81
507.289	102
507.506	111
507.722	112
507.939	107
508.155	107
508.372	88
508.588	91
508.805	116
509.021	98
509.238	107
509.454	98
509.67	109
509.887	88
510.103	98
510.319	101
510.536	106
510.752	103
510.968	91
511.184	100
511.401	88
511.617	100
511.833	95
512.049	97
512.265	102
512.481	112
512.698	105
512.914	92
513.13	99
513.346	100
513.562	102
513.778	88
513.994	89
514.21	110
514.426	111
514.642	103
514.858	107
515.074	112
515.29	99
515.506	96
515.721	89
515.937	100
516.153	96
516.369	107
516.585	102
516.801	102
517.016	109
517.232	96
517.448	110
517.664	126
517.879	117
518.095	108
518.311	111
518.527	99
518.742	103
518.958	103
519.173	86
519.389	111
519.605	90
519.82	99
520.036	102
520.251	107
520.467	100
520.682	115
520.898	98
521.113	97
521.329	90
521.544	97
521.76	94
521.975	107
522.19	113
522.406	105
522.621	106
522.836	102
523.052	90
523.267	86
523.482	106
523.698	83
523.913	95
524.128	108
524.343	96
524.559	98
524.774	98
524.989	106
525.204	113
525.419	112
525.634	98
525.849	96
526.064	98
526.28	123
526.495	114
526.71	101
526.925	119
527.14	100
527.355	90
527.57	91
527.785	88
527.999	96
528.214	100
528.429	108
528.644	111
528.859	101
529.074	96
529.289	101
529.503	110
529.718	113
529.933	107
530.148	96
530.363	99
530.577	105
530.792	95
531.007	90
531.221	111
531.436	86
531.651	94
531.865	106
532.08	103
532.295	108
532.509	91
532.724	95
532.938	111
533.153	90
533.367	110
533.582	104
533.796	94
534.011	107
534.225	114
534.44	86
534.654	99
534.868	96
535.083	98
535.297	100
535.511	119
535.726	99
535.94	105
536.154	98
536.369	103
536.583	91
536.797	112
537.011	100
537.225	89
537.44	92
537.654	99
537.868	95
538.082	97
538.296	94
538.51	102
538.724	87
538.938	118
539.153	112
539.367	89
539.581	118
539.795	103
540.009	96
540.222	100
540.436	100
540.65	102
540.864	100
541.078	106
541.292	107
541.506	99
541.72	108
541.934	101
542.147	112
542.361	112
542.575	107
542.789	109
543.002	114
543.216	103
543.43	113
543.644	105
543.857	107
544.071	108
544.285	115
544.498	118
544.712	118
544.925	97
545.139	91
545.352	110
545.566	109
545.779	107
545.993	108
546.206	107
546.42	103
546.633	110
546.847	106
547.06	99
547.274	100
547.487	100
547.7	106
547.914	102
548.127	102
548.34	100
548.554	92
548.767	99
548.98	106
549.193	105
549.407	112
549.62	89
549.833	112
550.046	92
550.259	105
550.473	112
550.686	88
550.899	89
551.112	100
551.325	126
551.538	97
551.751	98
551.964	88
552.177	114
552.39	108
552.603	100
552.816	102
553.029	106
553.242	101
553.455	106
553.667	92
553.88	94
554.093	106
554.306	106
554.519	118
554.732	98
554.944	101
555.157	104
555.37	98
555.583	107
555.795	95
556.008	105
556.221	101
556.433	82
556.646	88
556.859	89
557.071	90
557.284	96
557.496	107
557.709	82
557.921	85
558.134	92
558.346	90
558.559	98
558.771	84
558.984	97
559.196	92
559.409	101
559.621	110
559.833	112
560.046	97
560.258	82
560.47	91
560.683	90
560.895	109
561.107	96
561.32	104
561.532	107
561.744	104
561.956	106
562.168	110
562.381	107
562.593	100
562.805	89
563.017	86
563.229	88
563.441	104
563.653	99
563.865	91
564.077	98
564.289	110
564.501	94
564.713	101
564.925	99
565.137	90
565.349	101
565.561	96
565.773	91
565.985	109
566.197	104
566.408	93
566.62	107
566.832	107
567.044	105
567.255	111
567.467	98
567.679	118
567.891	108
568.102	103
568.314	91
568.526	106
568.737	104
568.949	91
569.161	115
569.372	103
569.584	89
569.795	101
570.007	96
570.218	97
570.43	93
570.641	91
570.853	100
571.064	91
571.276	85
571.487	101
571.698	89
571.91	107
572.121	86
572.333	91
572.544	90
572.755	99
572.966	89
573.178	98
573.389	80
573.6	105
573.811	89
574.023	91
574.234	86
574.445	98
574.656	84
574.867	91
575.078	93
575.289	101
575.501	84
575.712	111
575.923	101
576.134	98
576.345	103
576.556	103
576.767	84
576.978	94
577.188	90
577.399	99
577.61	99
577.821	101
578.032	92
578.243	99
578.454	86
578.665	96
578.875	75
579.086	99
579.297	82
579.508	102
579.718	95
579.929	94
580.14	98
580.35	100
580.561	104
580.772	102
580.982	88
581.193	92
581.403	89
581.614	100
581.825	94
582.035	88
582.246	90
582.456	85
582.667	97
582.877	97
583.087	92
583.298	90
583.508	95
583.719	84
583.929	89
584.139	84
584.35	90
584.56	81
584.77	80
584.981	80
585.191	86
585.401	92
585.611	86
585.821	102
586.032	90
586.242	93
586.452	98
586.662	75
586.872	89
587.082	100
587.292	102
587.502	82
587.713	82
587.923	85
588.133	101
588.343	86
588.553	87
588.762	72
588.972	95
589.182	106
589.392	99
589.602	102
589.812	99
590.022	81
590.232	103
590.441	89
590.651	86
590.861	96
591.071	92
591.281	98
591.49	106
591.7	85
591.91	92
592.119	97
592.329	97
592.539	77
592.748	88
592.958	88
593.167	91
593.377	91
593.587	95
593.796	97
594.006	96
594.215	99
594.424	80
594.634	84
594.843	90
595.053	88
595.262	83
595.472	87
595.681	97
595.89	96
596.1	96
596.309	100
596.518	98
596.727	98
596.937	89
597.146	74
597.355	87
597.564	98
597.774	104
597.983	86
598.192	103
598.401	87
598.61	94
598.819	105
599.028	97
599.237	83
599.446	84
599.655	88
599.864	78
600.073	74
600.282	95
600.491	99
600.7	100
600.909	89
601.118	85
601.327	87
601.536	91
601.745	80
601.953	85
602.162	87
602.371	98
602.58	89
602.789	90
602.997	87
603.206	89
603.415	104
603.623	98
603.832	96
604.041	98
604.249	90
604.458	84
604.666	91
604.875	104
605.084	81
605.292	81
605.501	91
605.709	99
605.918	80
606.126	96
606.334	80
606.543	96
606.751	88
606.96	105
607.168	92
607.376	84
607.585	92
607.793	85
608.001	90
608.21	93
608.418	96
608.626	76
608.834	75
609.043	64
609.251	85
609.459	96
609.667	86
609.875	98
610.083	82
610.291	83
610.499	98
610.707	96
610.916	83
611.124	89
611.332	102
611.54	83
611.748	93
611.955	79
612.163	101
612.371	90
612.579	94
612.787	92
612.995	99
613.203	94
613.411	95
613.618	97
613.826	85
614.034	93
614.242	85
614.449	84
614.657	93
614.865	97
615.072	91
615.28	92
615.488	95
615.695	90
615.903	93
616.111	88
616.318	86
616.526	85
616.733	94
616.941	80
617.148	99
617.356	91
617.563	94
617.771	82
617.978	85
618.185	82
618.393	83
618.6	75
618.807	84
619.015	95
619.222	81
619.429	96
619.637	95
619.844	83
620.051	89
620.258	92
620.466	78
620.673	72
620.88	94
621.087	82
621.294	76
621.501	86
621.708	86
621.915	90
622.122	82
622.329	87
622.536	88
622.743	101
622.95	72
623.157	98
623.364	91
623.571	81
623.778	80
623.985	95
624.192	99
624.399	94
624.606	81
624.812	90
625.019	93
625.226	88
625.433	100
625.639	103
625.846	75
626.053	85
626.259	90
626.466	98
626.673	88
626.879	86
627.086	89
627.293	78
627.499	87
627.706	78
627.912	87
628.119	86
628.325	81
628.532	90
628.738	104
628.945	81
629.151	94
629.357	84
629.564	74
629.77	80
629.976	89
630.183	89
630.389	91
630.595	86
630.802	87
631.008	91
631.214	83
631.42	84
631.627	98
631.833	84
632.039	88
632.245	95
632.451	96
632.657	85
632.863	87
633.069	83
633.275	83
633.481	79
633.688	90
633.893	91
634.099	91
634.305	107
634.511	91
634.717	88
634.923	75
635.129	84
635.335	87
635.541	83
635.747	99
635.952	97
636.158	80
636.364	75
636.57	80
636.775	89
636.981	92
637.187	85
637.392	85
637.598	83
637.804	85
638.009	92
638.215	98
638.421	80
638.626	86
638.832	71
639.037	85
639.243	90
639.448	83
639.654	81
639.859	87
640.065	74
640.27	86
640.475	80
640.681	88
640.886	99
641.091	85
641.297	92
641.502	84
641.707	63
641.913	91
642.118	76
642.323	74
642.528	87
642.733	79
642.939	87
643.144	75
643.349	87
643.554	90
643.759	80
643.964	82
644.169	95
644.374	91
644.579	97
644.784	85
644.989	90
645.194	79
645.399	96
645.604	83
645.809	96
646.014	83
646.219	79
646.423	84
646.628	79
646.833	78
647.038	92
647.243	84
647.447	82
647.652	84
647.857	94
648.062	88
648.266	97
648.471	92
648.676	81
648.88	87
649.085	94
649.289	88
649.494	77
649.698	91
649.903	85
650.107	68
650.312	74
650.516	72
650.721	84
650.925	90
651.13	82
651.334	92
651.539	88
651.743	86
651.947	98
652.152	76
652.356	81
652.56	84
652.764	83
652.969	76
653.173	84
653.377	87
653.581	74
653.785	100
653.99	95
654.194	84
654.398	100
654.602	80
654.806	73
655.01	72
655.214	82
655.418	75
655.622	79
655.826	90
656.03	74
656.234	83
656.438	80
656.642	78
656.846	92
657.049	86
657.253	91
657.457	88
657.661	84
657.865	80
658.068	73
658.272	86
658.476	85
658.68	80
658.883	87
659.087	82
659.291	83
659.494	86
659.698	94
659.901	89
660.105	80
660.309	86
660.512	88
660.716	81
660.919	86
661.123	77
661.326	74
661.53	89
661.733	75
661.936	75
662.14	73
662.343	66
662.546	85
662.75	88
662.953	83
663.156	79
663.36	76
663.563	83
663.766	89
663.969	75
664.173	77
664.376	84
664.579	79
664.782	78
664.985	81
665.188	91
665.391	75
665.594	89
665.797	78
666	82
666.203	82
666.406	91
666.609	76
666.812	72
667.015	79
667.218	75
667.421	90
667.624	83
667.827	93
668.03	94
668.232	78
668.435	66
668.638	67
668.841	67
669.043	71
669.246	73
669.449	83
669.651	79
669.854	71
670.057	84
670.259	82
670.462	73
670.665	68
670.867	87
671.07	76
671.272	84
671.475	86
671.677	84
671.88	87
672.082	89
672.284	86
672.487	84
672.689	72
672.892	80
