Data from Location5.07152019.Energy5.Lamp.07192019.3%Agarose_HRD10591_15-38-05-387.txt Node
Date: Fri Jul 19 15:38:05 EDT 2019
User: cochatt
Spectrometer: HR+D1059
Trigger mode: 1
Integration Time (sec): 1.000000E-1
Scans to average: 1
Electric dark correction enabled: true
Nonlinearity correction enabled: false
Boxcar width: 0
XAxis mode: Wavelengths
Number of Pixels in Spectrum: 2048
>>>>>Begin Spectral Data<<<<<
223.165	-1
223.4	-1
223.635	-1
223.869	-19
224.104	-26
224.338	-12
224.573	-27
224.808	-2
225.042	-2
225.277	-11
225.511	-12
225.746	12
225.98	10
226.215	14
226.449	12
226.683	16
226.918	20
227.152	28
227.387	24
227.621	45
227.856	34
228.09	60
228.324	53
228.559	54
228.793	73
229.027	67
229.262	78
229.496	75
229.73	66
229.964	52
230.199	65
230.433	79
230.667	74
230.901	80
231.136	75
231.37	70
231.604	86
231.838	83
232.072	85
232.306	77
232.541	72
232.775	95
233.009	92
233.243	75
233.477	79
233.711	82
233.945	80
234.179	83
234.413	82
234.647	85
234.881	89
235.115	87
235.349	93
235.583	84
235.817	71
236.051	75
236.285	70
236.519	77
236.753	61
236.987	71
237.221	79
237.455	86
237.689	85
237.922	83
238.156	89
238.39	81
238.624	84
238.858	72
239.091	73
239.325	77
239.559	73
239.793	71
240.027	76
240.26	71
240.494	61
240.728	89
240.961	73
241.195	89
241.429	73
241.662	84
241.896	74
242.13	68
242.363	76
242.597	88
242.83	87
243.064	84
243.298	66
243.531	61
243.765	73
243.998	76
244.232	85
244.465	97
244.699	72
244.932	84
245.166	76
245.399	82
245.633	75
245.866	87
246.099	90
246.333	83
246.566	80
246.8	84
247.033	81
247.266	75
247.5	80
247.733	90
247.966	77
248.2	78
248.433	78
248.666	74
248.899	79
249.133	77
249.366	85
249.599	77
249.832	72
250.066	78
250.299	71
250.532	79
250.765	86
250.998	66
251.231	78
251.465	69
251.698	81
251.931	76
252.164	81
252.397	83
252.63	78
252.863	83
253.096	84
253.329	76
253.562	79
253.795	82
254.028	74
254.261	92
254.494	84
254.727	86
254.96	94
255.193	78
255.426	61
255.659	89
255.892	82
256.124	91
256.357	77
256.59	78
256.823	93
257.056	95
257.289	72
257.521	85
257.754	86
257.987	75
258.22	89
258.452	81
258.685	73
258.918	84
259.151	74
259.383	63
259.616	80
259.849	76
260.081	82
260.314	75
260.547	94
260.779	84
261.012	88
261.244	88
261.477	84
261.71	79
261.942	66
262.175	78
262.407	76
262.64	87
262.872	91
263.105	93
263.337	89
263.57	81
263.802	87
264.035	88
264.267	86
264.499	99
264.732	93
264.964	70
265.197	78
265.429	73
265.661	95
265.894	91
266.126	84
266.358	76
266.591	79
266.823	79
267.055	80
267.287	92
267.52	90
267.752	96
267.984	92
268.216	89
268.448	87
268.681	80
268.913	92
269.145	86
269.377	106
269.609	81
269.841	94
270.073	81
270.306	86
270.538	70
270.77	87
271.002	72
271.234	84
271.466	91
271.698	99
271.93	85
272.162	99
272.394	92
272.626	97
272.858	74
273.09	90
273.322	94
273.553	85
273.785	93
274.017	80
274.249	79
274.481	92
274.713	88
274.945	89
275.176	96
275.408	94
275.64	83
275.872	89
276.104	79
276.335	99
276.567	87
276.799	93
277.031	87
277.262	93
277.494	90
277.726	90
277.957	76
278.189	72
278.421	84
278.652	95
278.884	92
279.115	106
279.347	84
279.579	90
279.81	87
280.042	82
280.273	95
280.505	84
280.736	75
280.968	84
281.199	90
281.431	77
281.662	78
281.894	88
282.125	92
282.356	100
282.588	85
282.819	96
283.051	89
283.282	84
283.513	97
283.745	93
283.976	87
284.207	97
284.439	82
284.67	79
284.901	104
285.132	91
285.364	100
285.595	93
285.826	74
286.057	96
286.288	88
286.52	95
286.751	81
286.982	85
287.213	87
287.444	96
287.675	82
287.906	108
288.138	82
288.369	94
288.6	82
288.831	69
289.062	96
289.293	97
289.524	93
289.755	80
289.986	78
290.217	84
290.448	85
290.679	83
290.91	98
291.141	82
291.371	75
291.602	86
291.833	92
292.064	81
292.295	81
292.526	83
292.757	96
292.987	98
293.218	97
293.449	87
293.68	80
293.91	80
294.141	93
294.372	88
294.603	78
294.833	97
295.064	83
295.295	96
295.525	86
295.756	62
295.987	92
296.217	85
296.448	84
296.679	90
296.909	88
297.14	91
297.37	97
297.601	93
297.831	84
298.062	80
298.292	97
298.523	85
298.753	91
298.984	84
299.214	97
299.445	101
299.675	94
299.905	83
300.136	83
300.366	86
300.597	88
300.827	80
301.057	84
301.288	93
301.518	90
301.748	85
301.979	86
302.209	87
302.439	83
302.669	90
302.9	98
303.13	74
303.36	99
303.59	78
303.82	98
304.051	91
304.281	88
304.511	83
304.741	81
304.971	93
305.201	92
305.431	94
305.661	82
305.891	87
306.121	87
306.352	93
306.582	93
306.812	86
307.042	86
307.272	80
307.502	105
307.731	85
307.961	94
308.191	91
308.421	77
308.651	89
308.881	92
309.111	95
309.341	89
309.571	98
309.8	90
310.03	77
310.26	87
310.49	96
310.72	76
310.949	85
311.179	86
311.409	94
311.639	86
311.868	93
312.098	82
312.328	79
312.557	87
312.787	93
313.017	94
313.246	91
313.476	91
313.706	98
313.935	88
314.165	96
314.394	88
314.624	91
314.853	95
315.083	76
315.312	76
315.542	84
315.771	85
316.001	94
316.23	103
316.46	81
316.689	105
316.919	95
317.148	88
317.377	93
317.607	85
317.836	77
318.065	97
318.295	95
318.524	83
318.753	83
318.983	74
319.212	86
319.441	93
319.67	89
319.9	85
320.129	92
320.358	90
320.587	83
320.816	93
321.046	95
321.275	80
321.504	83
321.733	90
321.962	94
322.191	83
322.42	85
322.649	91
322.878	100
323.108	89
323.337	102
323.566	81
323.795	101
324.024	78
324.253	81
324.482	88
324.71	83
324.939	91
325.168	92
325.397	82
325.626	91
325.855	81
326.084	85
326.313	74
326.542	82
326.77	85
326.999	92
327.228	81
327.457	77
327.686	58
327.914	77
328.143	97
328.372	86
328.6	83
328.829	84
329.058	91
329.287	83
329.515	74
329.744	76
329.972	68
330.201	87
330.43	100
330.658	83
330.887	86
331.115	84
331.344	86
331.572	93
331.801	85
332.03	87
332.258	78
332.486	87
332.715	72
332.943	92
333.172	77
333.4	85
333.629	84
333.857	99
334.085	97
334.314	75
334.542	84
334.771	83
334.999	85
335.227	78
335.455	85
335.684	87
335.912	107
336.14	99
336.369	91
336.597	85
336.825	88
337.053	81
337.281	81
337.51	84
337.738	87
337.966	94
338.194	97
338.422	84
338.65	88
338.878	74
339.106	92
339.334	74
339.562	86
339.79	78
340.018	93
340.246	82
340.474	92
340.702	85
340.93	69
341.158	91
341.386	80
341.614	83
341.842	77
342.07	73
342.298	89
342.526	92
342.754	88
342.981	85
343.209	100
343.437	84
343.665	92
343.893	89
344.12	86
344.348	83
344.576	84
344.804	80
345.031	89
345.259	89
345.487	91
345.714	80
345.942	106
346.17	88
346.397	89
346.625	81
346.853	84
347.08	73
347.308	81
347.535	95
347.763	81
347.99	91
348.218	82
348.445	100
348.673	85
348.9	93
349.128	89
349.355	97
349.583	89
349.81	77
350.037	90
350.265	86
350.492	94
350.72	85
350.947	98
351.174	88
351.402	90
351.629	93
351.856	85
352.083	79
352.311	76
352.538	88
352.765	93
352.992	89
353.22	95
353.447	103
353.674	101
353.901	90
354.128	80
354.355	88
354.583	71
354.81	97
355.037	86
355.264	84
355.491	88
355.718	85
355.945	89
356.172	86
356.399	76
356.626	92
356.853	80
357.08	70
357.307	88
357.534	81
357.761	78
357.988	72
358.215	99
358.441	78
358.668	78
358.895	83
359.122	89
359.349	101
359.576	101
359.802	75
360.029	85
360.256	85
360.483	97
360.709	87
360.936	74
361.163	90
361.39	86
361.616	89
361.843	89
362.07	88
362.296	90
362.523	90
362.749	85
362.976	80
363.203	76
363.429	76
363.656	78
363.882	74
364.109	78
364.335	85
364.562	91
364.788	89
365.015	70
365.241	80
365.468	89
365.694	89
365.92	88
366.147	83
366.373	84
366.599	83
366.826	96
367.052	94
367.278	89
367.505	75
367.731	100
367.957	85
368.184	99
368.41	81
368.636	87
368.862	99
369.089	92
369.315	80
369.541	81
369.767	77
369.993	90
370.219	89
370.445	87
370.672	90
370.898	93
371.124	85
371.35	89
371.576	80
371.802	84
372.028	96
372.254	90
372.48	96
372.706	68
372.932	86
373.158	87
373.384	88
373.61	85
373.835	96
374.061	89
374.287	100
374.513	88
374.739	88
374.965	88
375.191	90
375.416	88
375.642	91
375.868	83
376.094	106
376.319	84
376.545	91
376.771	84
376.997	84
377.222	83
377.448	78
377.674	81
377.899	106
378.125	75
378.35	84
378.576	91
378.802	88
379.027	83
379.253	89
379.478	81
379.704	96
379.929	81
380.155	88
380.38	86
380.606	82
380.831	74
381.057	85
381.282	93
381.507	92
381.733	91
381.958	82
382.184	80
382.409	96
382.634	100
382.86	86
383.085	85
383.31	66
383.535	76
383.761	94
383.986	86
384.211	80
384.436	81
384.662	99
384.887	87
385.112	96
385.337	82
385.562	94
385.787	77
386.013	85
386.238	93
386.463	94
386.688	94
386.913	83
387.138	92
387.363	102
387.588	87
387.813	88
388.038	98
388.263	83
388.488	74
388.713	85
388.938	89
389.163	85
389.387	90
389.612	107
389.837	83
390.062	90
390.287	93
390.512	85
390.736	89
390.961	88
391.186	91
391.411	93
391.636	83
391.86	77
392.085	86
392.31	92
392.534	72
392.759	82
392.984	93
393.208	90
393.433	100
393.658	89
393.882	107
394.107	82
394.331	84
394.556	86
394.78	90
395.005	94
395.229	79
395.454	79
395.678	84
395.903	81
396.127	97
396.352	89
396.576	106
396.801	85
397.025	87
397.249	91
397.474	75
397.698	78
397.922	101
398.147	81
398.371	87
398.595	80
398.82	77
399.044	85
399.268	85
399.492	89
399.717	92
399.941	86
400.165	95
400.389	93
400.613	92
400.837	92
401.062	98
401.286	105
401.51	89
401.734	92
401.958	89
402.182	96
402.406	89
402.63	80
402.854	94
403.078	85
403.302	86
403.526	92
403.75	75
403.974	81
404.198	88
404.422	72
404.645	81
404.869	92
405.093	87
405.317	97
405.541	91
405.765	81
405.988	87
406.212	91
406.436	99
406.66	88
406.883	90
407.107	91
407.331	85
407.555	82
407.778	83
408.002	102
408.226	86
408.449	99
408.673	96
408.896	85
409.12	99
409.344	94
409.567	87
409.791	99
410.014	91
410.238	97
410.461	94
410.685	82
410.908	87
411.132	85
411.355	82
411.578	84
411.802	87
412.025	87
412.249	91
412.472	99
412.695	78
412.919	97
413.142	91
413.365	99
413.589	93
413.812	107
414.035	84
414.258	83
414.482	98
414.705	93
414.928	101
415.151	87
415.374	91
415.597	100
415.821	97
416.044	101
416.267	96
416.49	87
416.713	71
416.936	91
417.159	81
417.382	93
417.605	88
417.828	93
418.051	96
418.274	84
418.497	86
418.72	98
418.943	94
419.166	89
419.389	98
419.611	84
419.834	80
420.057	104
420.28	87
420.503	75
420.726	102
420.948	95
421.171	89
421.394	96
421.617	90
421.839	84
422.062	98
422.285	99
422.507	96
422.73	96
422.953	92
423.175	81
423.398	94
423.621	96
423.843	93
424.066	88
424.288	95
424.511	83
424.733	102
424.956	94
425.178	97
425.401	98
425.623	95
425.846	96
426.068	97
426.291	85
426.513	86
426.735	100
426.958	79
427.18	96
427.402	88
427.625	108
427.847	95
428.069	97
428.292	86
428.514	96
428.736	90
428.958	92
429.181	94
429.403	74
429.625	96
429.847	85
430.069	90
430.292	85
430.514	104
430.736	79
430.958	90
431.18	101
431.402	96
431.624	88
431.846	86
432.068	88
432.29	92
432.512	92
432.734	91
432.956	90
433.178	99
433.4	90
433.622	97
433.844	101
434.066	90
434.287	98
434.509	81
434.731	90
434.953	86
435.175	89
435.397	89
435.618	99
435.84	94
436.062	86
436.284	91
436.505	106
436.727	93
436.949	106
437.17	100
437.392	102
437.614	96
437.835	104
438.057	82
438.278	102
438.5	84
438.721	92
438.943	101
439.165	99
439.386	98
439.608	87
439.829	103
440.05	100
440.272	101
440.493	82
440.715	84
440.936	101
441.158	114
441.379	91
441.6	103
441.822	104
442.043	95
442.264	114
442.486	96
442.707	108
442.928	102
443.149	107
443.371	93
443.592	92
443.813	81
444.034	99
444.255	98
444.476	93
444.698	97
444.919	100
445.14	224
445.361	154
445.582	107
445.803	101
446.024	95
446.245	93
446.466	104
446.687	108
446.908	117
447.129	92
447.35	84
447.571	99
447.792	85
448.013	98
448.234	99
448.455	99
448.675	96
448.896	94
449.117	99
449.338	93
449.559	88
449.779	85
450	88
450.221	103
450.442	95
450.662	111
450.883	104
451.104	100
451.324	100
451.545	97
451.766	93
451.986	91
452.207	85
452.428	78
452.648	86
452.869	91
453.089	85
453.31	106
453.53	77
453.751	102
453.971	98
454.192	81
454.412	96
454.633	100
454.853	90
455.073	82
455.294	105
455.514	86
455.734	99
455.955	90
456.175	90
456.395	90
456.616	87
456.836	101
457.056	93
457.276	85
457.497	94
457.717	102
457.937	81
458.157	89
458.377	84
458.598	82
458.818	91
459.038	81
459.258	84
459.478	91
459.698	72
459.918	89
460.138	94
460.358	103
460.578	88
460.798	92
461.018	83
461.238	100
461.458	90
461.678	88
461.898	99
462.118	85
462.338	89
462.558	82
462.777	76
462.997	103
463.217	91
463.437	100
463.657	91
463.876	94
464.096	110
464.316	96
464.536	85
464.755	81
464.975	79
465.195	95
465.414	85
465.634	88
465.854	97
466.073	96
466.293	102
466.512	107
466.732	94
466.951	99
467.171	91
467.391	105
467.61	93
467.829	104
468.049	105
468.268	95
468.488	100
468.707	91
468.927	90
469.146	87
469.365	97
469.585	93
469.804	92
470.023	100
470.243	102
470.462	98
470.681	104
470.901	102
471.12	82
471.339	88
471.558	105
471.777	84
471.997	83
472.216	90
472.435	94
472.654	79
472.873	104
473.092	105
473.311	105
473.53	100
473.749	105
473.968	97
474.187	82
474.406	81
474.625	91
474.844	95
475.063	89
475.282	86
475.501	94
475.72	104
475.939	77
476.158	87
476.377	108
476.596	100
476.814	93
477.033	86
477.252	87
477.471	98
477.69	95
477.908	99
478.127	105
478.346	87
478.564	100
478.783	94
479.002	95
479.22	85
479.439	88
479.658	95
479.876	92
480.095	93
480.313	91
480.532	88
480.751	96
480.969	84
481.188	86
481.406	81
481.624	90
481.843	85
482.061	84
482.28	94
482.498	90
482.717	88
482.935	95
483.153	118
483.372	102
483.59	104
483.808	94
484.027	104
484.245	81
484.463	104
484.681	108
484.9	119
485.118	98
485.336	96
485.554	99
485.772	88
485.99	87
486.209	96
486.427	80
486.645	93
486.863	96
487.081	108
487.299	84
487.517	96
487.735	95
487.953	126
488.171	113
488.389	114
488.607	96
488.825	88
489.043	92
489.261	99
489.479	107
489.696	114
489.914	104
490.132	87
490.35	112
490.568	109
490.786	102
491.003	105
491.221	107
491.439	109
491.657	109
491.874	124
492.092	125
492.31	139
492.527	122
492.745	124
492.963	109
493.18	107
493.398	119
493.615	124
493.833	116
494.05	112
494.268	101
494.485	104
494.703	95
494.92	113
495.138	115
495.355	112
495.573	115
495.79	98
496.008	105
496.225	117
496.442	96
496.66	114
496.877	122
497.094	97
497.312	106
497.529	103
497.746	104
497.963	104
498.181	108
498.398	102
498.615	92
498.832	104
499.049	76
499.267	96
499.484	92
499.701	101
499.918	101
500.135	88
500.352	97
500.569	94
500.786	96
501.003	111
501.22	112
501.437	104
501.654	95
501.871	107
502.088	90
502.305	92
502.522	102
502.739	106
502.956	92
503.172	92
503.389	103
503.606	94
503.823	88
504.04	90
504.256	108
504.473	88
504.69	104
504.907	116
505.123	114
505.34	100
505.557	88
505.773	106
505.99	85
506.207	78
506.423	105
506.64	86
506.856	110
507.073	77
507.289	98
507.506	99
507.722	99
507.939	102
508.155	91
508.372	103
508.588	95
508.805	92
509.021	82
509.238	82
509.454	101
509.67	89
509.887	76
510.103	83
510.319	85
510.536	100
510.752	85
510.968	75
511.184	90
511.401	86
511.617	83
511.833	81
512.049	91
512.265	99
512.481	83
512.698	89
512.914	78
513.13	84
513.346	79
513.562	86
513.778	72
513.994	69
514.21	100
514.426	92
514.642	80
514.858	90
515.074	72
515.29	92
515.506	71
515.721	85
515.937	84
516.153	93
516.369	87
516.585	93
516.801	94
517.016	85
517.232	89
517.448	85
517.664	98
517.879	79
518.095	94
518.311	90
518.527	79
518.742	84
518.958	101
519.173	86
519.389	71
519.605	90
519.82	90
520.036	77
520.251	96
520.467	86
520.682	83
520.898	92
521.113	87
521.329	91
521.544	80
521.76	87
521.975	93
522.19	87
522.406	93
522.621	92
522.836	82
523.052	92
523.267	107
523.482	92
523.698	87
523.913	106
524.128	91
524.343	94
524.559	102
524.774	88
524.989	92
525.204	90
525.419	101
525.634	101
525.849	97
526.064	92
526.28	90
526.495	90
526.71	82
526.925	87
527.14	98
527.355	73
527.57	86
527.785	78
527.999	94
528.214	79
528.429	86
528.644	88
528.859	96
529.074	93
529.289	93
529.503	106
529.718	101
529.933	94
530.148	84
530.363	102
530.577	85
530.792	89
531.007	80
531.221	84
531.436	77
531.651	86
531.865	93
532.08	74
532.295	100
532.509	97
532.724	92
532.938	78
533.153	92
533.367	85
533.582	92
533.796	104
534.011	86
534.225	83
534.44	97
534.654	91
534.868	97
535.083	82
535.297	91
535.511	100
535.726	107
535.94	86
536.154	91
536.369	89
536.583	91
536.797	90
537.011	92
537.225	83
537.44	81
537.654	102
537.868	83
538.082	95
538.296	78
538.51	84
538.724	96
538.938	100
539.153	90
539.367	99
539.581	93
539.795	77
540.009	100
540.222	85
540.436	90
540.65	92
540.864	74
541.078	100
541.292	99
541.506	92
541.72	111
541.934	112
542.147	111
542.361	106
542.575	100
542.789	98
543.002	99
543.216	102
543.43	104
543.644	114
543.857	108
544.071	104
544.285	109
544.498	126
544.712	90
544.925	111
545.139	104
545.352	91
545.566	116
545.779	98
545.993	119
546.206	113
546.42	94
546.633	127
546.847	114
547.06	92
547.274	105
547.487	109
547.7	91
547.914	112
548.127	107
548.34	112
548.554	103
548.767	112
548.98	120
549.193	117
549.407	104
549.62	90
549.833	108
550.046	114
550.259	105
550.473	91
550.686	103
550.899	98
551.112	112
551.325	104
551.538	106
551.751	100
551.964	94
552.177	91
552.39	96
552.603	92
552.816	106
553.029	103
553.242	103
553.455	119
553.667	118
553.88	100
554.093	104
554.306	103
554.519	94
554.732	92
554.944	96
555.157	109
555.37	118
555.583	109
555.795	104
556.008	102
556.221	96
556.433	84
556.646	105
556.859	94
557.071	97
557.284	105
557.496	104
557.709	95
557.921	110
558.134	112
558.346	100
558.559	101
558.771	106
558.984	85
559.196	91
559.409	102
559.621	117
559.833	99
560.046	94
560.258	93
560.47	101
560.683	99
560.895	75
561.107	97
561.32	91
561.532	93
561.744	95
561.956	105
562.168	108
562.381	89
562.593	90
562.805	91
563.017	107
563.229	97
563.441	102
563.653	83
563.865	89
564.077	96
564.289	90
564.501	94
564.713	97
564.925	100
565.137	98
565.349	94
565.561	94
565.773	91
565.985	110
566.197	105
566.408	89
566.62	99
566.832	90
567.044	93
567.255	94
567.467	78
567.679	91
567.891	108
568.102	92
568.314	89
568.526	93
568.737	86
568.949	101
569.161	88
569.372	81
569.584	81
569.795	72
570.007	78
570.218	87
570.43	94
570.641	83
570.853	96
571.064	88
571.276	86
571.487	65
571.698	90
571.91	98
572.121	96
572.333	86
572.544	103
572.755	88
572.966	86
573.178	94
573.389	93
573.6	93
573.811	86
574.023	97
574.234	92
574.445	82
574.656	92
574.867	90
575.078	87
575.289	87
575.501	100
575.712	93
575.923	93
576.134	85
576.345	89
576.556	91
576.767	105
576.978	92
577.188	97
577.399	85
577.61	97
577.821	94
578.032	79
578.243	78
578.454	79
578.665	93
578.875	88
579.086	88
579.297	81
579.508	84
579.718	77
579.929	80
580.14	97
580.35	85
580.561	87
580.772	92
580.982	92
581.193	94
581.403	97
581.614	88
581.825	72
582.035	84
582.246	93
582.456	86
582.667	83
582.877	96
583.087	98
583.298	90
583.508	85
583.719	82
583.929	91
584.139	90
584.35	103
584.56	92
584.77	83
584.981	89
585.191	91
585.401	69
585.611	92
585.821	91
586.032	77
586.242	76
586.452	93
586.662	98
586.872	97
587.082	85
587.292	96
587.502	74
587.713	94
587.923	82
588.133	99
588.343	92
588.553	103
588.762	72
588.972	87
589.182	103
589.392	102
589.602	90
589.812	90
590.022	88
590.232	81
590.441	93
590.651	92
590.861	92
591.071	107
591.281	78
591.49	82
591.7	89
591.91	85
592.119	78
592.329	77
592.539	80
592.748	89
592.958	69
593.167	87
593.377	86
593.587	101
593.796	97
594.006	93
594.215	91
594.424	82
594.634	91
594.843	76
595.053	84
595.262	84
595.472	98
595.681	82
595.89	66
596.1	88
596.309	88
596.518	84
596.727	86
596.937	84
597.146	105
597.355	78
597.564	91
597.774	96
597.983	83
598.192	78
598.401	83
598.61	84
598.819	89
599.028	92
599.237	87
599.446	96
599.655	81
599.864	90
600.073	98
600.282	80
600.491	87
600.7	86
600.909	89
601.118	97
601.327	95
601.536	88
601.745	98
601.953	83
602.162	84
602.371	96
602.58	88
602.789	95
602.997	87
603.206	95
603.415	95
603.623	86
603.832	93
604.041	95
604.249	105
604.458	84
604.666	85
604.875	98
605.084	96
605.292	79
605.501	106
605.709	96
605.918	87
606.126	92
606.334	89
606.543	91
606.751	96
606.96	90
607.168	99
607.376	105
607.585	94
607.793	91
608.001	101
608.21	91
608.418	110
608.626	93
608.834	77
609.043	90
609.251	80
609.459	89
609.667	109
609.875	97
610.083	81
610.291	82
610.499	86
610.707	84
610.916	93
611.124	90
611.332	92
611.54	99
611.748	88
611.955	94
612.163	95
612.371	98
612.579	83
612.787	94
612.995	97
613.203	105
613.411	100
613.618	86
613.826	92
614.034	88
614.242	85
614.449	88
614.657	84
614.865	89
615.072	104
615.28	93
615.488	91
615.695	107
615.903	86
616.111	85
616.318	105
616.526	106
616.733	92
616.941	86
617.148	93
617.356	91
617.563	88
617.771	103
617.978	86
618.185	88
618.393	82
618.6	91
618.807	103
619.015	74
619.222	106
619.429	99
619.637	96
619.844	105
620.051	89
620.258	92
620.466	90
620.673	89
620.88	91
621.087	99
621.294	114
621.501	92
621.708	104
621.915	94
622.122	88
622.329	106
622.536	91
622.743	98
622.95	85
623.157	85
623.364	93
623.571	78
623.778	109
623.985	98
624.192	103
624.399	98
624.606	108
624.812	88
625.019	87
625.226	94
625.433	94
625.639	96
625.846	85
626.053	95
626.259	86
626.466	101
626.673	97
626.879	81
627.086	93
627.293	89
627.499	102
627.706	96
627.912	82
628.119	74
628.325	84
628.532	98
628.738	85
628.945	96
629.151	93
629.357	88
629.564	70
629.77	88
629.976	80
630.183	81
630.389	90
630.595	86
630.802	81
631.008	81
631.214	91
631.42	91
631.627	103
631.833	91
632.039	83
632.245	94
632.451	79
632.657	97
632.863	95
633.069	92
633.275	90
633.481	98
633.688	97
633.893	77
634.099	98
634.305	85
634.511	91
634.717	97
634.923	80
635.129	90
635.335	92
635.541	82
635.747	85
635.952	90
636.158	90
636.364	92
636.57	85
636.775	97
636.981	93
637.187	92
637.392	82
637.598	96
637.804	98
638.009	100
638.215	87
638.421	95
638.626	92
638.832	81
639.037	92
639.243	91
639.448	85
639.654	86
639.859	67
640.065	94
640.27	97
640.475	96
640.681	85
640.886	84
641.091	75
641.297	90
641.502	89
641.707	108
641.913	91
642.118	84
642.323	87
642.528	97
642.733	93
642.939	105
643.144	84
643.349	94
643.554	96
643.759	103
643.964	90
644.169	96
644.374	77
644.579	89
644.784	87
644.989	98
645.194	96
645.399	87
645.604	88
645.809	92
646.014	86
646.219	95
646.423	85
646.628	92
646.833	97
647.038	102
647.243	105
647.447	76
647.652	87
647.857	93
648.062	90
648.266	107
648.471	80
648.676	88
648.88	99
649.085	97
649.289	78
649.494	85
649.698	89
649.903	109
650.107	87
650.312	88
650.516	81
650.721	105
650.925	86
651.13	91
651.334	92
651.539	73
651.743	81
651.947	86
652.152	83
652.356	91
652.56	75
652.764	91
652.969	93
653.173	108
653.377	85
653.581	84
653.785	88
653.99	88
654.194	98
654.398	89
654.602	97
654.806	95
655.01	83
655.214	68
655.418	89
655.622	93
655.826	88
656.03	75
656.234	92
656.438	83
656.642	85
656.846	101
657.049	89
657.253	80
657.457	89
657.661	87
657.865	99
658.068	70
658.272	85
658.476	84
658.68	66
658.883	71
659.087	86
659.291	86
659.494	97
659.698	92
659.901	91
660.105	84
660.309	70
660.512	89
660.716	88
660.919	85
661.123	96
661.326	69
661.53	88
661.733	86
661.936	92
662.14	92
662.343	83
662.546	89
662.75	77
662.953	92
663.156	74
663.36	83
663.563	82
663.766	78
663.969	94
664.173	80
664.376	79
664.579	95
664.782	73
664.985	77
665.188	72
665.391	72
665.594	68
665.797	84
666	82
666.203	93
666.406	102
666.609	85
666.812	83
667.015	88
667.218	68
667.421	85
667.624	81
667.827	84
668.03	78
668.232	86
668.435	87
668.638	85
668.841	87
669.043	94
669.246	85
669.449	76
669.651	75
669.854	85
670.057	77
670.259	73
670.462	93
670.665	94
670.867	91
671.07	94
671.272	77
671.475	80
671.677	87
671.88	82
672.082	90
672.284	79
672.487	98
672.689	82
672.892	84
