Data from 0.5MCu(NO3)2.Standard.Lamp.E10.CV._HRD10591_16-06-31-753.txt Node
Date: Mon Jul 22 16:06:31 EDT 2019
User: cochatt
Spectrometer: HR+D1059
Trigger mode: 1
Integration Time (sec): 1.000000E-1
Scans to average: 1
Electric dark correction enabled: true
Nonlinearity correction enabled: false
Boxcar width: 0
XAxis mode: Wavelengths
Number of Pixels in Spectrum: 2048
>>>>>Begin Spectral Data<<<<<
223.165	-22
223.4	-22
223.635	-22
223.869	-23
224.104	-10
224.338	-11
224.573	-15
224.808	-10
225.042	-9
225.277	-7
225.511	5
225.746	-1
225.98	9
226.215	-1
226.449	13
226.683	19
226.918	26
227.152	37
227.387	33
227.621	42
227.856	65
228.09	52
228.324	57
228.559	64
228.793	60
229.027	38
229.262	75
229.496	78
229.73	64
229.964	68
230.199	85
230.433	90
230.667	84
230.901	94
231.136	77
231.37	90
231.604	83
231.838	87
232.072	76
232.306	86
232.541	96
232.775	87
233.009	77
233.243	86
233.477	89
233.711	88
233.945	100
234.179	81
234.413	109
234.647	103
234.881	97
235.115	90
235.349	96
235.583	95
235.817	88
236.051	100
236.285	95
236.519	79
236.753	96
236.987	76
237.221	95
237.455	91
237.689	94
237.922	84
238.156	93
238.39	103
238.624	89
238.858	92
239.091	80
239.325	84
239.559	97
239.793	91
240.027	90
240.26	89
240.494	95
240.728	77
240.961	87
241.195	81
241.429	104
241.662	78
241.896	89
242.13	97
242.363	104
242.597	87
242.83	89
243.064	96
243.298	84
243.531	90
243.765	97
243.998	81
244.232	83
244.465	92
244.699	101
244.932	88
245.166	93
245.399	97
245.633	93
245.866	103
246.099	102
246.333	103
246.566	99
246.8	109
247.033	104
247.266	103
247.5	107
247.733	111
247.966	107
248.2	109
248.433	97
248.666	98
248.899	97
249.133	104
249.366	88
249.599	110
249.832	105
250.066	113
250.299	96
250.532	100
250.765	113
250.998	104
251.231	86
251.465	107
251.698	103
251.931	102
252.164	115
252.397	99
252.63	100
252.863	118
253.096	115
253.329	101
253.562	101
253.795	118
254.028	99
254.261	99
254.494	107
254.727	114
254.96	115
255.193	116
255.426	96
255.659	107
255.892	109
256.124	109
256.357	119
256.59	112
256.823	111
257.056	117
257.289	117
257.521	96
257.754	115
257.987	121
258.22	119
258.452	109
258.685	104
258.918	107
259.151	107
259.383	118
259.616	105
259.849	107
260.081	118
260.314	119
260.547	108
260.779	114
261.012	113
261.244	111
261.477	123
261.71	117
261.942	124
262.175	118
262.407	111
262.64	124
262.872	118
263.105	116
263.337	115
263.57	120
263.802	107
264.035	111
264.267	120
264.499	134
264.732	124
264.964	126
265.197	122
265.429	129
265.661	111
265.894	131
266.126	121
266.358	128
266.591	118
266.823	131
267.055	113
267.287	146
267.52	129
267.752	134
267.984	120
268.216	130
268.448	118
268.681	116
268.913	131
269.145	123
269.377	131
269.609	129
269.841	127
270.073	134
270.306	125
270.538	128
270.77	138
271.002	127
271.234	128
271.466	148
271.698	122
271.93	123
272.162	147
272.394	125
272.626	128
272.858	138
273.09	132
273.322	135
273.553	140
273.785	119
274.017	131
274.249	137
274.481	139
274.713	133
274.945	135
275.176	140
275.408	130
275.64	124
275.872	125
276.104	145
276.335	141
276.567	132
276.799	131
277.031	113
277.262	144
277.494	138
277.726	141
277.957	132
278.189	146
278.421	136
278.652	139
278.884	149
279.115	121
279.347	138
279.579	142
279.81	133
280.042	127
280.273	153
280.505	152
280.736	148
280.968	129
281.199	129
281.431	155
281.662	152
281.894	143
282.125	127
282.356	147
282.588	153
282.819	154
283.051	165
283.282	157
283.513	162
283.745	139
283.976	148
284.207	163
284.439	137
284.67	157
284.901	156
285.132	151
285.364	152
285.595	176
285.826	145
286.057	148
286.288	154
286.52	148
286.751	156
286.982	149
287.213	155
287.444	139
287.675	153
287.906	150
288.138	159
288.369	158
288.6	166
288.831	154
289.062	147
289.293	157
289.524	153
289.755	147
289.986	163
290.217	155
290.448	146
290.679	171
290.91	165
291.141	166
291.371	159
291.602	161
291.833	164
292.064	157
292.295	161
292.526	154
292.757	169
292.987	164
293.218	164
293.449	163
293.68	171
293.91	168
294.141	157
294.372	159
294.603	153
294.833	154
295.064	181
295.295	172
295.525	169
295.756	168
295.987	165
296.217	163
296.448	169
296.679	166
296.909	157
297.14	169
297.37	168
297.601	185
297.831	164
298.062	175
298.292	169
298.523	183
298.753	176
298.984	164
299.214	167
299.445	157
299.675	181
299.905	181
300.136	168
300.366	168
300.597	178
300.827	170
301.057	185
301.288	179
301.518	177
301.748	178
301.979	185
302.209	170
302.439	177
302.669	165
302.9	180
303.13	176
303.36	176
303.59	180
303.82	180
304.051	164
304.281	167
304.511	182
304.741	178
304.971	165
305.201	180
305.431	169
305.661	183
305.891	168
306.121	175
306.352	173
306.582	158
306.812	159
307.042	171
307.272	160
307.502	179
307.731	190
307.961	183
308.191	175
308.421	163
308.651	164
308.881	168
309.111	180
309.341	169
309.571	177
309.8	165
310.03	172
310.26	172
310.49	164
310.72	185
310.949	173
311.179	167
311.409	164
311.639	170
311.868	172
312.098	189
312.328	173
312.557	163
312.787	172
313.017	186
313.246	176
313.476	168
313.706	179
313.935	185
314.165	183
314.394	175
314.624	172
314.853	175
315.083	177
315.312	177
315.542	185
315.771	171
316.001	166
316.23	171
316.46	177
316.689	166
316.919	201
317.148	158
317.377	164
317.607	168
317.836	187
318.065	187
318.295	162
318.524	163
318.753	186
318.983	177
319.212	183
319.441	181
319.67	181
319.9	162
320.129	179
320.358	171
320.587	188
320.816	187
321.046	176
321.275	170
321.504	186
321.733	191
321.962	169
322.191	156
322.42	172
322.649	179
322.878	179
323.108	153
323.337	188
323.566	183
323.795	170
324.024	175
324.253	177
324.482	180
324.71	179
324.939	180
325.168	177
325.397	188
325.626	183
325.855	180
326.084	193
326.313	183
326.542	188
326.77	194
326.999	191
327.228	190
327.457	179
327.686	195
327.914	194
328.143	183
328.372	197
328.6	196
328.829	194
329.058	203
329.287	196
329.515	204
329.744	207
329.972	185
330.201	191
330.43	179
330.658	179
330.887	186
331.115	203
331.344	191
331.572	182
331.801	199
332.03	195
332.258	202
332.486	203
332.715	219
332.943	232
333.172	219
333.4	244
333.629	235
333.857	230
334.085	244
334.314	241
334.542	220
334.771	234
334.999	205
335.227	207
335.455	221
335.684	209
335.912	217
336.14	209
336.369	209
336.597	202
336.825	226
337.053	208
337.281	210
337.51	208
337.738	223
337.966	197
338.194	197
338.422	210
338.65	198
338.878	201
339.106	214
339.334	189
339.562	193
339.79	211
340.018	190
340.246	194
340.474	211
340.702	191
340.93	201
341.158	196
341.386	186
341.614	179
341.842	201
342.07	177
342.298	167
342.526	197
342.754	197
342.981	214
343.209	191
343.437	205
343.665	197
343.893	214
344.12	225
344.348	222
344.576	217
344.804	204
345.031	212
345.259	204
345.487	184
345.714	200
345.942	189
346.17	202
346.397	196
346.625	184
346.853	200
347.08	189
347.308	188
347.535	211
347.763	189
347.99	182
348.218	183
348.445	185
348.673	183
348.9	198
349.128	193
349.355	200
349.583	196
349.81	191
350.037	179
350.265	203
350.492	175
350.72	183
350.947	181
351.174	192
351.402	173
351.629	186
351.856	179
352.083	187
352.311	186
352.538	171
352.765	171
352.992	189
353.22	187
353.447	180
353.674	187
353.901	173
354.128	198
354.355	176
354.583	187
354.81	199
355.037	181
355.264	181
355.491	187
355.718	201
355.945	185
356.172	191
356.399	194
356.626	194
356.853	185
357.08	190
357.307	169
357.534	192
357.761	179
357.988	213
358.215	177
358.441	200
358.668	172
358.895	193
359.122	190
359.349	177
359.576	183
359.802	179
360.029	176
360.256	179
360.483	185
360.709	191
360.936	186
361.163	200
361.39	180
361.616	182
361.843	172
362.07	182
362.296	173
362.523	163
362.749	180
362.976	179
363.203	172
363.429	182
363.656	179
363.882	191
364.109	185
364.335	197
364.562	175
364.788	185
365.015	186
365.241	196
365.468	188
365.694	181
365.92	178
366.147	165
366.373	193
366.599	185
366.826	197
367.052	186
367.278	194
367.505	200
367.731	197
367.957	176
368.184	183
368.41	177
368.636	188
368.862	181
369.089	192
369.315	175
369.541	192
369.767	187
369.993	199
370.219	188
370.445	179
370.672	191
370.898	205
371.124	200
371.35	191
371.576	204
371.802	193
372.028	203
372.254	196
372.48	199
372.706	193
372.932	188
373.158	205
373.384	195
373.61	202
373.835	193
374.061	186
374.287	200
374.513	208
374.739	204
374.965	201
375.191	215
375.416	222
375.642	192
375.868	209
376.094	208
376.319	201
376.545	202
376.771	203
376.997	200
377.222	189
377.448	200
377.674	219
377.899	190
378.125	194
378.35	205
378.576	191
378.802	195
379.027	188
379.253	185
379.478	199
379.704	201
379.929	198
380.155	200
380.38	194
380.606	205
380.831	209
381.057	183
381.282	188
381.507	173
381.733	193
381.958	195
382.184	199
382.409	191
382.634	196
382.86	212
383.085	222
383.31	218
383.535	203
383.761	218
383.986	213
384.211	207
384.436	227
384.662	214
384.887	215
385.112	217
385.337	202
385.562	219
385.787	226
386.013	230
386.238	203
386.463	234
386.688	231
386.913	209
387.138	217
387.363	198
387.588	219
387.813	216
388.038	215
388.263	210
388.488	224
388.713	219
388.938	224
389.163	205
389.387	197
389.612	196
389.837	204
390.062	211
390.287	211
390.512	214
390.736	216
390.961	221
391.186	240
391.411	243
391.636	219
391.86	232
392.085	247
392.31	247
392.534	234
392.759	228
392.984	205
393.208	212
393.433	205
393.658	221
393.882	221
394.107	228
394.331	222
394.556	235
394.78	243
395.005	226
395.229	205
395.454	230
395.678	222
395.903	245
396.127	244
396.352	238
396.576	226
396.801	218
397.025	223
397.249	225
397.474	264
397.698	229
397.922	219
398.147	225
398.371	245
398.595	240
398.82	253
399.044	253
399.268	282
399.492	317
399.717	356
399.941	359
400.165	319
400.389	280
400.613	269
400.837	245
401.062	249
401.286	243
401.51	265
401.734	244
401.958	263
402.182	251
402.406	260
402.63	259
402.854	277
403.078	260
403.302	252
403.526	287
403.75	289
403.974	303
404.198	292
404.422	281
404.645	308
404.869	297
405.093	268
405.317	271
405.541	280
405.765	279
405.988	250
406.212	279
406.436	272
406.66	283
406.883	274
407.107	310
407.331	310
407.555	308
407.778	317
408.002	313
408.226	283
408.449	279
408.673	293
408.896	274
409.12	289
409.344	277
409.567	291
409.791	279
410.014	288
410.238	295
410.461	277
410.685	278
410.908	267
411.132	276
411.355	255
411.578	261
411.802	260
412.025	256
412.249	265
412.472	269
412.695	250
412.919	259
413.142	261
413.365	255
413.589	253
413.812	249
414.035	263
414.258	255
414.482	264
414.705	258
414.928	265
415.151	250
415.374	247
415.597	243
415.821	240
416.044	226
416.267	243
416.49	252
416.713	246
416.936	243
417.159	244
417.382	255
417.605	248
417.828	249
418.051	259
418.274	265
418.497	235
418.72	271
418.943	264
419.166	268
419.389	273
419.611	288
419.834	265
420.057	255
420.28	237
420.503	241
420.726	257
420.948	260
421.171	244
421.394	263
421.617	267
421.839	259
422.062	263
422.285	240
422.507	264
422.73	265
422.953	246
423.175	260
423.398	261
423.621	258
423.843	266
424.066	285
424.288	270
424.511	277
424.733	259
424.956	266
425.178	246
425.401	250
425.623	255
425.846	250
426.068	247
426.291	244
426.513	240
426.735	251
426.958	224
427.18	226
427.402	244
427.625	228
427.847	216
428.069	214
428.292	235
428.514	222
428.736	225
428.958	229
429.181	224
429.403	235
429.625	223
429.847	228
430.069	220
430.292	228
430.514	220
430.736	232
430.958	213
431.18	235
431.402	233
431.624	224
431.846	218
432.068	241
432.29	243
432.512	235
432.734	203
432.956	227
433.178	235
433.4	224
433.622	229
433.844	241
434.066	236
434.287	230
434.509	250
434.731	251
434.953	262
435.175	259
435.397	241
435.618	231
435.84	235
436.062	225
436.284	228
436.505	224
436.727	225
436.949	227
437.17	249
437.392	209
437.614	217
437.835	211
438.057	207
438.278	221
438.5	222
438.721	228
438.943	205
439.165	243
439.386	224
439.608	214
439.829	228
440.05	244
440.272	230
440.493	227
440.715	223
440.936	223
441.158	236
441.379	236
441.6	242
441.822	253
442.043	259
442.264	248
442.486	255
442.707	237
442.928	263
443.149	246
443.371	243
443.592	253
443.813	253
444.034	243
444.255	275
444.476	263
444.698	279
444.919	307
445.14	389
445.361	306
445.582	266
445.803	256
446.024	239
446.245	239
446.466	231
446.687	234
446.908	233
447.129	220
447.35	226
447.571	211
447.792	234
448.013	236
448.234	221
448.455	219
448.675	208
448.896	199
449.117	203
449.338	212
449.559	216
449.779	209
450	216
450.221	211
450.442	219
450.662	218
450.883	230
451.104	229
451.324	239
451.545	245
451.766	205
451.986	205
452.207	197
452.428	240
452.648	231
452.869	215
453.089	226
453.31	222
453.53	203
453.751	195
453.971	218
454.192	206
454.412	203
454.633	196
454.853	203
455.073	201
455.294	215
455.514	210
455.734	212
455.955	205
456.175	206
456.395	204
456.616	198
456.836	211
457.056	205
457.276	194
457.497	208
457.717	223
457.937	199
458.157	201
458.377	212
458.598	226
458.818	200
459.038	204
459.258	217
459.478	222
459.698	233
459.918	232
460.138	244
460.358	251
460.578	258
460.798	271
461.018	246
461.238	257
461.458	246
461.678	248
461.898	243
462.118	266
462.338	270
462.558	277
462.777	293
462.997	308
463.217	359
463.437	351
463.657	308
463.876	305
464.096	296
464.316	300
464.536	320
464.755	296
464.975	268
465.195	275
465.414	271
465.634	255
465.854	234
466.073	230
466.293	234
466.512	243
466.732	205
466.951	220
467.171	218
467.391	219
467.61	220
467.829	220
468.049	239
468.268	218
468.488	235
468.707	215
468.927	205
469.146	207
469.365	222
469.585	224
469.804	231
470.023	223
470.243	225
470.462	228
470.681	246
470.901	239
471.12	242
471.339	223
471.558	210
471.777	239
471.997	225
472.216	218
472.435	205
472.654	208
472.873	222
473.092	220
473.311	221
473.53	202
473.749	209
473.968	218
474.187	205
474.406	213
474.625	207
474.844	218
475.063	208
475.282	228
475.501	228
475.72	229
475.939	207
476.158	207
476.377	227
476.596	202
476.814	226
477.033	226
477.252	229
477.471	236
477.69	236
477.908	250
478.127	239
478.346	250
478.564	234
478.783	249
479.002	259
479.22	250
479.439	240
479.658	252
479.876	258
480.095	262
480.313	277
480.532	295
480.751	273
480.969	277
481.188	266
481.406	251
481.624	239
481.843	241
482.061	244
482.28	253
482.498	232
482.717	219
482.935	241
483.153	248
483.372	252
483.59	238
483.808	231
484.027	260
484.245	231
484.463	257
484.681	245
484.9	259
485.118	235
485.336	241
485.554	244
485.772	258
485.99	246
486.209	266
486.427	262
486.645	256
486.863	262
487.081	264
487.299	237
487.517	262
487.735	237
487.953	244
488.171	255
488.389	257
488.607	256
488.825	274
489.043	236
489.261	244
489.479	251
489.696	252
489.914	262
490.132	251
490.35	249
490.568	246
490.786	263
491.003	263
491.221	261
491.439	269
491.657	248
491.874	265
492.092	264
492.31	254
492.527	260
492.745	267
492.963	255
493.18	268
493.398	266
493.615	271
493.833	259
494.05	239
494.268	260
494.485	273
494.703	269
494.92	279
495.138	259
495.355	260
495.573	266
495.79	276
496.008	260
496.225	271
496.442	274
496.66	263
496.877	280
497.094	275
497.312	273
497.529	287
497.746	303
497.963	298
498.181	319
498.398	322
498.615	329
498.832	332
499.049	368
499.267	399
499.484	426
499.701	495
499.918	517
500.135	610
500.352	713
500.569	713
500.786	731
501.003	666
501.22	589
501.437	523
501.654	469
501.871	414
502.088	387
502.305	387
502.522	354
502.739	341
502.956	336
503.172	320
503.389	298
503.606	288
503.823	299
504.04	307
504.256	312
504.473	301
504.69	324
504.907	308
505.123	294
505.34	273
505.557	281
505.773	266
505.99	259
506.207	250
506.423	264
506.64	253
506.856	246
507.073	247
507.289	259
507.506	239
507.722	259
507.939	242
508.155	232
508.372	240
508.588	268
508.805	245
509.021	234
509.238	236
509.454	236
509.67	225
509.887	228
510.103	233
510.319	237
510.536	230
510.752	228
510.968	217
511.184	227
511.401	227
511.617	240
511.833	222
512.049	230
512.265	246
512.481	222
512.698	219
512.914	236
513.13	231
513.346	239
513.562	238
513.778	244
513.994	230
514.21	248
514.426	218
514.642	215
514.858	247
515.074	246
515.29	235
515.506	229
515.721	241
515.937	242
516.153	251
516.369	265
516.585	242
516.801	247
517.016	295
517.232	289
517.448	299
517.664	311
517.879	325
518.095	305
518.311	313
518.527	278
518.742	257
518.958	267
519.173	269
519.389	256
519.605	257
519.82	257
520.036	241
520.251	234
520.467	247
520.682	239
520.898	218
521.113	233
521.329	225
521.544	232
521.76	241
521.975	231
522.19	219
522.406	212
522.621	231
522.836	239
523.052	230
523.267	226
523.482	206
523.698	220
523.913	223
524.128	217
524.343	220
524.559	211
524.774	198
524.989	224
525.204	227
525.419	235
525.634	212
525.849	211
526.064	207
526.28	208
526.495	227
526.71	219
526.925	204
527.14	222
527.355	230
527.57	222
527.785	207
527.999	205
528.214	222
528.429	216
528.644	210
528.859	235
529.074	217
529.289	216
529.503	235
529.718	225
529.933	227
530.148	224
530.363	209
530.577	218
530.792	208
531.007	223
531.221	223
531.436	226
531.651	223
531.865	205
532.08	227
532.295	233
532.509	222
532.724	235
532.938	211
533.153	210
533.367	229
533.582	224
533.796	236
534.011	234
534.225	218
534.44	222
534.654	210
534.868	220
535.083	218
535.297	224
535.511	217
535.726	216
535.94	216
536.154	212
536.369	206
536.583	200
536.797	214
537.011	210
537.225	215
537.44	206
537.654	207
537.868	209
538.082	202
538.296	189
538.51	207
538.724	205
538.938	189
539.153	205
539.367	202
539.581	213
539.795	204
540.009	199
540.222	199
540.436	212
540.65	203
540.864	199
541.078	210
541.292	203
541.506	210
541.72	206
541.934	195
542.147	204
542.361	224
542.575	208
542.789	213
543.002	211
543.216	199
543.43	213
543.644	201
543.857	200
544.071	212
544.285	209
544.498	204
544.712	192
544.925	216
545.139	208
545.352	204
545.566	201
545.779	220
545.993	220
546.206	234
546.42	226
546.633	219
546.847	204
547.06	207
547.274	191
547.487	197
547.7	207
547.914	222
548.127	218
548.34	204
548.554	215
548.767	215
548.98	217
549.193	208
549.407	213
549.62	213
549.833	215
550.046	203
550.259	207
550.473	206
550.686	216
550.899	209
551.112	203
551.325	209
551.538	202
551.751	208
551.964	211
552.177	216
552.39	198
552.603	203
552.816	216
553.029	212
553.242	230
553.455	226
553.667	253
553.88	230
554.093	228
554.306	230
554.519	210
554.732	218
554.944	204
555.157	214
555.37	224
555.583	220
555.795	204
556.008	218
556.221	198
556.433	210
556.646	185
556.859	195
557.071	183
557.284	201
557.496	173
557.709	199
557.921	193
558.134	195
558.346	205
558.559	191
558.771	171
558.984	179
559.196	195
559.409	198
559.621	201
559.833	191
560.046	163
560.258	199
560.47	178
560.683	185
560.895	181
561.107	195
561.32	185
561.532	178
561.744	195
561.956	182
562.168	192
562.381	188
562.593	192
562.805	183
563.017	192
563.229	179
563.441	193
563.653	188
563.865	182
564.077	183
564.289	187
564.501	211
564.713	200
564.925	191
565.137	192
565.349	206
565.561	201
565.773	208
565.985	212
566.197	232
566.408	238
566.62	255
566.832	261
567.044	281
567.255	280
567.467	295
567.679	290
567.891	320
568.102	334
568.314	299
568.526	285
568.737	262
568.949	248
569.161	214
569.372	203
569.584	201
569.795	206
570.007	212
570.218	195
570.43	200
570.641	191
570.853	205
571.064	191
571.276	207
571.487	205
571.698	188
571.91	194
572.121	184
572.333	164
572.544	185
572.755	177
572.966	158
573.178	160
573.389	165
573.6	177
573.811	181
574.023	162
574.234	165
574.445	167
574.656	168
574.867	157
575.078	164
575.289	167
575.501	157
575.712	183
575.923	157
576.134	173
576.345	157
576.556	171
576.767	169
576.978	166
577.188	163
577.399	181
577.61	176
577.821	175
578.032	159
578.243	162
578.454	165
578.665	164
578.875	156
579.086	164
579.297	154
579.508	163
579.718	155
579.929	161
580.14	153
580.35	160
580.561	142
580.772	159
580.982	162
581.193	175
581.403	167
581.614	157
581.825	149
582.035	148
582.246	176
582.456	157
582.667	152
582.877	162
583.087	146
583.298	148
583.508	143
583.719	152
583.929	155
584.139	159
584.35	159
584.56	164
584.77	158
584.981	157
585.191	151
585.401	156
585.611	155
585.821	157
586.032	151
586.242	154
586.452	149
586.662	163
586.872	154
587.082	148
587.292	153
587.502	156
587.713	155
587.923	149
588.133	152
588.343	150
588.553	153
588.762	151
588.972	160
589.182	168
589.392	146
589.602	157
589.812	162
590.022	148
590.232	145
590.441	152
590.651	152
590.861	152
591.071	160
591.281	159
591.49	155
591.7	170
591.91	161
592.119	150
592.329	166
592.539	171
592.748	162
592.958	176
593.167	185
593.377	181
593.587	181
593.796	188
594.006	163
594.215	181
594.424	175
594.634	186
594.843	160
595.053	180
595.262	183
595.472	166
595.681	165
595.89	163
596.1	153
596.309	138
596.518	145
596.727	159
596.937	148
597.146	139
597.355	138
597.564	137
597.774	140
597.983	137
598.192	147
598.401	144
598.61	146
598.819	157
599.028	156
599.237	140
599.446	145
599.655	140
599.864	145
600.073	145
600.282	135
600.491	142
600.7	146
600.909	134
601.118	144
601.327	136
601.536	129
601.745	131
601.953	151
602.162	142
602.371	134
602.58	141
602.789	139
602.997	144
603.206	147
603.415	138
603.623	145
603.832	150
604.041	142
604.249	144
604.458	139
604.666	142
604.875	129
605.084	122
605.292	115
605.501	149
605.709	153
605.918	137
606.126	145
606.334	134
606.543	149
606.751	134
606.96	139
607.168	127
607.376	159
607.585	142
607.793	146
608.001	131
608.21	144
608.418	130
608.626	127
608.834	137
609.043	133
609.251	129
609.459	142
609.667	143
609.875	129
610.083	149
610.291	148
610.499	139
610.707	141
610.916	138
611.124	135
611.332	133
611.54	137
611.748	122
611.955	124
612.163	132
612.371	115
612.579	127
612.787	131
612.995	145
613.203	135
613.411	129
613.618	131
613.826	138
614.034	128
614.242	127
614.449	135
614.657	128
614.865	140
615.072	138
615.28	139
615.488	139
615.695	140
615.903	147
616.111	134
616.318	140
616.526	145
616.733	129
616.941	127
617.148	144
617.356	139
617.563	119
617.771	107
617.978	127
618.185	124
618.393	136
618.6	130
618.807	120
619.015	141
619.222	135
619.429	130
619.637	139
619.844	140
620.051	136
620.258	141
620.466	144
620.673	132
620.88	125
621.087	127
621.294	136
621.501	137
621.708	133
621.915	123
622.122	131
622.329	142
622.536	119
622.743	131
622.95	132
623.157	126
623.364	112
623.571	115
623.778	124
623.985	122
624.192	140
624.399	124
624.606	134
624.812	126
625.019	134
625.226	135
625.433	132
625.639	123
625.846	133
626.053	123
626.259	124
626.466	138
626.673	125
626.879	135
627.086	123
627.293	124
627.499	113
627.706	127
627.912	118
628.119	125
628.325	129
628.532	116
628.738	127
628.945	129
629.151	135
629.357	119
629.564	126
629.77	105
629.976	126
630.183	134
630.389	120
630.595	124
630.802	112
631.008	121
631.214	123
631.42	127
631.627	130
631.833	115
632.039	124
632.245	115
632.451	131
632.657	124
632.863	119
633.069	119
633.275	124
633.481	123
633.688	113
633.893	112
634.099	117
634.305	123
634.511	123
634.717	117
634.923	116
635.129	127
635.335	120
635.541	105
635.747	123
635.952	108
636.158	113
636.364	123
636.57	109
636.775	129
636.981	106
637.187	117
637.392	123
637.598	110
637.804	119
638.009	116
638.215	131
638.421	93
638.626	122
638.832	127
639.037	111
639.243	112
639.448	117
639.654	114
639.859	131
640.065	118
640.27	121
640.475	103
640.681	104
640.886	107
641.091	116
641.297	119
641.502	113
641.707	121
641.913	100
642.118	97
642.323	117
642.528	119
642.733	101
642.939	117
643.144	106
643.349	111
643.554	117
643.759	107
643.964	119
644.169	99
644.374	112
644.579	120
644.784	113
644.989	131
645.194	116
645.399	115
645.604	106
645.809	108
646.014	117
646.219	117
646.423	101
646.628	104
646.833	117
647.038	115
647.243	111
647.447	108
647.652	119
647.857	108
648.062	108
648.266	119
648.471	113
648.676	108
648.88	121
649.085	115
649.289	109
649.494	123
649.698	117
649.903	113
650.107	120
650.312	109
650.516	118
650.721	116
650.925	104
651.13	112
651.334	115
651.539	112
651.743	91
651.947	93
652.152	109
652.356	108
652.56	98
652.764	102
652.969	103
653.173	113
653.377	102
653.581	99
653.785	100
653.99	102
654.194	90
654.398	112
654.602	99
654.806	105
655.01	114
655.214	101
655.418	105
655.622	105
655.826	117
656.03	106
656.234	102
656.438	120
656.642	111
656.846	103
657.049	101
657.253	105
657.457	127
657.661	95
657.865	94
658.068	98
658.272	115
658.476	100
658.68	85
658.883	102
659.087	100
659.291	87
659.494	95
659.698	78
659.901	84
660.105	73
660.309	96
660.512	87
660.716	88
660.919	93
661.123	87
661.326	94
661.53	84
661.733	77
661.936	71
662.14	93
662.343	79
662.546	79
662.75	94
662.953	93
663.156	92
663.36	93
663.563	90
663.766	92
663.969	89
664.173	89
664.376	71
664.579	75
664.782	82
664.985	74
665.188	89
665.391	95
665.594	84
665.797	92
666	86
666.203	90
666.406	88
666.609	86
666.812	95
667.015	84
667.218	88
667.421	96
667.624	85
667.827	90
668.03	90
668.232	90
668.435	95
668.638	78
668.841	76
669.043	89
669.246	70
669.449	79
669.651	92
669.854	91
670.057	80
670.259	84
670.462	72
670.665	91
670.867	76
671.07	88
671.272	83
671.475	75
671.677	99
671.88	84
672.082	94
672.284	86
672.487	83
672.689	80
672.892	80
