Data from 0.5MCu(NO3)2.Standard.Lamp.E10.CV._HRD10591_16-03-52-753.txt Node
Date: Mon Jul 22 16:03:52 EDT 2019
User: cochatt
Spectrometer: HR+D1059
Trigger mode: 1
Integration Time (sec): 1.000000E-1
Scans to average: 1
Electric dark correction enabled: true
Nonlinearity correction enabled: false
Boxcar width: 0
XAxis mode: Wavelengths
Number of Pixels in Spectrum: 2048
>>>>>Begin Spectral Data<<<<<
223.165	-25
223.4	-25
223.635	-25
223.869	-1
224.104	-23
224.338	-17
224.573	-11
224.808	-1
225.042	-14
225.277	-14
225.511	6
225.746	13
225.98	3
226.215	15
226.449	8
226.683	10
226.918	20
227.152	31
227.387	37
227.621	7
227.856	34
228.09	47
228.324	60
228.559	65
228.793	58
229.027	61
229.262	63
229.496	63
229.73	75
229.964	81
230.199	82
230.433	74
230.667	75
230.901	80
231.136	83
231.37	84
231.604	82
231.838	91
232.072	85
232.306	78
232.541	74
232.775	98
233.009	95
233.243	73
233.477	97
233.711	82
233.945	86
234.179	98
234.413	81
234.647	86
234.881	74
235.115	83
235.349	84
235.583	83
235.817	100
236.051	93
236.285	81
236.519	91
236.753	84
236.987	104
237.221	90
237.455	79
237.689	84
237.922	75
238.156	85
238.39	88
238.624	87
238.858	82
239.091	76
239.325	86
239.559	86
239.793	96
240.027	100
240.26	74
240.494	90
240.728	99
240.961	86
241.195	89
241.429	95
241.662	114
241.896	90
242.13	86
242.363	89
242.597	85
242.83	99
243.064	100
243.298	90
243.531	100
243.765	92
243.998	91
244.232	103
244.465	100
244.699	89
244.932	89
245.166	85
245.399	100
245.633	94
245.866	95
246.099	72
246.333	104
246.566	87
246.8	101
247.033	109
247.266	111
247.5	93
247.733	98
247.966	107
248.2	89
248.433	102
248.666	96
248.899	111
249.133	111
249.366	104
249.599	116
249.832	101
250.066	106
250.299	96
250.532	106
250.765	111
250.998	103
251.231	109
251.465	107
251.698	100
251.931	110
252.164	105
252.397	116
252.63	114
252.863	119
253.096	122
253.329	116
253.562	102
253.795	111
254.028	115
254.261	103
254.494	113
254.727	121
254.96	111
255.193	106
255.426	123
255.659	114
255.892	117
256.124	114
256.357	123
256.59	122
256.823	110
257.056	112
257.289	115
257.521	114
257.754	119
257.987	125
258.22	120
258.452	131
258.685	123
258.918	115
259.151	119
259.383	130
259.616	109
259.849	107
260.081	127
260.314	118
260.547	128
260.779	136
261.012	135
261.244	125
261.477	115
261.71	118
261.942	141
262.175	111
262.407	124
262.64	116
262.872	125
263.105	122
263.337	141
263.57	123
263.802	132
264.035	123
264.267	126
264.499	122
264.732	138
264.964	123
265.197	134
265.429	129
265.661	138
265.894	132
266.126	135
266.358	133
266.591	137
266.823	115
267.055	133
267.287	131
267.52	129
267.752	130
267.984	135
268.216	119
268.448	127
268.681	137
268.913	127
269.145	114
269.377	139
269.609	131
269.841	119
270.073	121
270.306	137
270.538	141
270.77	135
271.002	135
271.234	139
271.466	137
271.698	146
271.93	134
272.162	131
272.394	145
272.626	136
272.858	144
273.09	141
273.322	137
273.553	137
273.785	139
274.017	127
274.249	145
274.481	145
274.713	141
274.945	147
275.176	144
275.408	147
275.64	157
275.872	154
276.104	151
276.335	150
276.567	159
276.799	145
277.031	136
277.262	149
277.494	154
277.726	135
277.957	145
278.189	138
278.421	155
278.652	146
278.884	141
279.115	157
279.347	155
279.579	144
279.81	149
280.042	159
280.273	159
280.505	152
280.736	157
280.968	169
281.199	155
281.431	169
281.662	181
281.894	133
282.125	159
282.356	152
282.588	157
282.819	161
283.051	163
283.282	159
283.513	162
283.745	165
283.976	164
284.207	157
284.439	161
284.67	176
284.901	160
285.132	157
285.364	156
285.595	162
285.826	159
286.057	162
286.288	159
286.52	174
286.751	157
286.982	168
287.213	161
287.444	155
287.675	170
287.906	171
288.138	163
288.369	164
288.6	173
288.831	169
289.062	175
289.293	170
289.524	160
289.755	159
289.986	165
290.217	175
290.448	176
290.679	179
290.91	203
291.141	168
291.371	178
291.602	174
291.833	172
292.064	186
292.295	171
292.526	170
292.757	191
292.987	193
293.218	171
293.449	176
293.68	175
293.91	175
294.141	181
294.372	191
294.603	188
294.833	163
295.064	172
295.295	173
295.525	191
295.756	189
295.987	185
296.217	180
296.448	199
296.679	185
296.909	179
297.14	193
297.37	194
297.601	189
297.831	193
298.062	183
298.292	195
298.523	194
298.753	193
298.984	198
299.214	175
299.445	196
299.675	197
299.905	177
300.136	186
300.366	197
300.597	178
300.827	181
301.057	190
301.288	208
301.518	200
301.748	191
301.979	204
302.209	206
302.439	185
302.669	184
302.9	190
303.13	193
303.36	183
303.59	193
303.82	202
304.051	200
304.281	186
304.511	185
304.741	185
304.971	182
305.201	200
305.431	183
305.661	192
305.891	198
306.121	189
306.352	189
306.582	201
306.812	192
307.042	183
307.272	198
307.502	182
307.731	187
307.961	177
308.191	190
308.421	199
308.651	199
308.881	193
309.111	179
309.341	166
309.571	198
309.8	192
310.03	208
310.26	199
310.49	178
310.72	198
310.949	192
311.179	206
311.409	203
311.639	179
311.868	183
312.098	187
312.328	191
312.557	193
312.787	186
313.017	206
313.246	200
313.476	212
313.706	190
313.935	193
314.165	192
314.394	210
314.624	207
314.853	195
315.083	207
315.312	201
315.542	202
315.771	214
316.001	184
316.23	200
316.46	205
316.689	185
316.919	204
317.148	203
317.377	208
317.607	210
317.836	185
318.065	191
318.295	199
318.524	202
318.753	194
318.983	187
319.212	180
319.441	202
319.67	179
319.9	181
320.129	187
320.358	194
320.587	205
320.816	209
321.046	182
321.275	205
321.504	209
321.733	205
321.962	203
322.191	194
322.42	191
322.649	196
322.878	197
323.108	198
323.337	207
323.566	200
323.795	206
324.024	190
324.253	193
324.482	199
324.71	185
324.939	220
325.168	202
325.397	193
325.626	203
325.855	209
326.084	207
326.313	207
326.542	221
326.77	209
326.999	195
327.228	209
327.457	197
327.686	210
327.914	203
328.143	209
328.372	194
328.6	208
328.829	207
329.058	220
329.287	238
329.515	206
329.744	221
329.972	216
330.201	222
330.43	202
330.658	201
330.887	218
331.115	222
331.344	229
331.572	234
331.801	223
332.03	234
332.258	247
332.486	243
332.715	239
332.943	237
333.172	272
333.4	283
333.629	276
333.857	255
334.085	271
334.314	259
334.542	249
334.771	257
334.999	257
335.227	255
335.455	245
335.684	244
335.912	252
336.14	247
336.369	234
336.597	247
336.825	232
337.053	239
337.281	231
337.51	250
337.738	223
337.966	233
338.194	212
338.422	219
338.65	217
338.878	218
339.106	238
339.334	217
339.562	221
339.79	239
340.018	218
340.246	213
340.474	195
340.702	206
340.93	239
341.158	218
341.386	213
341.614	221
341.842	221
342.07	213
342.298	208
342.526	210
342.754	208
342.981	221
343.209	223
343.437	249
343.665	231
343.893	241
344.12	271
344.348	221
344.576	239
344.804	227
345.031	217
345.259	239
345.487	248
345.714	221
345.942	207
346.17	218
346.397	223
346.625	208
346.853	215
347.08	204
347.308	219
347.535	230
347.763	214
347.99	226
348.218	226
348.445	210
348.673	193
348.9	226
349.128	218
349.355	222
349.583	208
349.81	205
350.037	217
350.265	215
350.492	195
350.72	195
350.947	206
351.174	213
351.402	212
351.629	192
351.856	200
352.083	204
352.311	200
352.538	193
352.765	203
352.992	210
353.22	207
353.447	193
353.674	207
353.901	204
354.128	213
354.355	206
354.583	187
354.81	200
355.037	206
355.264	215
355.491	216
355.718	197
355.945	208
356.172	216
356.399	201
356.626	191
356.853	219
357.08	214
357.307	214
357.534	203
357.761	224
357.988	209
358.215	204
358.441	202
358.668	196
358.895	210
359.122	196
359.349	192
359.576	209
359.802	202
360.029	189
360.256	210
360.483	208
360.709	208
360.936	210
361.163	194
361.39	194
361.616	213
361.843	212
362.07	208
362.296	204
362.523	202
362.749	194
362.976	199
363.203	212
363.429	203
363.656	213
363.882	216
364.109	199
364.335	207
364.562	205
364.788	206
365.015	188
365.241	187
365.468	201
365.694	210
365.92	205
366.147	202
366.373	211
366.599	193
366.826	200
367.052	220
367.278	198
367.505	191
367.731	209
367.957	193
368.184	198
368.41	204
368.636	197
368.862	209
369.089	211
369.315	199
369.541	215
369.767	225
369.993	211
370.219	209
370.445	213
370.672	207
370.898	223
371.124	218
371.35	219
371.576	215
371.802	207
372.028	230
372.254	201
372.48	222
372.706	210
372.932	234
373.158	213
373.384	229
373.61	212
373.835	216
374.061	227
374.287	217
374.513	226
374.739	223
374.965	241
375.191	221
375.416	234
375.642	225
375.868	226
376.094	212
376.319	211
376.545	215
376.771	199
376.997	211
377.222	206
377.448	217
377.674	211
377.899	217
378.125	215
378.35	203
378.576	234
378.802	221
379.027	214
379.253	201
379.478	212
379.704	209
379.929	201
380.155	201
380.38	209
380.606	203
380.831	222
381.057	209
381.282	205
381.507	210
381.733	232
381.958	208
382.184	222
382.409	207
382.634	216
382.86	237
383.085	244
383.31	235
383.535	233
383.761	241
383.986	229
384.211	244
384.436	249
384.662	241
384.887	237
385.112	237
385.337	253
385.562	243
385.787	235
386.013	257
386.238	257
386.463	252
386.688	243
386.913	227
387.138	244
387.363	256
387.588	236
387.813	246
388.038	253
388.263	248
388.488	253
388.713	223
388.938	232
389.163	246
389.387	231
389.612	249
389.837	244
390.062	241
390.287	226
390.512	224
390.736	245
390.961	229
391.186	248
391.411	243
391.636	253
391.86	281
392.085	269
392.31	267
392.534	248
392.759	252
392.984	242
393.208	244
393.433	229
393.658	245
393.882	257
394.107	230
394.331	229
394.556	241
394.78	254
395.005	273
395.229	251
395.454	259
395.678	261
395.903	264
396.127	254
396.352	258
396.576	253
396.801	260
397.025	240
397.249	260
397.474	268
397.698	265
397.922	257
398.147	250
398.371	242
398.595	264
398.82	264
399.044	303
399.268	341
399.492	360
399.717	425
399.941	408
400.165	353
400.389	329
400.613	298
400.837	292
401.062	284
401.286	267
401.51	295
401.734	270
401.958	281
402.182	302
402.406	293
402.63	305
402.854	290
403.078	306
403.302	297
403.526	328
403.75	322
403.974	331
404.198	342
404.422	322
404.645	323
404.869	316
405.093	342
405.317	315
405.541	320
405.765	307
405.988	327
406.212	307
406.436	308
406.66	313
406.883	303
407.107	334
407.331	351
407.555	366
407.778	335
408.002	329
408.226	340
408.449	327
408.673	331
408.896	298
409.12	309
409.344	337
409.567	313
409.791	343
410.014	334
410.238	322
410.461	302
410.685	320
410.908	313
411.132	305
411.355	288
411.578	316
411.802	286
412.025	303
412.249	292
412.472	273
412.695	298
412.919	297
413.142	269
413.365	280
413.589	291
413.812	288
414.035	273
414.258	277
414.482	281
414.705	295
414.928	284
415.151	297
415.374	310
415.597	285
415.821	287
416.044	290
416.267	277
416.49	262
416.713	263
416.936	273
417.159	265
417.382	285
417.605	273
417.828	275
418.051	280
418.274	302
418.497	261
418.72	277
418.943	291
419.166	304
419.389	310
419.611	301
419.834	305
420.057	276
420.28	262
420.503	263
420.726	266
420.948	280
421.171	277
421.394	290
421.617	293
421.839	301
422.062	285
422.285	273
422.507	279
422.73	301
422.953	303
423.175	292
423.398	297
423.621	282
423.843	303
424.066	284
424.288	294
424.511	278
424.733	288
424.956	277
425.178	291
425.401	287
425.623	275
425.846	281
426.068	260
426.291	263
426.513	270
426.735	253
426.958	270
427.18	250
427.402	250
427.625	258
427.847	233
428.069	252
428.292	261
428.514	253
428.736	253
428.958	262
429.181	253
429.403	242
429.625	247
429.847	241
430.069	267
430.292	249
430.514	227
430.736	256
430.958	254
431.18	255
431.402	262
431.624	263
431.846	238
432.068	256
432.29	257
432.512	266
432.734	259
432.956	260
433.178	241
433.4	253
433.622	265
433.844	256
434.066	244
434.287	254
434.509	261
434.731	273
434.953	277
435.175	272
435.397	282
435.618	270
435.84	261
436.062	224
436.284	232
436.505	249
436.727	239
436.949	237
437.17	250
437.392	229
437.614	247
437.835	254
438.057	256
438.278	230
438.5	232
438.721	261
438.943	263
439.165	252
439.386	263
439.608	262
439.829	255
440.05	260
440.272	249
440.493	247
440.715	258
440.936	267
441.158	282
441.379	282
441.6	279
441.822	287
442.043	278
442.264	278
442.486	264
442.707	290
442.928	275
443.149	269
443.371	270
443.592	295
443.813	274
444.034	273
444.255	287
444.476	298
444.698	304
444.919	351
445.14	437
445.361	365
445.582	286
445.803	279
446.024	283
446.245	257
446.466	253
446.687	258
446.908	263
447.129	256
447.35	246
447.571	261
447.792	250
448.013	230
448.234	245
448.455	255
448.675	243
448.896	243
449.117	228
449.338	230
449.559	240
449.779	241
450	229
450.221	226
450.442	237
450.662	233
450.883	244
451.104	254
451.324	272
451.545	249
451.766	243
451.986	228
452.207	253
452.428	234
452.648	241
452.869	234
453.089	230
453.31	226
453.53	221
453.751	235
453.971	235
454.192	254
454.412	210
454.633	226
454.853	224
455.073	229
455.294	216
455.514	244
455.734	216
455.955	213
456.175	239
456.395	209
456.616	211
456.836	236
457.056	241
457.276	210
457.497	230
457.717	217
457.937	228
458.157	232
458.377	224
458.598	219
458.818	229
459.038	254
459.258	247
459.478	262
459.698	263
459.918	272
460.138	266
460.358	292
460.578	301
460.798	298
461.018	286
461.238	292
461.458	302
461.678	281
461.898	293
462.118	297
462.338	290
462.558	303
462.777	317
462.997	340
463.217	395
463.437	383
463.657	347
463.876	337
464.096	344
464.316	341
464.536	348
464.755	357
464.975	320
465.195	302
465.414	282
465.634	257
465.854	265
466.073	267
466.293	265
466.512	258
466.732	255
466.951	252
467.171	242
467.391	245
467.61	254
467.829	246
468.049	249
468.268	240
468.488	223
468.707	218
468.927	245
469.146	266
469.365	255
469.585	231
469.804	228
470.023	249
470.243	256
470.462	277
470.681	259
470.901	268
471.12	255
471.339	254
471.558	261
471.777	261
471.997	242
472.216	252
472.435	248
472.654	231
472.873	232
473.092	240
473.311	261
473.53	249
473.749	252
473.968	250
474.187	235
474.406	230
474.625	249
474.844	223
475.063	245
475.282	234
475.501	230
475.72	254
475.939	260
476.158	226
476.377	249
476.596	241
476.814	274
477.033	253
477.252	265
477.471	283
477.69	274
477.908	275
478.127	271
478.346	277
478.564	290
478.783	303
479.002	319
479.22	301
479.439	277
479.658	293
479.876	284
480.095	294
480.313	283
480.532	312
480.751	295
480.969	312
481.188	261
481.406	304
481.624	278
481.843	279
482.061	271
482.28	285
482.498	259
482.717	271
482.935	269
483.153	282
483.372	260
483.59	282
483.808	287
484.027	259
484.245	273
484.463	269
484.681	273
484.9	276
485.118	298
485.336	291
485.554	273
485.772	278
485.99	275
486.209	285
486.427	291
486.645	280
486.863	279
487.081	290
487.299	282
487.517	295
487.735	301
487.953	277
488.171	299
488.389	292
488.607	292
488.825	295
489.043	292
489.261	294
489.479	281
489.696	277
489.914	293
490.132	288
490.35	275
490.568	284
490.786	286
491.003	290
491.221	283
491.439	270
491.657	299
491.874	287
492.092	294
492.31	302
492.527	279
492.745	301
492.963	281
493.18	307
493.398	284
493.615	307
493.833	305
494.05	311
494.268	287
494.485	302
494.703	310
494.92	316
495.138	291
495.355	293
495.573	289
495.79	287
496.008	324
496.225	307
496.442	307
496.66	307
496.877	304
497.094	305
497.312	313
497.529	314
497.746	336
497.963	342
498.181	356
498.398	333
498.615	381
498.832	407
499.049	431
499.267	483
499.484	497
499.701	531
499.918	590
500.135	695
500.352	800
500.569	847
500.786	814
501.003	776
501.22	679
501.437	589
501.654	517
501.871	486
502.088	448
502.305	427
502.522	409
502.739	383
502.956	364
503.172	358
503.389	337
503.606	325
503.823	335
504.04	337
504.256	351
504.473	349
504.69	358
504.907	341
505.123	315
505.34	323
505.557	295
505.773	307
505.99	297
506.207	273
506.423	284
506.64	271
506.856	273
507.073	266
507.289	279
507.506	286
507.722	283
507.939	281
508.155	276
508.372	261
508.588	273
508.805	261
509.021	274
509.238	274
509.454	267
509.67	267
509.887	265
510.103	260
510.319	247
510.536	252
510.752	256
510.968	270
511.184	243
511.401	249
511.617	267
511.833	256
512.049	260
512.265	244
512.481	251
512.698	257
512.914	253
513.13	243
513.346	262
513.562	254
513.778	249
513.994	246
514.21	261
514.426	254
514.642	259
514.858	271
515.074	260
515.29	262
515.506	257
515.721	263
515.937	283
516.153	271
516.369	279
516.585	291
516.801	301
517.016	299
517.232	307
517.448	351
517.664	351
517.879	351
518.095	354
518.311	348
518.527	307
518.742	329
518.958	317
519.173	294
519.389	278
519.605	273
519.82	263
520.036	276
520.251	272
520.467	263
520.682	265
520.898	258
521.113	253
521.329	244
521.544	244
521.76	254
521.975	259
522.19	257
522.406	228
522.621	251
522.836	258
523.052	237
523.267	260
523.482	241
523.698	243
523.913	241
524.128	238
524.343	242
524.559	239
524.774	235
524.989	247
525.204	246
525.419	245
525.634	251
525.849	233
526.064	258
526.28	229
526.495	240
526.71	257
526.925	223
527.14	239
527.355	235
527.57	227
527.785	274
527.999	237
528.214	249
528.429	240
528.644	257
528.859	244
529.074	243
529.289	243
529.503	246
529.718	246
529.933	227
530.148	257
530.363	253
530.577	241
530.792	246
531.007	246
531.221	255
531.436	233
531.651	240
531.865	243
532.08	246
532.295	251
532.509	245
532.724	240
532.938	230
533.153	228
533.367	247
533.582	254
533.796	241
534.011	243
534.225	242
534.44	226
534.654	247
534.868	233
535.083	226
535.297	229
535.511	240
535.726	254
535.94	234
536.154	230
536.369	242
536.583	214
536.797	235
537.011	236
537.225	238
537.44	212
537.654	224
537.868	221
538.082	222
538.296	229
538.51	225
538.724	223
538.938	232
539.153	230
539.367	215
539.581	228
539.795	222
540.009	228
540.222	224
540.436	216
540.65	230
540.864	226
541.078	215
541.292	227
541.506	225
541.72	230
541.934	213
542.147	230
542.361	223
542.575	207
542.789	218
543.002	231
543.216	221
543.43	220
543.644	221
543.857	216
544.071	209
544.285	215
544.498	213
544.712	228
544.925	231
545.139	229
545.352	232
545.566	232
545.779	252
545.993	221
546.206	250
546.42	228
546.633	240
546.847	237
547.06	242
547.274	237
547.487	240
547.7	230
547.914	221
548.127	239
548.34	241
548.554	227
548.767	223
548.98	226
549.193	240
549.407	237
549.62	253
549.833	252
550.046	227
550.259	221
550.473	243
550.686	237
550.899	223
551.112	231
551.325	253
551.538	230
551.751	229
551.964	222
552.177	226
552.39	216
552.603	245
552.816	239
553.029	255
553.242	251
553.455	265
553.667	264
553.88	270
554.093	233
554.306	239
554.519	246
554.732	228
554.944	240
555.157	231
555.37	229
555.583	225
555.795	212
556.008	224
556.221	215
556.433	221
556.646	227
556.859	198
557.071	217
557.284	211
557.496	211
557.709	226
557.921	210
558.134	200
558.346	214
558.559	229
558.771	211
558.984	214
559.196	207
559.409	209
559.621	202
559.833	195
560.046	206
560.258	201
560.47	190
560.683	197
560.895	190
561.107	209
561.32	190
561.532	199
561.744	210
561.956	191
562.168	194
562.381	199
562.593	204
562.805	203
563.017	205
563.229	197
563.441	198
563.653	211
563.865	216
564.077	203
564.289	213
564.501	204
564.713	189
564.925	226
565.137	222
565.349	217
565.561	216
565.773	257
565.985	259
566.197	233
566.408	267
566.62	277
566.832	312
567.044	314
567.255	302
567.467	313
567.679	332
567.891	365
568.102	365
568.314	337
568.526	313
568.737	304
568.949	257
569.161	251
569.372	231
569.584	227
569.795	215
570.007	209
570.218	192
570.43	211
570.641	217
570.853	209
571.064	194
571.276	197
571.487	210
571.698	203
571.91	207
572.121	196
572.333	179
572.544	186
572.755	185
572.966	177
573.178	181
573.389	191
573.6	192
573.811	177
574.023	192
574.234	178
574.445	170
574.656	176
574.867	195
575.078	186
575.289	186
575.501	191
575.712	183
575.923	178
576.134	190
576.345	168
576.556	173
576.767	202
576.978	191
577.188	194
577.399	183
577.61	171
577.821	192
578.032	170
578.243	179
578.454	163
578.665	168
578.875	155
579.086	162
579.297	163
579.508	175
579.718	173
579.929	166
580.14	171
580.35	156
580.561	173
580.772	182
580.982	159
581.193	162
581.403	164
581.614	163
581.825	161
582.035	166
582.246	149
582.456	167
582.667	168
582.877	165
583.087	165
583.298	171
583.508	165
583.719	164
583.929	171
584.139	171
584.35	146
584.56	161
584.77	162
584.981	167
585.191	179
585.401	169
585.611	154
585.821	166
586.032	168
586.242	164
586.452	179
586.662	164
586.872	177
587.082	174
587.292	163
587.502	167
587.713	162
587.923	159
588.133	168
588.343	163
588.553	167
588.762	153
588.972	160
589.182	159
589.392	158
589.602	173
589.812	159
590.022	166
590.232	164
590.441	179
590.651	178
590.861	170
591.071	162
591.281	162
591.49	168
591.7	169
591.91	176
592.119	180
592.329	177
592.539	175
592.748	173
592.958	181
593.167	199
593.377	193
593.587	206
593.796	186
594.006	186
594.215	180
594.424	192
594.634	200
594.843	201
595.053	183
595.262	169
595.472	169
595.681	164
595.89	177
596.1	163
596.309	160
596.518	162
596.727	153
596.937	162
597.146	150
597.355	144
597.564	152
597.774	150
597.983	165
598.192	137
598.401	161
598.61	154
598.819	138
599.028	153
599.237	160
599.446	148
599.655	150
599.864	147
600.073	154
600.282	152
600.491	149
600.7	150
600.909	153
601.118	154
601.327	146
601.536	150
601.745	149
601.953	157
602.162	160
602.371	134
602.58	137
602.789	141
602.997	132
603.206	146
603.415	162
603.623	151
603.832	140
604.041	153
604.249	151
604.458	132
604.666	144
604.875	142
605.084	145
605.292	141
605.501	147
605.709	143
605.918	129
606.126	153
606.334	138
606.543	150
606.751	145
606.96	145
607.168	147
607.376	161
607.585	146
607.793	139
608.001	147
608.21	133
608.418	159
608.626	147
608.834	140
609.043	137
609.251	143
609.459	130
609.667	134
609.875	139
610.083	143
610.291	140
610.499	145
610.707	150
610.916	153
611.124	138
611.332	133
611.54	141
611.748	130
611.955	135
612.163	136
612.371	150
612.579	134
612.787	146
612.995	157
613.203	135
613.411	138
613.618	117
613.826	133
614.034	121
614.242	132
614.449	147
614.657	143
614.865	156
615.072	140
615.28	139
615.488	132
615.695	143
615.903	137
616.111	146
616.318	151
616.526	133
616.733	142
616.941	138
617.148	150
617.356	143
617.563	146
617.771	144
617.978	133
618.185	136
618.393	145
618.6	152
618.807	140
619.015	136
619.222	130
619.429	130
619.637	152
619.844	133
620.051	154
620.258	137
620.466	140
620.673	137
620.88	125
621.087	146
621.294	136
621.501	119
621.708	123
621.915	118
622.122	121
622.329	139
622.536	134
622.743	124
622.95	130
623.157	122
623.364	121
623.571	130
623.778	128
623.985	129
624.192	140
624.399	134
624.606	141
624.812	127
625.019	125
625.226	133
625.433	135
625.639	124
625.846	128
626.053	111
626.259	128
626.466	120
626.673	122
626.879	127
627.086	135
627.293	122
627.499	147
627.706	140
627.912	126
628.119	131
628.325	135
628.532	130
628.738	116
628.945	128
629.151	125
629.357	125
629.564	117
629.77	110
629.976	122
630.183	129
630.389	133
630.595	118
630.802	121
631.008	129
631.214	117
631.42	118
631.627	122
631.833	122
632.039	130
632.245	120
632.451	135
632.657	116
632.863	129
633.069	129
633.275	124
633.481	117
633.688	123
633.893	112
634.099	127
634.305	136
634.511	126
634.717	133
634.923	111
635.129	118
635.335	106
635.541	105
635.747	104
635.952	119
636.158	138
636.364	109
636.57	133
636.775	113
636.981	113
637.187	118
637.392	109
637.598	102
637.804	102
638.009	124
638.215	111
638.421	112
638.626	115
638.832	124
639.037	107
639.243	119
639.448	115
639.654	123
639.859	100
640.065	111
640.27	128
640.475	122
640.681	102
640.886	125
641.091	113
641.297	107
641.502	102
641.707	116
641.913	121
642.118	122
642.323	121
642.528	112
642.733	111
642.939	118
643.144	119
643.349	119
643.554	126
643.759	103
643.964	123
644.169	121
644.374	109
644.579	109
644.784	109
644.989	111
645.194	103
645.399	109
645.604	117
645.809	120
646.014	123
646.219	118
646.423	123
646.628	120
646.833	123
647.038	108
647.243	107
647.447	118
647.652	121
647.857	119
648.062	126
648.266	125
648.471	125
648.676	121
648.88	119
649.085	109
649.289	121
649.494	129
649.698	138
649.903	109
650.107	109
650.312	118
650.516	118
650.721	97
650.925	117
651.13	99
651.334	106
651.539	122
651.743	101
651.947	105
652.152	109
652.356	105
652.56	102
652.764	99
652.969	106
653.173	98
653.377	100
653.581	109
653.785	91
653.99	91
654.194	101
654.398	111
654.602	97
654.806	99
655.01	105
655.214	110
655.418	93
655.622	101
655.826	95
656.03	99
656.234	99
656.438	118
656.642	115
656.846	109
657.049	111
657.253	101
657.457	89
657.661	88
657.865	98
658.068	102
658.272	98
658.476	96
658.68	86
658.883	92
659.087	88
659.291	72
659.494	101
659.698	89
659.901	90
660.105	91
660.309	91
660.512	90
660.716	79
660.919	89
661.123	70
661.326	75
661.53	83
661.733	77
661.936	71
662.14	81
662.343	85
662.546	74
662.75	82
662.953	79
663.156	80
663.36	89
663.563	96
663.766	86
663.969	78
664.173	73
664.376	82
664.579	96
664.782	80
664.985	86
665.188	69
665.391	81
665.594	74
665.797	78
666	77
666.203	82
666.406	86
666.609	80
666.812	73
667.015	70
667.218	77
667.421	61
667.624	77
667.827	80
668.03	91
668.232	89
668.435	77
668.638	84
668.841	72
669.043	75
669.246	70
669.449	83
669.651	72
669.854	88
670.057	84
670.259	87
670.462	82
670.665	75
670.867	72
671.07	80
671.272	86
671.475	86
671.677	67
671.88	73
672.082	81
672.284	77
672.487	77
672.689	70
672.892	75
