Data from 0.5MCu(NO3)2.Standard.Lamp.E10.CV._HRD10591_16-05-24-753.txt Node
Date: Mon Jul 22 16:05:24 EDT 2019
User: cochatt
Spectrometer: HR+D1059
Trigger mode: 1
Integration Time (sec): 1.000000E-1
Scans to average: 1
Electric dark correction enabled: true
Nonlinearity correction enabled: false
Boxcar width: 0
XAxis mode: Wavelengths
Number of Pixels in Spectrum: 2048
>>>>>Begin Spectral Data<<<<<
223.165	-0.88
223.4	-0.88
223.635	-0.88
223.869	-6.88
224.104	-27.88
224.338	-14.88
224.573	-10.88
224.808	-4.88
225.042	-12.88
225.277	-7.88
225.511	-4.88
225.746	-7.88
225.98	13.12
226.215	7.12
226.449	8.12
226.683	16.12
226.918	21.12
227.152	34.12
227.387	41.12
227.621	40.12
227.856	47.12
228.09	39.12
228.324	35.12
228.559	49.12
228.793	56.12
229.027	68.12
229.262	68.12
229.496	75.12
229.73	66.12
229.964	81.12
230.199	84.12
230.433	77.12
230.667	95.12
230.901	91.12
231.136	71.12
231.37	82.12
231.604	90.12
231.838	84.12
232.072	83.12
232.306	91.12
232.541	85.12
232.775	84.12
233.009	98.12
233.243	89.12
233.477	84.12
233.711	94.12
233.945	91.12
234.179	95.12
234.413	96.12
234.647	84.12
234.881	94.12
235.115	87.12
235.349	83.12
235.583	92.12
235.817	74.12
236.051	87.12
236.285	91.12
236.519	83.12
236.753	91.12
236.987	76.12
237.221	78.12
237.455	94.12
237.689	88.12
237.922	92.12
238.156	88.12
238.39	78.12
238.624	83.12
238.858	98.12
239.091	93.12
239.325	85.12
239.559	77.12
239.793	97.12
240.027	92.12
240.26	95.12
240.494	93.12
240.728	88.12
240.961	107.12
241.195	97.12
241.429	99.12
241.662	88.12
241.896	86.12
242.13	91.12
242.363	91.12
242.597	91.12
242.83	99.12
243.064	95.12
243.298	99.12
243.531	98.12
243.765	99.12
243.998	97.12
244.232	100.12
244.465	85.12
244.699	97.12
244.932	99.12
245.166	106.12
245.399	111.12
245.633	111.12
245.866	115.12
246.099	104.12
246.333	104.12
246.566	99.12
246.8	95.12
247.033	96.12
247.266	112.12
247.5	115.12
247.733	103.12
247.966	86.12
248.2	101.12
248.433	99.12
248.666	103.12
248.899	109.12
249.133	116.12
249.366	106.12
249.599	117.12
249.832	107.12
250.066	125.12
250.299	100.12
250.532	105.12
250.765	97.12
250.998	124.12
251.231	114.12
251.465	122.12
251.698	122.12
251.931	108.12
252.164	113.12
252.397	116.12
252.63	107.12
252.863	109.12
253.096	102.12
253.329	118.12
253.562	113.12
253.795	124.12
254.028	131.12
254.261	115.12
254.494	106.12
254.727	106.12
254.96	105.12
255.193	112.12
255.426	103.12
255.659	122.12
255.892	120.12
256.124	125.12
256.357	110.12
256.59	105.12
256.823	112.12
257.056	119.12
257.289	124.12
257.521	129.12
257.754	123.12
257.987	115.12
258.22	119.12
258.452	114.12
258.685	117.12
258.918	125.12
259.151	107.12
259.383	123.12
259.616	131.12
259.849	130.12
260.081	126.12
260.314	105.12
260.547	113.12
260.779	134.12
261.012	128.12
261.244	127.12
261.477	131.12
261.71	136.12
261.942	138.12
262.175	132.12
262.407	120.12
262.64	133.12
262.872	130.12
263.105	124.12
263.337	137.12
263.57	126.12
263.802	145.12
264.035	123.12
264.267	134.12
264.499	145.12
264.732	126.12
264.964	133.12
265.197	121.12
265.429	131.12
265.661	133.12
265.894	145.12
266.126	137.12
266.358	128.12
266.591	127.12
266.823	143.12
267.055	121.12
267.287	137.12
267.52	131.12
267.752	138.12
267.984	131.12
268.216	135.12
268.448	136.12
268.681	138.12
268.913	144.12
269.145	135.12
269.377	142.12
269.609	132.12
269.841	142.12
270.073	133.12
270.306	136.12
270.538	142.12
270.77	141.12
271.002	143.12
271.234	145.12
271.466	160.12
271.698	135.12
271.93	134.12
272.162	139.12
272.394	134.12
272.626	141.12
272.858	135.12
273.09	133.12
273.322	151.12
273.553	160.12
273.785	161.12
274.017	144.12
274.249	145.12
274.481	145.12
274.713	148.12
274.945	147.12
275.176	154.12
275.408	149.12
275.64	142.12
275.872	142.12
276.104	137.12
276.335	162.12
276.567	161.12
276.799	143.12
277.031	142.12
277.262	161.12
277.494	159.12
277.726	149.12
277.957	151.12
278.189	142.12
278.421	175.12
278.652	147.12
278.884	160.12
279.115	164.12
279.347	165.12
279.579	148.12
279.81	152.12
280.042	164.12
280.273	154.12
280.505	149.12
280.736	162.12
280.968	171.12
281.199	181.12
281.431	159.12
281.662	163.12
281.894	166.12
282.125	156.12
282.356	154.12
282.588	161.12
282.819	179.12
283.051	155.12
283.282	156.12
283.513	156.12
283.745	162.12
283.976	177.12
284.207	179.12
284.439	164.12
284.67	175.12
284.901	156.12
285.132	173.12
285.364	159.12
285.595	159.12
285.826	156.12
286.057	169.12
286.288	161.12
286.52	169.12
286.751	176.12
286.982	178.12
287.213	192.12
287.444	160.12
287.675	187.12
287.906	186.12
288.138	176.12
288.369	178.12
288.6	176.12
288.831	184.12
289.062	173.12
289.293	182.12
289.524	175.12
289.755	179.12
289.986	152.12
290.217	165.12
290.448	177.12
290.679	195.12
290.91	188.12
291.141	165.12
291.371	182.12
291.602	185.12
291.833	177.12
292.064	180.12
292.295	192.12
292.526	191.12
292.757	177.12
292.987	184.12
293.218	183.12
293.449	180.12
293.68	187.12
293.91	186.12
294.141	168.12
294.372	166.12
294.603	166.12
294.833	169.12
295.064	185.12
295.295	179.12
295.525	168.12
295.756	202.12
295.987	183.12
296.217	189.12
296.448	187.12
296.679	176.12
296.909	183.12
297.14	179.12
297.37	193.12
297.601	186.12
297.831	201.12
298.062	205.12
298.292	196.12
298.523	203.12
298.753	189.12
298.984	197.12
299.214	195.12
299.445	199.12
299.675	194.12
299.905	196.12
300.136	192.12
300.366	205.12
300.597	186.12
300.827	195.12
301.057	209.12
301.288	210.12
301.518	201.12
301.748	209.12
301.979	208.12
302.209	196.12
302.439	201.12
302.669	206.12
302.9	211.12
303.13	205.12
303.36	196.12
303.59	192.12
303.82	199.12
304.051	207.12
304.281	176.12
304.511	186.12
304.741	209.12
304.971	191.12
305.201	193.12
305.431	204.12
305.661	187.12
305.891	192.12
306.121	202.12
306.352	179.12
306.582	189.12
306.812	183.12
307.042	183.12
307.272	184.12
307.502	182.12
307.731	190.12
307.961	193.12
308.191	189.12
308.421	194.12
308.651	183.12
308.881	192.12
309.111	198.12
309.341	197.12
309.571	190.12
309.8	199.12
310.03	201.12
310.26	197.12
310.49	187.12
310.72	191.12
310.949	195.12
311.179	189.12
311.409	199.12
311.639	187.12
311.868	197.12
312.098	201.12
312.328	204.12
312.557	191.12
312.787	201.12
313.017	204.12
313.246	218.12
313.476	202.12
313.706	209.12
313.935	211.12
314.165	216.12
314.394	204.12
314.624	209.12
314.853	209.12
315.083	184.12
315.312	197.12
315.542	204.12
315.771	189.12
316.001	215.12
316.23	197.12
316.46	199.12
316.689	219.12
316.919	210.12
317.148	197.12
317.377	193.12
317.607	200.12
317.836	201.12
318.065	189.12
318.295	210.12
318.524	191.12
318.753	202.12
318.983	197.12
319.212	193.12
319.441	199.12
319.67	203.12
319.9	188.12
320.129	202.12
320.358	201.12
320.587	201.12
320.816	213.12
321.046	200.12
321.275	227.12
321.504	203.12
321.733	202.12
321.962	208.12
322.191	207.12
322.42	209.12
322.649	213.12
322.878	204.12
323.108	209.12
323.337	205.12
323.566	207.12
323.795	203.12
324.024	204.12
324.253	210.12
324.482	183.12
324.71	212.12
324.939	201.12
325.168	220.12
325.397	214.12
325.626	203.12
325.855	212.12
326.084	219.12
326.313	208.12
326.542	216.12
326.77	216.12
326.999	230.12
327.228	209.12
327.457	226.12
327.686	218.12
327.914	226.12
328.143	224.12
328.372	216.12
328.6	229.12
328.829	215.12
329.058	217.12
329.287	217.12
329.515	208.12
329.744	213.12
329.972	216.12
330.201	204.12
330.43	225.12
330.658	220.12
330.887	225.12
331.115	218.12
331.344	219.12
331.572	235.12
331.801	218.12
332.03	240.12
332.258	230.12
332.486	235.12
332.715	273.12
332.943	263.12
333.172	290.12
333.4	292.12
333.629	274.12
333.857	264.12
334.085	266.12
334.314	274.12
334.542	260.12
334.771	261.12
334.999	247.12
335.227	256.12
335.455	261.12
335.684	243.12
335.912	250.12
336.14	251.12
336.369	251.12
336.597	248.12
336.825	273.12
337.053	250.12
337.281	227.12
337.51	243.12
337.738	224.12
337.966	226.12
338.194	233.12
338.422	228.12
338.65	219.12
338.878	215.12
339.106	220.12
339.334	228.12
339.562	206.12
339.79	211.12
340.018	235.12
340.246	221.12
340.474	218.12
340.702	226.12
340.93	225.12
341.158	224.12
341.386	209.12
341.614	221.12
341.842	212.12
342.07	214.12
342.298	207.12
342.526	210.12
342.754	207.12
342.981	223.12
343.209	226.12
343.437	230.12
343.665	252.12
343.893	261.12
344.12	264.12
344.348	245.12
344.576	244.12
344.804	248.12
345.031	239.12
345.259	251.12
345.487	232.12
345.714	220.12
345.942	223.12
346.17	227.12
346.397	233.12
346.625	237.12
346.853	203.12
347.08	217.12
347.308	217.12
347.535	220.12
347.763	225.12
347.99	216.12
348.218	217.12
348.445	212.12
348.673	231.12
348.9	216.12
349.128	214.12
349.355	212.12
349.583	210.12
349.81	223.12
350.037	219.12
350.265	218.12
350.492	191.12
350.72	208.12
350.947	211.12
351.174	221.12
351.402	203.12
351.629	207.12
351.856	204.12
352.083	227.12
352.311	205.12
352.538	211.12
352.765	220.12
352.992	201.12
353.22	215.12
353.447	211.12
353.674	204.12
353.901	215.12
354.128	209.12
354.355	218.12
354.583	207.12
354.81	206.12
355.037	196.12
355.264	202.12
355.491	219.12
355.718	195.12
355.945	204.12
356.172	216.12
356.399	220.12
356.626	211.12
356.853	219.12
357.08	219.12
357.307	216.12
357.534	224.12
357.761	213.12
357.988	221.12
358.215	220.12
358.441	205.12
358.668	212.12
358.895	203.12
359.122	226.12
359.349	205.12
359.576	204.12
359.802	211.12
360.029	186.12
360.256	197.12
360.483	193.12
360.709	185.12
360.936	211.12
361.163	221.12
361.39	197.12
361.616	205.12
361.843	214.12
362.07	202.12
362.296	207.12
362.523	211.12
362.749	206.12
362.976	201.12
363.203	199.12
363.429	208.12
363.656	199.12
363.882	207.12
364.109	215.12
364.335	222.12
364.562	207.12
364.788	198.12
365.015	205.12
365.241	214.12
365.468	198.12
365.694	207.12
365.92	203.12
366.147	218.12
366.373	207.12
366.599	217.12
366.826	205.12
367.052	203.12
367.278	202.12
367.505	194.12
367.731	198.12
367.957	206.12
368.184	187.12
368.41	217.12
368.636	220.12
368.862	212.12
369.089	217.12
369.315	224.12
369.541	227.12
369.767	230.12
369.993	205.12
370.219	225.12
370.445	223.12
370.672	220.12
370.898	218.12
371.124	202.12
371.35	218.12
371.576	206.12
371.802	224.12
372.028	229.12
372.254	230.12
372.48	217.12
372.706	228.12
372.932	229.12
373.158	241.12
373.384	228.12
373.61	220.12
373.835	238.12
374.061	216.12
374.287	218.12
374.513	224.12
374.739	222.12
374.965	225.12
375.191	249.12
375.416	221.12
375.642	240.12
375.868	232.12
376.094	242.12
376.319	227.12
376.545	223.12
376.771	219.12
376.997	225.12
377.222	220.12
377.448	219.12
377.674	219.12
377.899	215.12
378.125	213.12
378.35	211.12
378.576	203.12
378.802	204.12
379.027	216.12
379.253	227.12
379.478	212.12
379.704	234.12
379.929	206.12
380.155	207.12
380.38	224.12
380.606	228.12
380.831	225.12
381.057	219.12
381.282	211.12
381.507	215.12
381.733	220.12
381.958	219.12
382.184	218.12
382.409	220.12
382.634	233.12
382.86	213.12
383.085	218.12
383.31	239.12
383.535	239.12
383.761	233.12
383.986	227.12
384.211	235.12
384.436	254.12
384.662	266.12
384.887	246.12
385.112	251.12
385.337	249.12
385.562	239.12
385.787	260.12
386.013	260.12
386.238	257.12
386.463	244.12
386.688	232.12
386.913	239.12
387.138	239.12
387.363	229.12
387.588	252.12
387.813	228.12
388.038	246.12
388.263	269.12
388.488	248.12
388.713	273.12
388.938	255.12
389.163	215.12
389.387	231.12
389.612	234.12
389.837	233.12
390.062	243.12
390.287	232.12
390.512	232.12
390.736	240.12
390.961	247.12
391.186	248.12
391.411	263.12
391.636	247.12
391.86	245.12
392.085	284.12
392.31	261.12
392.534	260.12
392.759	262.12
392.984	273.12
393.208	255.12
393.433	250.12
393.658	281.12
393.882	272.12
394.107	273.12
394.331	268.12
394.556	271.12
394.78	244.12
395.005	251.12
395.229	264.12
395.454	258.12
395.678	273.12
395.903	251.12
396.127	278.12
396.352	268.12
396.576	258.12
396.801	273.12
397.025	264.12
397.249	240.12
397.474	273.12
397.698	246.12
397.922	251.12
398.147	262.12
398.371	267.12
398.595	278.12
398.82	279.12
399.044	307.12
399.268	335.12
399.492	368.12
399.717	415.12
399.941	397.12
400.165	371.12
400.389	328.12
400.613	319.12
400.837	304.12
401.062	281.12
401.286	291.12
401.51	287.12
401.734	284.12
401.958	292.12
402.182	292.12
402.406	292.12
402.63	308.12
402.854	307.12
403.078	320.12
403.302	306.12
403.526	335.12
403.75	324.12
403.974	322.12
404.198	335.12
404.422	343.12
404.645	333.12
404.869	333.12
405.093	305.12
405.317	311.12
405.541	325.12
405.765	307.12
405.988	299.12
406.212	301.12
406.436	311.12
406.66	301.12
406.883	329.12
407.107	333.12
407.331	358.12
407.555	375.12
407.778	368.12
408.002	368.12
408.226	335.12
408.449	342.12
408.673	323.12
408.896	330.12
409.12	337.12
409.344	333.12
409.567	316.12
409.791	327.12
410.014	339.12
410.238	321.12
410.461	328.12
410.685	326.12
410.908	320.12
411.132	319.12
411.355	296.12
411.578	310.12
411.802	295.12
412.025	298.12
412.249	318.12
412.472	303.12
412.695	277.12
412.919	289.12
413.142	289.12
413.365	292.12
413.589	290.12
413.812	297.12
414.035	284.12
414.258	281.12
414.482	282.12
414.705	292.12
414.928	298.12
415.151	292.12
415.374	304.12
415.597	278.12
415.821	293.12
416.044	286.12
416.267	263.12
416.49	296.12
416.713	276.12
416.936	279.12
417.159	285.12
417.382	299.12
417.605	279.12
417.828	284.12
418.051	297.12
418.274	307.12
418.497	284.12
418.72	287.12
418.943	311.12
419.166	312.12
419.389	316.12
419.611	328.12
419.834	301.12
420.057	293.12
420.28	274.12
420.503	292.12
420.726	296.12
420.948	287.12
421.171	268.12
421.394	279.12
421.617	288.12
421.839	271.12
422.062	299.12
422.285	298.12
422.507	305.12
422.73	296.12
422.953	291.12
423.175	320.12
423.398	317.12
423.621	287.12
423.843	307.12
424.066	325.12
424.288	291.12
424.511	300.12
424.733	293.12
424.956	291.12
425.178	281.12
425.401	299.12
425.623	297.12
425.846	280.12
426.068	268.12
426.291	273.12
426.513	288.12
426.735	261.12
426.958	277.12
427.18	255.12
427.402	244.12
427.625	254.12
427.847	265.12
428.069	263.12
428.292	264.12
428.514	257.12
428.736	249.12
428.958	261.12
429.181	255.12
429.403	264.12
429.625	251.12
429.847	257.12
430.069	241.12
430.292	251.12
430.514	263.12
430.736	248.12
430.958	242.12
431.18	253.12
431.402	240.12
431.624	245.12
431.846	259.12
432.068	273.12
432.29	282.12
432.512	264.12
432.734	257.12
432.956	260.12
433.178	275.12
433.4	259.12
433.622	257.12
433.844	259.12
434.066	269.12
434.287	280.12
434.509	276.12
434.731	293.12
434.953	307.12
435.175	296.12
435.397	284.12
435.618	276.12
435.84	263.12
436.062	267.12
436.284	263.12
436.505	244.12
436.727	259.12
436.949	261.12
437.17	256.12
437.392	243.12
437.614	271.12
437.835	252.12
438.057	242.12
438.278	251.12
438.5	250.12
438.721	255.12
438.943	260.12
439.165	252.12
439.386	238.12
439.608	236.12
439.829	242.12
440.05	253.12
440.272	261.12
440.493	255.12
440.715	278.12
440.936	263.12
441.158	290.12
441.379	278.12
441.6	291.12
441.822	295.12
442.043	296.12
442.264	292.12
442.486	273.12
442.707	281.12
442.928	278.12
443.149	276.12
443.371	272.12
443.592	286.12
443.813	292.12
444.034	289.12
444.255	291.12
444.476	305.12
444.698	304.12
444.919	340.12
445.14	440.12
445.361	360.12
445.582	293.12
445.803	277.12
446.024	279.12
446.245	279.12
446.466	264.12
446.687	275.12
446.908	267.12
447.129	262.12
447.35	248.12
447.571	261.12
447.792	256.12
448.013	249.12
448.234	251.12
448.455	241.12
448.675	264.12
448.896	231.12
449.117	261.12
449.338	242.12
449.559	231.12
449.779	255.12
450	248.12
450.221	237.12
450.442	231.12
450.662	239.12
450.883	238.12
451.104	257.12
451.324	245.12
451.545	251.12
451.766	255.12
451.986	257.12
452.207	245.12
452.428	226.12
452.648	247.12
452.869	241.12
453.089	215.12
453.31	247.12
453.53	235.12
453.751	237.12
453.971	252.12
454.192	221.12
454.412	215.12
454.633	221.12
454.853	230.12
455.073	227.12
455.294	228.12
455.514	218.12
455.734	218.12
455.955	225.12
456.175	219.12
456.395	223.12
456.616	232.12
456.836	239.12
457.056	234.12
457.276	217.12
457.497	237.12
457.717	219.12
457.937	214.12
458.157	227.12
458.377	235.12
458.598	242.12
458.818	243.12
459.038	265.12
459.258	256.12
459.478	258.12
459.698	253.12
459.918	263.12
460.138	281.12
460.358	293.12
460.578	298.12
460.798	292.12
461.018	300.12
461.238	320.12
461.458	323.12
461.678	293.12
461.898	304.12
462.118	290.12
462.338	299.12
462.558	324.12
462.777	345.12
462.997	345.12
463.217	390.12
463.437	387.12
463.657	352.12
463.876	354.12
464.096	338.12
464.316	335.12
464.536	357.12
464.755	331.12
464.975	322.12
465.195	312.12
465.414	300.12
465.634	277.12
465.854	283.12
466.073	281.12
466.293	276.12
466.512	261.12
466.732	249.12
466.951	248.12
467.171	244.12
467.391	273.12
467.61	248.12
467.829	258.12
468.049	259.12
468.268	233.12
468.488	250.12
468.707	244.12
468.927	250.12
469.146	235.12
469.365	246.12
469.585	236.12
469.804	259.12
470.023	243.12
470.243	260.12
470.462	284.12
470.681	268.12
470.901	263.12
471.12	261.12
471.339	267.12
471.558	237.12
471.777	260.12
471.997	255.12
472.216	246.12
472.435	234.12
472.654	261.12
472.873	245.12
473.092	244.12
473.311	260.12
473.53	257.12
473.749	236.12
473.968	245.12
474.187	246.12
474.406	252.12
474.625	240.12
474.844	239.12
475.063	228.12
475.282	226.12
475.501	239.12
475.72	242.12
475.939	242.12
476.158	244.12
476.377	258.12
476.596	240.12
476.814	242.12
477.033	268.12
477.252	260.12
477.471	273.12
477.69	273.12
477.908	276.12
478.127	275.12
478.346	267.12
478.564	289.12
478.783	287.12
479.002	300.12
479.22	306.12
479.439	307.12
479.658	298.12
479.876	303.12
480.095	285.12
480.313	289.12
480.532	308.12
480.751	321.12
480.969	309.12
481.188	291.12
481.406	301.12
481.624	270.12
481.843	277.12
482.061	278.12
482.28	267.12
482.498	298.12
482.717	267.12
482.935	271.12
483.153	275.12
483.372	280.12
483.59	279.12
483.808	282.12
484.027	268.12
484.245	287.12
484.463	275.12
484.681	289.12
484.9	279.12
485.118	285.12
485.336	289.12
485.554	292.12
485.772	297.12
485.99	295.12
486.209	295.12
486.427	287.12
486.645	315.12
486.863	276.12
487.081	295.12
487.299	302.12
487.517	275.12
487.735	298.12
487.953	287.12
488.171	277.12
488.389	292.12
488.607	287.12
488.825	307.12
489.043	289.12
489.261	293.12
489.479	283.12
489.696	282.12
489.914	291.12
490.132	299.12
490.35	295.12
490.568	290.12
490.786	304.12
491.003	292.12
491.221	296.12
491.439	298.12
491.657	311.12
491.874	292.12
492.092	281.12
492.31	297.12
492.527	287.12
492.745	297.12
492.963	307.12
493.18	297.12
493.398	285.12
493.615	297.12
493.833	312.12
494.05	307.12
494.268	302.12
494.485	323.12
494.703	296.12
494.92	307.12
495.138	290.12
495.355	291.12
495.573	317.12
495.79	311.12
496.008	309.12
496.225	315.12
496.442	309.12
496.66	304.12
496.877	312.12
497.094	314.12
497.312	323.12
497.529	325.12
497.746	351.12
497.963	346.12
498.181	356.12
498.398	362.12
498.615	378.12
498.832	407.12
499.049	428.12
499.267	480.12
499.484	505.12
499.701	567.12
499.918	605.12
500.135	704.12
500.352	800.12
500.569	876.12
500.786	851.12
501.003	763.12
501.22	670.12
501.437	591.12
501.654	546.12
501.871	480.12
502.088	463.12
502.305	419.12
502.522	399.12
502.739	378.12
502.956	365.12
503.172	375.12
503.389	351.12
503.606	326.12
503.823	333.12
504.04	351.12
504.256	323.12
504.473	344.12
504.69	367.12
504.907	368.12
505.123	339.12
505.34	317.12
505.557	316.12
505.773	315.12
505.99	296.12
506.207	287.12
506.423	284.12
506.64	284.12
506.856	264.12
507.073	278.12
507.289	267.12
507.506	282.12
507.722	287.12
507.939	283.12
508.155	271.12
508.372	256.12
508.588	258.12
508.805	264.12
509.021	279.12
509.238	273.12
509.454	265.12
509.67	279.12
509.887	263.12
510.103	253.12
510.319	265.12
510.536	259.12
510.752	261.12
510.968	259.12
511.184	274.12
511.401	267.12
511.617	265.12
511.833	247.12
512.049	268.12
512.265	270.12
512.481	255.12
512.698	242.12
512.914	276.12
513.13	256.12
513.346	267.12
513.562	253.12
513.778	285.12
513.994	269.12
514.21	258.12
514.426	245.12
514.642	275.12
514.858	250.12
515.074	268.12
515.29	282.12
515.506	265.12
515.721	263.12
515.937	271.12
516.153	274.12
516.369	290.12
516.585	284.12
516.801	303.12
517.016	309.12
517.232	335.12
517.448	356.12
517.664	357.12
517.879	364.12
518.095	332.12
518.311	330.12
518.527	334.12
518.742	316.12
518.958	299.12
519.173	297.12
519.389	301.12
519.605	287.12
519.82	279.12
520.036	281.12
520.251	269.12
520.467	256.12
520.682	270.12
520.898	272.12
521.113	262.12
521.329	269.12
521.544	252.12
521.76	264.12
521.975	229.12
522.19	258.12
522.406	251.12
522.621	265.12
522.836	272.12
523.052	262.12
523.267	249.12
523.482	245.12
523.698	246.12
523.913	251.12
524.128	251.12
524.343	244.12
524.559	231.12
524.774	250.12
524.989	251.12
525.204	259.12
525.419	241.12
525.634	243.12
525.849	247.12
526.064	225.12
526.28	261.12
526.495	236.12
526.71	234.12
526.925	248.12
527.14	239.12
527.355	245.12
527.57	266.12
527.785	239.12
527.999	243.12
528.214	226.12
528.429	240.12
528.644	232.12
528.859	265.12
529.074	240.12
529.289	265.12
529.503	253.12
529.718	248.12
529.933	248.12
530.148	236.12
530.363	255.12
530.577	241.12
530.792	236.12
531.007	263.12
531.221	231.12
531.436	255.12
531.651	251.12
531.865	252.12
532.08	259.12
532.295	254.12
532.509	253.12
532.724	218.12
532.938	236.12
533.153	257.12
533.367	240.12
533.582	265.12
533.796	236.12
534.011	252.12
534.225	239.12
534.44	233.12
534.654	242.12
534.868	259.12
535.083	246.12
535.297	240.12
535.511	229.12
535.726	239.12
535.94	227.12
536.154	226.12
536.369	234.12
536.583	221.12
536.797	219.12
537.011	237.12
537.225	240.12
537.44	235.12
537.654	244.12
537.868	220.12
538.082	218.12
538.296	232.12
538.51	237.12
538.724	234.12
538.938	230.12
539.153	220.12
539.367	240.12
539.581	234.12
539.795	227.12
540.009	231.12
540.222	240.12
540.436	239.12
540.65	229.12
540.864	231.12
541.078	217.12
541.292	232.12
541.506	242.12
541.72	239.12
541.934	228.12
542.147	230.12
542.361	244.12
542.575	239.12
542.789	228.12
543.002	231.12
543.216	230.12
543.43	225.12
543.644	220.12
543.857	227.12
544.071	216.12
544.285	235.12
544.498	224.12
544.712	212.12
544.925	220.12
545.139	241.12
545.352	247.12
545.566	251.12
545.779	226.12
545.993	244.12
546.206	254.12
546.42	252.12
546.633	242.12
546.847	230.12
547.06	219.12
547.274	218.12
547.487	234.12
547.7	239.12
547.914	233.12
548.127	237.12
548.34	230.12
548.554	242.12
548.767	235.12
548.98	228.12
549.193	239.12
549.407	244.12
549.62	245.12
549.833	252.12
550.046	239.12
550.259	240.12
550.473	228.12
550.686	220.12
550.899	232.12
551.112	217.12
551.325	214.12
551.538	247.12
551.751	231.12
551.964	228.12
552.177	218.12
552.39	251.12
552.603	248.12
552.816	259.12
553.029	257.12
553.242	258.12
553.455	276.12
553.667	257.12
553.88	263.12
554.093	254.12
554.306	257.12
554.519	246.12
554.732	234.12
554.944	218.12
555.157	236.12
555.37	228.12
555.583	233.12
555.795	238.12
556.008	229.12
556.221	220.12
556.433	225.12
556.646	218.12
556.859	219.12
557.071	218.12
557.284	220.12
557.496	224.12
557.709	226.12
557.921	209.12
558.134	205.12
558.346	214.12
558.559	214.12
558.771	205.12
558.984	214.12
559.196	195.12
559.409	194.12
559.621	208.12
559.833	210.12
560.046	206.12
560.258	196.12
560.47	211.12
560.683	202.12
560.895	194.12
561.107	208.12
561.32	218.12
561.532	202.12
561.744	200.12
561.956	218.12
562.168	200.12
562.381	205.12
562.593	206.12
562.805	215.12
563.017	219.12
563.229	206.12
563.441	208.12
563.653	219.12
563.865	208.12
564.077	215.12
564.289	221.12
564.501	217.12
564.713	216.12
564.925	228.12
565.137	213.12
565.349	217.12
565.561	245.12
565.773	226.12
565.985	238.12
566.197	257.12
566.408	263.12
566.62	287.12
566.832	307.12
567.044	291.12
567.255	308.12
567.467	328.12
567.679	329.12
567.891	371.12
568.102	369.12
568.314	359.12
568.526	345.12
568.737	307.12
568.949	271.12
569.161	249.12
569.372	216.12
569.584	226.12
569.795	234.12
570.007	211.12
570.218	221.12
570.43	208.12
570.641	209.12
570.853	206.12
571.064	226.12
571.276	220.12
571.487	207.12
571.698	208.12
571.91	210.12
572.121	183.12
572.333	195.12
572.544	198.12
572.755	188.12
572.966	191.12
573.178	180.12
573.389	197.12
573.6	190.12
573.811	189.12
574.023	191.12
574.234	193.12
574.445	189.12
574.656	173.12
574.867	182.12
575.078	180.12
575.289	190.12
575.501	196.12
575.712	183.12
575.923	184.12
576.134	177.12
576.345	176.12
576.556	195.12
576.767	179.12
576.978	157.12
577.188	180.12
577.399	178.12
577.61	187.12
577.821	170.12
578.032	180.12
578.243	178.12
578.454	153.12
578.665	172.12
578.875	165.12
579.086	175.12
579.297	170.12
579.508	160.12
579.718	163.12
579.929	171.12
580.14	168.12
580.35	167.12
580.561	192.12
580.772	174.12
580.982	172.12
581.193	176.12
581.403	156.12
581.614	157.12
581.825	163.12
582.035	171.12
582.246	178.12
582.456	165.12
582.667	168.12
582.877	176.12
583.087	173.12
583.298	173.12
583.508	175.12
583.719	163.12
583.929	163.12
584.139	175.12
584.35	153.12
584.56	162.12
584.77	151.12
584.981	165.12
585.191	158.12
585.401	178.12
585.611	159.12
585.821	173.12
586.032	162.12
586.242	165.12
586.452	154.12
586.662	173.12
586.872	163.12
587.082	159.12
587.292	171.12
587.502	188.12
587.713	179.12
587.923	169.12
588.133	159.12
588.343	184.12
588.553	147.12
588.762	163.12
588.972	169.12
589.182	168.12
589.392	179.12
589.602	172.12
589.812	166.12
590.022	168.12
590.232	166.12
590.441	162.12
590.651	170.12
590.861	179.12
591.071	165.12
591.281	161.12
591.49	176.12
591.7	173.12
591.91	178.12
592.119	175.12
592.329	193.12
592.539	187.12
592.748	209.12
592.958	188.12
593.167	182.12
593.377	218.12
593.587	222.12
593.796	200.12
594.006	215.12
594.215	211.12
594.424	209.12
594.634	203.12
594.843	190.12
595.053	179.12
595.262	187.12
595.472	175.12
595.681	173.12
595.89	171.12
596.1	156.12
596.309	171.12
596.518	163.12
596.727	162.12
596.937	171.12
597.146	159.12
597.355	153.12
597.564	149.12
597.774	167.12
597.983	154.12
598.192	149.12
598.401	170.12
598.61	162.12
598.819	167.12
599.028	164.12
599.237	141.12
599.446	159.12
599.655	156.12
599.864	154.12
600.073	151.12
600.282	134.12
600.491	140.12
600.7	144.12
600.909	138.12
601.118	153.12
601.327	148.12
601.536	156.12
601.745	133.12
601.953	143.12
602.162	148.12
602.371	147.12
602.58	161.12
602.789	162.12
602.997	146.12
603.206	169.12
603.415	145.12
603.623	152.12
603.832	142.12
604.041	153.12
604.249	166.12
604.458	141.12
604.666	132.12
604.875	140.12
605.084	137.12
605.292	142.12
605.501	135.12
605.709	139.12
605.918	145.12
606.126	141.12
606.334	128.12
606.543	151.12
606.751	137.12
606.96	143.12
607.168	135.12
607.376	131.12
607.585	144.12
607.793	133.12
608.001	143.12
608.21	143.12
608.418	153.12
608.626	139.12
608.834	139.12
609.043	136.12
609.251	146.12
609.459	152.12
609.667	145.12
609.875	137.12
610.083	153.12
610.291	157.12
610.499	148.12
610.707	143.12
610.916	135.12
611.124	162.12
611.332	137.12
611.54	125.12
611.748	151.12
611.955	138.12
612.163	148.12
612.371	132.12
612.579	121.12
612.787	130.12
612.995	127.12
613.203	131.12
613.411	163.12
613.618	155.12
613.826	152.12
614.034	147.12
614.242	143.12
614.449	130.12
614.657	143.12
614.865	145.12
615.072	139.12
615.28	139.12
615.488	129.12
615.695	151.12
615.903	155.12
616.111	130.12
616.318	151.12
616.526	141.12
616.733	147.12
616.941	156.12
617.148	152.12
617.356	154.12
617.563	147.12
617.771	141.12
617.978	137.12
618.185	140.12
618.393	134.12
618.6	142.12
618.807	153.12
619.015	132.12
619.222	144.12
619.429	142.12
619.637	128.12
619.844	137.12
620.051	141.12
620.258	136.12
620.466	140.12
620.673	139.12
620.88	121.12
621.087	135.12
621.294	143.12
621.501	148.12
621.708	132.12
621.915	126.12
622.122	140.12
622.329	142.12
622.536	135.12
622.743	138.12
622.95	138.12
623.157	141.12
623.364	136.12
623.571	133.12
623.778	144.12
623.985	139.12
624.192	131.12
624.399	117.12
624.606	141.12
624.812	127.12
625.019	129.12
625.226	139.12
625.433	151.12
625.639	141.12
625.846	123.12
626.053	121.12
626.259	134.12
626.466	147.12
626.673	135.12
626.879	113.12
627.086	133.12
627.293	141.12
627.499	143.12
627.706	133.12
627.912	139.12
628.119	123.12
628.325	121.12
628.532	120.12
628.738	132.12
628.945	132.12
629.151	132.12
629.357	123.12
629.564	120.12
629.77	136.12
629.976	127.12
630.183	127.12
630.389	130.12
630.595	146.12
630.802	132.12
631.008	136.12
631.214	117.12
631.42	124.12
631.627	116.12
631.833	128.12
632.039	134.12
632.245	121.12
632.451	122.12
632.657	115.12
632.863	111.12
633.069	131.12
633.275	137.12
633.481	127.12
633.688	125.12
633.893	115.12
634.099	132.12
634.305	127.12
634.511	120.12
634.717	117.12
634.923	113.12
635.129	129.12
635.335	115.12
635.541	107.12
635.747	141.12
635.952	119.12
636.158	116.12
636.364	119.12
636.57	108.12
636.775	117.12
636.981	130.12
637.187	106.12
637.392	125.12
637.598	106.12
637.804	107.12
638.009	118.12
638.215	115.12
638.421	121.12
638.626	113.12
638.832	114.12
639.037	103.12
639.243	115.12
639.448	113.12
639.654	139.12
639.859	129.12
640.065	116.12
640.27	114.12
640.475	119.12
640.681	112.12
640.886	125.12
641.091	121.12
641.297	125.12
641.502	121.12
641.707	100.12
641.913	117.12
642.118	110.12
642.323	117.12
642.528	128.12
642.733	114.12
642.939	131.12
643.144	116.12
643.349	129.12
643.554	121.12
643.759	125.12
643.964	105.12
644.169	120.12
644.374	125.12
644.579	122.12
644.784	121.12
644.989	125.12
645.194	105.12
645.399	115.12
645.604	116.12
645.809	119.12
646.014	104.12
646.219	126.12
646.423	117.12
646.628	97.12
646.833	119.12
647.038	107.12
647.243	112.12
647.447	119.12
647.652	114.12
647.857	138.12
648.062	127.12
648.266	128.12
648.471	123.12
648.676	123.12
648.88	121.12
649.085	117.12
649.289	139.12
649.494	119.12
649.698	115.12
649.903	118.12
650.107	122.12
650.312	126.12
650.516	116.12
650.721	124.12
650.925	122.12
651.13	112.12
651.334	107.12
651.539	123.12
651.743	123.12
651.947	117.12
652.152	113.12
652.356	108.12
652.56	101.12
652.764	125.12
652.969	117.12
653.173	101.12
653.377	109.12
653.581	113.12
653.785	112.12
653.99	108.12
654.194	123.12
654.398	100.12
654.602	100.12
654.806	105.12
655.01	107.12
655.214	121.12
655.418	109.12
655.622	103.12
655.826	111.12
656.03	111.12
656.234	106.12
656.438	121.12
656.642	106.12
656.846	109.12
657.049	113.12
657.253	107.12
657.457	90.12
657.661	92.12
657.865	97.12
658.068	89.12
658.272	103.12
658.476	101.12
658.68	81.12
658.883	103.12
659.087	88.12
659.291	96.12
659.494	86.12
659.698	73.12
659.901	87.12
660.105	94.12
660.309	86.12
660.512	86.12
660.716	83.12
660.919	88.12
661.123	95.12
661.326	87.12
661.53	74.12
661.733	72.12
661.936	86.12
662.14	85.12
662.343	81.12
662.546	74.12
662.75	84.12
662.953	84.12
663.156	78.12
663.36	75.12
663.563	81.12
663.766	75.12
663.969	71.12
664.173	74.12
664.376	73.12
664.579	76.12
664.782	82.12
664.985	80.12
665.188	77.12
665.391	76.12
665.594	77.12
665.797	77.12
666	80.12
666.203	82.12
666.406	88.12
666.609	87.12
666.812	77.12
667.015	79.12
667.218	88.12
667.421	75.12
667.624	90.12
667.827	92.12
668.03	89.12
668.232	76.12
668.435	65.12
668.638	64.12
668.841	91.12
669.043	78.12
669.246	81.12
669.449	87.12
669.651	83.12
669.854	95.12
670.057	95.12
670.259	77.12
670.462	85.12
670.665	75.12
670.867	77.12
671.07	90.12
671.272	96.12
671.475	86.12
671.677	69.12
671.88	79.12
672.082	84.12
672.284	75.12
672.487	86.12
672.689	98.12
672.892	72.12
