Data from 0.5MCu(NO3)2.Standard.Lamp.E10.CV._HRD10591_16-05-10-753.txt Node
Date: Mon Jul 22 16:05:10 EDT 2019
User: cochatt
Spectrometer: HR+D1059
Trigger mode: 1
Integration Time (sec): 1.000000E-1
Scans to average: 1
Electric dark correction enabled: true
Nonlinearity correction enabled: false
Boxcar width: 0
XAxis mode: Wavelengths
Number of Pixels in Spectrum: 2048
>>>>>Begin Spectral Data<<<<<
223.165	-7
223.4	-7
223.635	-7
223.869	-16
224.104	-20
224.338	-9
224.573	-10
224.808	-16
225.042	1
225.277	-9
225.511	-22
225.746	4
225.98	12
226.215	20
226.449	16
226.683	10
226.918	22
227.152	24
227.387	26
227.621	27
227.856	42
228.09	49
228.324	48
228.559	63
228.793	54
229.027	74
229.262	62
229.496	79
229.73	72
229.964	77
230.199	82
230.433	91
230.667	79
230.901	97
231.136	93
231.37	84
231.604	92
231.838	75
232.072	101
232.306	85
232.541	87
232.775	86
233.009	90
233.243	87
233.477	86
233.711	89
233.945	77
234.179	92
234.413	88
234.647	79
234.881	80
235.115	95
235.349	91
235.583	90
235.817	73
236.051	69
236.285	91
236.519	79
236.753	86
236.987	69
237.221	83
237.455	99
237.689	83
237.922	96
238.156	88
238.39	96
238.624	71
238.858	80
239.091	91
239.325	105
239.559	88
239.793	65
240.027	93
240.26	86
240.494	86
240.728	105
240.961	92
241.195	95
241.429	83
241.662	95
241.896	69
242.13	88
242.363	88
242.597	83
242.83	90
243.064	98
243.298	83
243.531	94
243.765	89
243.998	107
244.232	105
244.465	83
244.699	96
244.932	98
245.166	98
245.399	98
245.633	97
245.866	110
246.099	86
246.333	94
246.566	86
246.8	102
247.033	88
247.266	91
247.5	97
247.733	88
247.966	106
248.2	96
248.433	95
248.666	100
248.899	87
249.133	99
249.366	112
249.599	113
249.832	97
250.066	96
250.299	84
250.532	100
250.765	96
250.998	95
251.231	99
251.465	95
251.698	104
251.931	96
252.164	93
252.397	94
252.63	97
252.863	101
253.096	113
253.329	111
253.562	121
253.795	103
254.028	110
254.261	118
254.494	107
254.727	107
254.96	102
255.193	104
255.426	113
255.659	104
255.892	115
256.124	108
256.357	110
256.59	112
256.823	100
257.056	108
257.289	95
257.521	100
257.754	114
257.987	110
258.22	107
258.452	114
258.685	105
258.918	107
259.151	116
259.383	124
259.616	104
259.849	112
260.081	114
260.314	127
260.547	104
260.779	120
261.012	112
261.244	120
261.477	100
261.71	114
261.942	121
262.175	117
262.407	111
262.64	116
262.872	116
263.105	132
263.337	122
263.57	116
263.802	121
264.035	118
264.267	119
264.499	111
264.732	128
264.964	122
265.197	126
265.429	125
265.661	111
265.894	116
266.126	122
266.358	104
266.591	121
266.823	126
267.055	121
267.287	126
267.52	102
267.752	127
267.984	122
268.216	128
268.448	131
268.681	124
268.913	109
269.145	115
269.377	120
269.609	124
269.841	115
270.073	131
270.306	128
270.538	122
270.77	118
271.002	117
271.234	129
271.466	124
271.698	138
271.93	125
272.162	120
272.394	145
272.626	128
272.858	133
273.09	134
273.322	122
273.553	123
273.785	137
274.017	148
274.249	127
274.481	130
274.713	120
274.945	112
275.176	124
275.408	131
275.64	127
275.872	131
276.104	154
276.335	126
276.567	127
276.799	126
277.031	131
277.262	127
277.494	139
277.726	147
277.957	121
278.189	142
278.421	150
278.652	118
278.884	134
279.115	134
279.347	140
279.579	132
279.81	138
280.042	148
280.273	148
280.505	147
280.736	136
280.968	131
281.199	132
281.431	134
281.662	135
281.894	121
282.125	136
282.356	157
282.588	155
282.819	147
283.051	130
283.282	133
283.513	145
283.745	136
283.976	130
284.207	133
284.439	149
284.67	149
284.901	126
285.132	156
285.364	144
285.595	146
285.826	141
286.057	134
286.288	154
286.52	144
286.751	143
286.982	156
287.213	150
287.444	149
287.675	148
287.906	134
288.138	154
288.369	170
288.6	160
288.831	150
289.062	159
289.293	170
289.524	155
289.755	141
289.986	167
290.217	169
290.448	154
290.679	149
290.91	155
291.141	163
291.371	148
291.602	148
291.833	149
292.064	157
292.295	157
292.526	153
292.757	153
292.987	149
293.218	152
293.449	156
293.68	148
293.91	154
294.141	148
294.372	152
294.603	136
294.833	148
295.064	152
295.295	150
295.525	160
295.756	169
295.987	167
296.217	167
296.448	155
296.679	163
296.909	159
297.14	163
297.37	151
297.601	151
297.831	156
298.062	170
298.292	162
298.523	167
298.753	167
298.984	180
299.214	164
299.445	169
299.675	165
299.905	170
300.136	164
300.366	160
300.597	166
300.827	174
301.057	163
301.288	170
301.518	169
301.748	176
301.979	178
302.209	175
302.439	176
302.669	174
302.9	159
303.13	168
303.36	159
303.59	163
303.82	162
304.051	162
304.281	168
304.511	169
304.741	169
304.971	168
305.201	157
305.431	170
305.661	168
305.891	163
306.121	153
306.352	171
306.582	179
306.812	168
307.042	170
307.272	181
307.502	164
307.731	168
307.961	183
308.191	178
308.421	171
308.651	160
308.881	168
309.111	160
309.341	160
309.571	181
309.8	155
310.03	156
310.26	163
310.49	158
310.72	166
310.949	165
311.179	168
311.409	180
311.639	160
311.868	184
312.098	170
312.328	159
312.557	164
312.787	172
313.017	163
313.246	178
313.476	165
313.706	161
313.935	171
314.165	161
314.394	181
314.624	163
314.853	180
315.083	190
315.312	164
315.542	178
315.771	171
316.001	176
316.23	171
316.46	175
316.689	171
316.919	188
317.148	163
317.377	162
317.607	174
317.836	160
318.065	173
318.295	187
318.524	184
318.753	164
318.983	166
319.212	160
319.441	172
319.67	169
319.9	172
320.129	174
320.358	187
320.587	168
320.816	171
321.046	177
321.275	186
321.504	172
321.733	175
321.962	180
322.191	186
322.42	192
322.649	175
322.878	179
323.108	179
323.337	184
323.566	163
323.795	166
324.024	170
324.253	175
324.482	174
324.71	188
324.939	180
325.168	169
325.397	180
325.626	174
325.855	186
326.084	186
326.313	194
326.542	195
326.77	191
326.999	190
327.228	177
327.457	182
327.686	185
327.914	172
328.143	190
328.372	186
328.6	181
328.829	169
329.058	180
329.287	178
329.515	199
329.744	188
329.972	182
330.201	182
330.43	190
330.658	179
330.887	195
331.115	193
331.344	208
331.572	190
331.801	194
332.03	199
332.258	196
332.486	214
332.715	198
332.943	222
333.172	226
333.4	228
333.629	233
333.857	216
334.085	216
334.314	222
334.542	225
334.771	209
334.999	225
335.227	219
335.455	212
335.684	218
335.912	209
336.14	196
336.369	209
336.597	211
336.825	213
337.053	222
337.281	200
337.51	216
337.738	214
337.966	200
338.194	180
338.422	184
338.65	187
338.878	190
339.106	200
339.334	194
339.562	180
339.79	182
340.018	188
340.246	159
340.474	184
340.702	190
340.93	179
341.158	201
341.386	187
341.614	185
341.842	190
342.07	180
342.298	202
342.526	175
342.754	189
342.981	181
343.209	186
343.437	191
343.665	208
343.893	207
344.12	213
344.348	195
344.576	194
344.804	188
345.031	181
345.259	184
345.487	179
345.714	190
345.942	204
346.17	184
346.397	164
346.625	182
346.853	197
347.08	192
347.308	194
347.535	182
347.763	195
347.99	185
348.218	197
348.445	193
348.673	191
348.9	191
349.128	173
349.355	192
349.583	196
349.81	188
350.037	179
350.265	169
350.492	172
350.72	169
350.947	178
351.174	171
351.402	180
351.629	180
351.856	147
352.083	168
352.311	178
352.538	180
352.765	184
352.992	185
353.22	185
353.447	171
353.674	172
353.901	194
354.128	174
354.355	179
354.583	184
354.81	191
355.037	176
355.264	160
355.491	174
355.718	176
355.945	179
356.172	164
356.399	185
356.626	200
356.853	180
357.08	187
357.307	172
357.534	193
357.761	166
357.988	171
358.215	181
358.441	184
358.668	204
358.895	172
359.122	167
359.349	191
359.576	174
359.802	169
360.029	188
360.256	190
360.483	176
360.709	179
360.936	171
361.163	178
361.39	169
361.616	193
361.843	178
362.07	178
362.296	178
362.523	166
362.749	186
362.976	177
363.203	179
363.429	184
363.656	161
363.882	171
364.109	159
364.335	164
364.562	195
364.788	196
365.015	181
365.241	163
365.468	178
365.694	184
365.92	179
366.147	152
366.373	180
366.599	166
366.826	164
367.052	183
367.278	178
367.505	178
367.731	178
367.957	158
368.184	178
368.41	182
368.636	164
368.862	180
369.089	165
369.315	182
369.541	174
369.767	180
369.993	192
370.219	195
370.445	174
370.672	195
370.898	194
371.124	206
371.35	194
371.576	194
371.802	192
372.028	184
372.254	172
372.48	184
372.706	182
372.932	182
373.158	178
373.384	186
373.61	175
373.835	205
374.061	187
374.287	185
374.513	181
374.739	179
374.965	184
375.191	194
375.416	207
375.642	217
375.868	211
376.094	182
376.319	206
376.545	191
376.771	186
376.997	182
377.222	177
377.448	186
377.674	186
377.899	205
378.125	174
378.35	185
378.576	175
378.802	180
379.027	184
379.253	195
379.478	177
379.704	197
379.929	193
380.155	186
380.38	184
380.606	186
380.831	187
381.057	203
381.282	185
381.507	189
381.733	196
381.958	183
382.184	189
382.409	210
382.634	182
382.86	201
383.085	195
383.31	211
383.535	197
383.761	192
383.986	200
384.211	202
384.436	209
384.662	220
384.887	212
385.112	225
385.337	219
385.562	208
385.787	226
386.013	227
386.238	229
386.463	218
386.688	218
386.913	208
387.138	220
387.363	204
387.588	209
387.813	210
388.038	203
388.263	218
388.488	214
388.713	194
388.938	210
389.163	225
389.387	204
389.612	193
389.837	204
390.062	179
390.287	191
390.512	210
390.736	200
390.961	185
391.186	224
391.411	225
391.636	233
391.86	221
392.085	240
392.31	227
392.534	229
392.759	199
392.984	222
393.208	227
393.433	223
393.658	215
393.882	218
394.107	218
394.331	233
394.556	236
394.78	214
395.005	221
395.229	221
395.454	222
395.678	240
395.903	226
396.127	223
396.352	226
396.576	211
396.801	195
397.025	217
397.249	220
397.474	215
397.698	228
397.922	215
398.147	222
398.371	231
398.595	246
398.82	243
399.044	236
399.268	282
399.492	313
399.717	336
399.941	362
400.165	308
400.389	287
400.613	270
400.837	251
401.062	226
401.286	235
401.51	254
401.734	238
401.958	233
402.182	247
402.406	254
402.63	251
402.854	248
403.078	258
403.302	266
403.526	281
403.75	272
403.974	290
404.198	284
404.422	281
404.645	276
404.869	269
405.093	283
405.317	262
405.541	262
405.765	248
405.988	263
406.212	257
406.436	265
406.66	274
406.883	278
407.107	290
407.331	301
407.555	310
407.778	307
408.002	308
408.226	294
408.449	286
408.673	262
408.896	272
409.12	280
409.344	259
409.567	272
409.791	294
410.014	281
410.238	267
410.461	268
410.685	257
410.908	252
411.132	257
411.355	253
411.578	252
411.802	253
412.025	264
412.249	247
412.472	259
412.695	267
412.919	242
413.142	272
413.365	260
413.589	251
413.812	248
414.035	231
414.258	229
414.482	249
414.705	253
414.928	245
415.151	236
415.374	242
415.597	242
415.821	230
416.044	227
416.267	244
416.49	255
416.713	243
416.936	238
417.159	225
417.382	240
417.605	258
417.828	232
418.051	241
418.274	242
418.497	257
418.72	266
418.943	237
419.166	252
419.389	271
419.611	262
419.834	258
420.057	254
420.28	250
420.503	256
420.726	242
420.948	222
421.171	242
421.394	232
421.617	228
421.839	244
422.062	254
422.285	228
422.507	254
422.73	248
422.953	271
423.175	256
423.398	254
423.621	259
423.843	270
424.066	264
424.288	256
424.511	264
424.733	247
424.956	250
425.178	219
425.401	244
425.623	256
425.846	247
426.068	231
426.291	235
426.513	240
426.735	235
426.958	238
427.18	231
427.402	228
427.625	239
427.847	224
428.069	221
428.292	222
428.514	220
428.736	226
428.958	226
429.181	223
429.403	213
429.625	214
429.847	214
430.069	205
430.292	216
430.514	195
430.736	212
430.958	215
431.18	215
431.402	205
431.624	226
431.846	212
432.068	211
432.29	229
432.512	226
432.734	215
432.956	219
433.178	218
433.4	234
433.622	222
433.844	229
434.066	231
434.287	246
434.509	217
434.731	236
434.953	255
435.175	251
435.397	238
435.618	225
435.84	226
436.062	217
436.284	227
436.505	226
436.727	220
436.949	233
437.17	228
437.392	204
437.614	219
437.835	218
438.057	187
438.278	217
438.5	194
438.721	210
438.943	221
439.165	219
439.386	196
439.608	224
439.829	226
440.05	217
440.272	220
440.493	228
440.715	211
440.936	211
441.158	242
441.379	230
441.6	254
441.822	252
442.043	239
442.264	257
442.486	229
442.707	228
442.928	248
443.149	234
443.371	223
443.592	220
443.813	227
444.034	252
444.255	258
444.476	262
444.698	267
444.919	281
445.14	407
445.361	324
445.582	268
445.803	230
446.024	231
446.245	229
446.466	227
446.687	213
446.908	225
447.129	238
447.35	212
447.571	223
447.792	219
448.013	211
448.234	201
448.455	217
448.675	217
448.896	204
449.117	198
449.338	194
449.559	195
449.779	197
450	196
450.221	211
450.442	210
450.662	215
450.883	225
451.104	219
451.324	231
451.545	220
451.766	200
451.986	207
452.207	194
452.428	210
452.648	209
452.869	207
453.089	196
453.31	209
453.53	217
453.751	211
453.971	193
454.192	206
454.412	198
454.633	182
454.853	212
455.073	213
455.294	210
455.514	199
455.734	197
455.955	211
456.175	203
456.395	204
456.616	198
456.836	188
457.056	196
457.276	202
457.497	192
457.717	189
457.937	206
458.157	202
458.377	214
458.598	215
458.818	211
459.038	223
459.258	222
459.478	220
459.698	244
459.918	251
460.138	243
460.358	260
460.578	250
460.798	243
461.018	263
461.238	257
461.458	266
461.678	257
461.898	245
462.118	265
462.338	289
462.558	268
462.777	272
462.997	312
463.217	329
463.437	288
463.657	305
463.876	277
464.096	304
464.316	278
464.536	287
464.755	277
464.975	275
465.195	255
465.414	219
465.634	226
465.854	222
466.073	219
466.293	236
466.512	218
466.732	220
466.951	233
467.171	214
467.391	203
467.61	224
467.829	216
468.049	217
468.268	216
468.488	223
468.707	225
468.927	206
469.146	200
469.365	222
469.585	204
469.804	203
470.023	242
470.243	215
470.462	224
470.681	235
470.901	228
471.12	238
471.339	216
471.558	231
471.777	224
471.997	224
472.216	207
472.435	194
472.654	216
472.873	194
473.092	211
473.311	227
473.53	201
473.749	213
473.968	218
474.187	225
474.406	200
474.625	198
474.844	210
475.063	204
475.282	211
475.501	213
475.72	217
475.939	213
476.158	222
476.377	224
476.596	211
476.814	196
477.033	209
477.252	238
477.471	242
477.69	246
477.908	240
478.127	242
478.346	245
478.564	233
478.783	242
479.002	257
479.22	256
479.439	257
479.658	241
479.876	252
480.095	240
480.313	264
480.532	260
480.751	274
480.969	256
481.188	233
481.406	254
481.624	241
481.843	251
482.061	233
482.28	240
482.498	237
482.717	243
482.935	246
483.153	239
483.372	224
483.59	234
483.808	238
484.027	227
484.245	223
484.463	242
484.681	257
484.9	227
485.118	233
485.336	250
485.554	241
485.772	260
485.99	255
486.209	245
486.427	269
486.645	244
486.863	244
487.081	248
487.299	239
487.517	245
487.735	255
487.953	249
488.171	247
488.389	264
488.607	246
488.825	235
489.043	254
489.261	251
489.479	242
489.696	260
489.914	228
490.132	250
490.35	258
490.568	259
490.786	246
491.003	242
491.221	258
491.439	268
491.657	268
491.874	251
492.092	276
492.31	268
492.527	246
492.745	247
492.963	252
493.18	267
493.398	262
493.615	260
493.833	262
494.05	277
494.268	267
494.485	263
494.703	265
494.92	258
495.138	257
495.355	260
495.573	279
495.79	267
496.008	264
496.225	264
496.442	258
496.66	262
496.877	286
497.094	256
497.312	284
497.529	264
497.746	290
497.963	294
498.181	299
498.398	300
498.615	324
498.832	322
499.049	368
499.267	385
499.484	425
499.701	464
499.918	502
500.135	581
500.352	640
500.569	692
500.786	695
501.003	654
501.22	560
501.437	487
501.654	449
501.871	405
502.088	370
502.305	368
502.522	348
502.739	356
502.956	323
503.172	294
503.389	298
503.606	291
503.823	272
504.04	292
504.256	282
504.473	293
504.69	314
504.907	298
505.123	291
505.34	277
505.557	242
505.773	260
505.99	250
506.207	235
506.423	229
506.64	232
506.856	226
507.073	248
507.289	254
507.506	248
507.722	242
507.939	247
508.155	231
508.372	226
508.588	234
508.805	222
509.021	230
509.238	261
509.454	234
509.67	213
509.887	224
510.103	221
510.319	225
510.536	222
510.752	224
510.968	230
511.184	238
511.401	238
511.617	207
511.833	218
512.049	213
512.265	215
512.481	219
512.698	246
512.914	230
513.13	222
513.346	232
513.562	218
513.778	223
513.994	222
514.21	217
514.426	230
514.642	221
514.858	223
515.074	229
515.29	226
515.506	229
515.721	231
515.937	239
516.153	238
516.369	233
516.585	248
516.801	246
517.016	257
517.232	260
517.448	291
517.664	294
517.879	306
518.095	330
518.311	290
518.527	294
518.742	260
518.958	267
519.173	262
519.389	252
519.605	233
519.82	242
520.036	226
520.251	222
520.467	235
520.682	219
520.898	224
521.113	227
521.329	232
521.544	219
521.76	210
521.975	199
522.19	223
522.406	230
522.621	213
522.836	200
523.052	213
523.267	220
523.482	212
523.698	218
523.913	211
524.128	208
524.343	225
524.559	200
524.774	219
524.989	219
525.204	212
525.419	197
525.634	213
525.849	215
526.064	214
526.28	199
526.495	211
526.71	201
526.925	204
527.14	211
527.355	213
527.57	213
527.785	189
527.999	210
528.214	225
528.429	230
528.644	203
528.859	221
529.074	226
529.289	204
529.503	220
529.718	201
529.933	208
530.148	210
530.363	214
530.577	219
530.792	197
531.007	218
531.221	215
531.436	225
531.651	220
531.865	213
532.08	226
532.295	222
532.509	218
532.724	227
532.938	226
533.153	200
533.367	217
533.582	226
533.796	208
534.011	223
534.225	229
534.44	215
534.654	196
534.868	198
535.083	217
535.297	203
535.511	202
535.726	224
535.94	191
536.154	213
536.369	215
536.583	217
536.797	214
537.011	217
537.225	205
537.44	179
537.654	200
537.868	193
538.082	202
538.296	207
538.51	226
538.724	201
538.938	209
539.153	217
539.367	201
539.581	192
539.795	185
540.009	203
540.222	202
540.436	199
540.65	186
540.864	205
541.078	217
541.292	213
541.506	207
541.72	224
541.934	204
542.147	226
542.361	206
542.575	201
542.789	210
543.002	209
543.216	203
543.43	185
543.644	194
543.857	198
544.071	204
544.285	205
544.498	210
544.712	195
544.925	221
545.139	204
545.352	202
545.566	195
545.779	204
545.993	210
546.206	202
546.42	203
546.633	210
546.847	200
547.06	200
547.274	202
547.487	218
547.7	223
547.914	210
548.127	206
548.34	208
548.554	194
548.767	203
548.98	223
549.193	204
549.407	204
549.62	209
549.833	222
550.046	207
550.259	208
550.473	212
550.686	209
550.899	206
551.112	224
551.325	193
551.538	202
551.751	200
551.964	210
552.177	203
552.39	206
552.603	233
552.816	220
553.029	232
553.242	220
553.455	218
553.667	218
553.88	235
554.093	232
554.306	209
554.519	222
554.732	209
554.944	198
555.157	199
555.37	198
555.583	199
555.795	184
556.008	194
556.221	190
556.433	193
556.646	194
556.859	195
557.071	201
557.284	182
557.496	185
557.709	195
557.921	182
558.134	197
558.346	182
558.559	200
558.771	200
558.984	187
559.196	183
559.409	179
559.621	189
559.833	180
560.046	185
560.258	183
560.47	183
560.683	183
560.895	175
561.107	181
561.32	171
561.532	182
561.744	169
561.956	203
562.168	181
562.381	164
562.593	182
562.805	184
563.017	180
563.229	192
563.441	192
563.653	179
563.865	182
564.077	203
564.289	187
564.501	193
564.713	191
564.925	191
565.137	196
565.349	210
565.561	207
565.773	212
565.985	226
566.197	219
566.408	224
566.62	262
566.832	258
567.044	259
567.255	264
567.467	271
567.679	299
567.891	315
568.102	306
568.314	309
568.526	251
568.737	262
568.949	253
569.161	230
569.372	201
569.584	194
569.795	192
570.007	197
570.218	162
570.43	190
570.641	175
570.853	206
571.064	193
571.276	194
571.487	184
571.698	187
571.91	188
572.121	172
572.333	163
572.544	171
572.755	187
572.966	174
573.178	186
573.389	174
573.6	179
573.811	184
574.023	171
574.234	157
574.445	157
574.656	177
574.867	162
575.078	183
575.289	153
575.501	154
575.712	166
575.923	174
576.134	162
576.345	156
576.556	162
576.767	159
576.978	163
577.188	169
577.399	172
577.61	166
577.821	174
578.032	143
578.243	158
578.454	161
578.665	155
578.875	184
579.086	168
579.297	155
579.508	162
579.718	164
579.929	149
580.14	145
580.35	142
580.561	152
580.772	166
580.982	168
581.193	162
581.403	153
581.614	153
581.825	160
582.035	162
582.246	147
582.456	139
582.667	151
582.877	161
583.087	158
583.298	138
583.508	150
583.719	161
583.929	164
584.139	155
584.35	141
584.56	147
584.77	155
584.981	149
585.191	143
585.401	150
585.611	157
585.821	142
586.032	155
586.242	149
586.452	152
586.662	144
586.872	145
587.082	160
587.292	154
587.502	151
587.713	150
587.923	137
588.133	148
588.343	162
588.553	149
588.762	164
588.972	162
589.182	156
589.392	151
589.602	144
589.812	155
590.022	161
590.232	143
590.441	133
590.651	160
590.861	149
591.071	157
591.281	157
591.49	171
591.7	163
591.91	161
592.119	166
592.329	154
592.539	160
592.748	160
592.958	179
593.167	159
593.377	185
593.587	180
593.796	189
594.006	163
594.215	173
594.424	194
594.634	181
594.843	174
595.053	184
595.262	162
595.472	160
595.681	158
595.89	181
596.1	161
596.309	158
596.518	148
596.727	151
596.937	144
597.146	147
597.355	148
597.564	166
597.774	139
597.983	141
598.192	142
598.401	129
598.61	134
598.819	150
599.028	151
599.237	136
599.446	128
599.655	144
599.864	138
600.073	122
600.282	123
600.491	143
600.7	138
600.909	134
601.118	145
601.327	152
601.536	144
601.745	146
601.953	151
602.162	134
602.371	144
602.58	130
602.789	146
602.997	152
603.206	142
603.415	128
603.623	136
603.832	143
604.041	137
604.249	146
604.458	112
604.666	144
604.875	126
605.084	139
605.292	120
605.501	136
605.709	134
605.918	142
606.126	140
606.334	128
606.543	127
606.751	130
606.96	142
607.168	140
607.376	128
607.585	134
607.793	138
608.001	133
608.21	124
608.418	134
608.626	127
608.834	139
609.043	134
609.251	132
609.459	123
609.667	133
609.875	128
610.083	122
610.291	135
610.499	131
610.707	136
610.916	138
611.124	126
611.332	141
611.54	136
611.748	123
611.955	133
612.163	146
612.371	142
612.579	130
612.787	143
612.995	124
613.203	130
613.411	134
613.618	130
613.826	140
614.034	137
614.242	146
614.449	143
614.657	130
614.865	116
615.072	133
615.28	127
615.488	141
615.695	137
615.903	130
616.111	138
616.318	125
616.526	129
616.733	127
616.941	128
617.148	132
617.356	132
617.563	122
617.771	130
617.978	116
618.185	152
618.393	127
618.6	132
618.807	128
619.015	130
619.222	136
619.429	119
619.637	136
619.844	139
620.051	128
620.258	122
620.466	130
620.673	130
620.88	115
621.087	132
621.294	113
621.501	136
621.708	122
621.915	125
622.122	121
622.329	115
622.536	134
622.743	122
622.95	135
623.157	127
623.364	143
623.571	128
623.778	126
623.985	131
624.192	122
624.399	132
624.606	114
624.812	126
625.019	111
625.226	121
625.433	107
625.639	123
625.846	126
626.053	106
626.259	135
626.466	115
626.673	123
626.879	138
627.086	127
627.293	115
627.499	121
627.706	112
627.912	128
628.119	117
628.325	113
628.532	117
628.738	126
628.945	130
629.151	128
629.357	119
629.564	115
629.77	120
629.976	123
630.183	106
630.389	116
630.595	120
630.802	105
631.008	128
631.214	110
631.42	122
631.627	122
631.833	102
632.039	115
632.245	123
632.451	96
632.657	120
632.863	114
633.069	125
633.275	114
633.481	113
633.688	91
633.893	118
634.099	122
634.305	110
634.511	106
634.717	123
634.923	114
635.129	99
635.335	122
635.541	115
635.747	114
635.952	110
636.158	126
636.364	107
636.57	117
636.775	107
636.981	104
637.187	96
637.392	114
637.598	102
637.804	115
638.009	111
638.215	116
638.421	107
638.626	123
638.832	118
639.037	114
639.243	108
639.448	110
639.654	106
639.859	98
640.065	101
640.27	123
640.475	113
640.681	121
640.886	99
641.091	108
641.297	121
641.502	114
641.707	115
641.913	115
642.118	114
642.323	120
642.528	113
642.733	118
642.939	116
643.144	106
643.349	118
643.554	112
643.759	129
643.964	116
644.169	108
644.374	102
644.579	104
644.784	107
644.989	114
645.194	101
645.399	118
645.604	113
645.809	107
646.014	116
646.219	103
646.423	104
646.628	104
646.833	98
647.038	108
647.243	132
647.447	108
647.652	110
647.857	116
648.062	102
648.266	106
648.471	108
648.676	118
648.88	111
649.085	116
649.289	112
649.494	115
649.698	114
649.903	112
650.107	115
650.312	105
650.516	104
650.721	120
650.925	109
651.13	108
651.334	105
651.539	98
651.743	95
651.947	82
652.152	106
652.356	97
652.56	105
652.764	100
652.969	102
653.173	99
653.377	98
653.581	98
653.785	90
653.99	107
654.194	110
654.398	93
654.602	104
654.806	100
655.01	97
655.214	90
655.418	106
655.622	85
655.826	103
656.03	108
656.234	111
656.438	89
656.642	106
656.846	104
657.049	107
657.253	107
657.457	90
657.661	91
657.865	86
658.068	83
658.272	83
658.476	94
658.68	93
658.883	91
659.087	89
659.291	92
659.494	83
659.698	94
659.901	86
660.105	96
660.309	69
660.512	88
660.716	100
660.919	86
661.123	88
661.326	87
661.53	93
661.733	94
661.936	81
662.14	77
662.343	77
662.546	86
662.75	94
662.953	89
663.156	68
663.36	75
663.563	88
663.766	91
663.969	88
664.173	85
664.376	82
664.579	84
664.782	84
664.985	71
665.188	78
665.391	86
665.594	72
665.797	69
666	76
666.203	75
666.406	82
666.609	67
666.812	80
667.015	76
667.218	75
667.421	82
667.624	73
667.827	74
668.03	68
668.232	81
668.435	81
668.638	83
668.841	85
669.043	81
669.246	66
669.449	73
669.651	82
669.854	68
670.057	76
670.259	80
670.462	69
670.665	78
670.867	88
671.07	75
671.272	89
671.475	80
671.677	81
671.88	76
672.082	76
672.284	81
672.487	84
672.689	76
672.892	74
