Data from 0.5MCu(NO3)2.Standard.Lamp.E10.CV._HRD10591_16-06-49-754.txt Node
Date: Mon Jul 22 16:06:49 EDT 2019
User: cochatt
Spectrometer: HR+D1059
Trigger mode: 1
Integration Time (sec): 1.000000E-1
Scans to average: 1
Electric dark correction enabled: true
Nonlinearity correction enabled: false
Boxcar width: 0
XAxis mode: Wavelengths
Number of Pixels in Spectrum: 2048
>>>>>Begin Spectral Data<<<<<
223.165	-24.19
223.4	-24.19
223.635	-24.19
223.869	-19.19
224.104	-14.19
224.338	-16.19
224.573	-8.19
224.808	-12.19
225.042	-14.19
225.277	-7.19
225.511	13.81
225.746	5.81
225.98	-8.19
226.215	-1.19
226.449	13.81
226.683	21.81
226.918	32.81
227.152	36.81
227.387	34.81
227.621	44.81
227.856	48.81
228.09	60.81
228.324	42.81
228.559	58.81
228.793	56.81
229.027	69.81
229.262	62.81
229.496	65.81
229.73	74.81
229.964	70.81
230.199	84.81
230.433	88.81
230.667	86.81
230.901	88.81
231.136	90.81
231.37	99.81
231.604	94.81
231.838	101.81
232.072	83.81
232.306	85.81
232.541	102.81
232.775	91.81
233.009	116.81
233.243	97.81
233.477	94.81
233.711	97.81
233.945	106.81
234.179	76.81
234.413	103.81
234.647	88.81
234.881	81.81
235.115	95.81
235.349	97.81
235.583	76.81
235.817	101.81
236.051	83.81
236.285	88.81
236.519	90.81
236.753	91.81
236.987	79.81
237.221	92.81
237.455	99.81
237.689	93.81
237.922	93.81
238.156	97.81
238.39	97.81
238.624	96.81
238.858	96.81
239.091	85.81
239.325	98.81
239.559	101.81
239.793	99.81
240.027	89.81
240.26	96.81
240.494	104.81
240.728	82.81
240.961	88.81
241.195	99.81
241.429	81.81
241.662	84.81
241.896	112.81
242.13	86.81
242.363	85.81
242.597	91.81
242.83	97.81
243.064	89.81
243.298	88.81
243.531	84.81
243.765	103.81
243.998	89.81
244.232	82.81
244.465	98.81
244.699	112.81
244.932	86.81
245.166	103.81
245.399	99.81
245.633	102.81
245.866	88.81
246.099	111.81
246.333	98.81
246.566	104.81
246.8	114.81
247.033	98.81
247.266	98.81
247.5	113.81
247.733	103.81
247.966	100.81
248.2	96.81
248.433	94.81
248.666	99.81
248.899	100.81
249.133	88.81
249.366	114.81
249.599	97.81
249.832	103.81
250.066	105.81
250.299	104.81
250.532	106.81
250.765	119.81
250.998	114.81
251.231	115.81
251.465	96.81
251.698	108.81
251.931	110.81
252.164	113.81
252.397	104.81
252.63	104.81
252.863	114.81
253.096	107.81
253.329	120.81
253.562	112.81
253.795	105.81
254.028	112.81
254.261	112.81
254.494	109.81
254.727	109.81
254.96	90.81
255.193	106.81
255.426	113.81
255.659	111.81
255.892	121.81
256.124	113.81
256.357	108.81
256.59	122.81
256.823	108.81
257.056	122.81
257.289	103.81
257.521	106.81
257.754	108.81
257.987	107.81
258.22	114.81
258.452	120.81
258.685	115.81
258.918	130.81
259.151	124.81
259.383	121.81
259.616	106.81
259.849	108.81
260.081	117.81
260.314	129.81
260.547	116.81
260.779	120.81
261.012	102.81
261.244	111.81
261.477	118.81
261.71	136.81
261.942	118.81
262.175	113.81
262.407	120.81
262.64	118.81
262.872	121.81
263.105	108.81
263.337	121.81
263.57	120.81
263.802	112.81
264.035	133.81
264.267	121.81
264.499	132.81
264.732	130.81
264.964	139.81
265.197	134.81
265.429	129.81
265.661	128.81
265.894	116.81
266.126	112.81
266.358	143.81
266.591	142.81
266.823	126.81
267.055	132.81
267.287	137.81
267.52	137.81
267.752	133.81
267.984	128.81
268.216	129.81
268.448	126.81
268.681	120.81
268.913	138.81
269.145	140.81
269.377	126.81
269.609	132.81
269.841	120.81
270.073	132.81
270.306	131.81
270.538	121.81
270.77	114.81
271.002	118.81
271.234	130.81
271.466	137.81
271.698	150.81
271.93	121.81
272.162	126.81
272.394	137.81
272.626	131.81
272.858	144.81
273.09	136.81
273.322	132.81
273.553	134.81
273.785	147.81
274.017	139.81
274.249	142.81
274.481	132.81
274.713	132.81
274.945	120.81
275.176	137.81
275.408	151.81
275.64	125.81
275.872	137.81
276.104	143.81
276.335	132.81
276.567	145.81
276.799	137.81
277.031	158.81
277.262	148.81
277.494	150.81
277.726	133.81
277.957	135.81
278.189	152.81
278.421	139.81
278.652	131.81
278.884	137.81
279.115	147.81
279.347	140.81
279.579	160.81
279.81	146.81
280.042	153.81
280.273	139.81
280.505	157.81
280.736	150.81
280.968	135.81
281.199	165.81
281.431	149.81
281.662	164.81
281.894	137.81
282.125	138.81
282.356	131.81
282.588	154.81
282.819	153.81
283.051	145.81
283.282	150.81
283.513	135.81
283.745	156.81
283.976	142.81
284.207	139.81
284.439	149.81
284.67	158.81
284.901	149.81
285.132	159.81
285.364	154.81
285.595	148.81
285.826	171.81
286.057	150.81
286.288	155.81
286.52	156.81
286.751	159.81
286.982	158.81
287.213	164.81
287.444	174.81
287.675	150.81
287.906	150.81
288.138	167.81
288.369	155.81
288.6	167.81
288.831	168.81
289.062	166.81
289.293	168.81
289.524	162.81
289.755	165.81
289.986	150.81
290.217	162.81
290.448	157.81
290.679	163.81
290.91	179.81
291.141	161.81
291.371	171.81
291.602	159.81
291.833	151.81
292.064	166.81
292.295	162.81
292.526	163.81
292.757	166.81
292.987	155.81
293.218	176.81
293.449	160.81
293.68	163.81
293.91	162.81
294.141	162.81
294.372	161.81
294.603	173.81
294.833	166.81
295.064	170.81
295.295	180.81
295.525	176.81
295.756	172.81
295.987	180.81
296.217	167.81
296.448	168.81
296.679	170.81
296.909	192.81
297.14	187.81
297.37	170.81
297.601	175.81
297.831	181.81
298.062	165.81
298.292	167.81
298.523	168.81
298.753	189.81
298.984	186.81
299.214	165.81
299.445	170.81
299.675	174.81
299.905	159.81
300.136	176.81
300.366	188.81
300.597	165.81
300.827	166.81
301.057	155.81
301.288	177.81
301.518	192.81
301.748	188.81
301.979	181.81
302.209	171.81
302.439	178.81
302.669	180.81
302.9	156.81
303.13	186.81
303.36	176.81
303.59	179.81
303.82	196.81
304.051	172.81
304.281	170.81
304.511	177.81
304.741	176.81
304.971	173.81
305.201	172.81
305.431	161.81
305.661	178.81
305.891	171.81
306.121	186.81
306.352	189.81
306.582	162.81
306.812	194.81
307.042	161.81
307.272	177.81
307.502	180.81
307.731	200.81
307.961	178.81
308.191	164.81
308.421	187.81
308.651	186.81
308.881	187.81
309.111	167.81
309.341	166.81
309.571	174.81
309.8	174.81
310.03	181.81
310.26	201.81
310.49	166.81
310.72	169.81
310.949	172.81
311.179	163.81
311.409	180.81
311.639	192.81
311.868	170.81
312.098	185.81
312.328	186.81
312.557	178.81
312.787	188.81
313.017	193.81
313.246	174.81
313.476	181.81
313.706	192.81
313.935	184.81
314.165	197.81
314.394	189.81
314.624	197.81
314.853	177.81
315.083	171.81
315.312	167.81
315.542	179.81
315.771	170.81
316.001	168.81
316.23	171.81
316.46	190.81
316.689	174.81
316.919	168.81
317.148	169.81
317.377	179.81
317.607	183.81
317.836	188.81
318.065	173.81
318.295	180.81
318.524	190.81
318.753	182.81
318.983	181.81
319.212	184.81
319.441	193.81
319.67	187.81
319.9	171.81
320.129	178.81
320.358	190.81
320.587	176.81
320.816	184.81
321.046	186.81
321.275	186.81
321.504	190.81
321.733	193.81
321.962	190.81
322.191	176.81
322.42	177.81
322.649	192.81
322.878	191.81
323.108	179.81
323.337	183.81
323.566	179.81
323.795	178.81
324.024	192.81
324.253	196.81
324.482	196.81
324.71	183.81
324.939	189.81
325.168	187.81
325.397	174.81
325.626	195.81
325.855	185.81
326.084	194.81
326.313	206.81
326.542	195.81
326.77	195.81
326.999	209.81
327.228	178.81
327.457	187.81
327.686	189.81
327.914	209.81
328.143	209.81
328.372	209.81
328.6	200.81
328.829	205.81
329.058	196.81
329.287	205.81
329.515	205.81
329.744	201.81
329.972	210.81
330.201	211.81
330.43	182.81
330.658	212.81
330.887	186.81
331.115	200.81
331.344	205.81
331.572	210.81
331.801	207.81
332.03	194.81
332.258	226.81
332.486	208.81
332.715	227.81
332.943	245.81
333.172	246.81
333.4	231.81
333.629	242.81
333.857	224.81
334.085	233.81
334.314	242.81
334.542	214.81
334.771	235.81
334.999	231.81
335.227	226.81
335.455	228.81
335.684	225.81
335.912	232.81
336.14	206.81
336.369	232.81
336.597	226.81
336.825	238.81
337.053	221.81
337.281	224.81
337.51	219.81
337.738	219.81
337.966	206.81
338.194	188.81
338.422	214.81
338.65	200.81
338.878	195.81
339.106	194.81
339.334	207.81
339.562	184.81
339.79	193.81
340.018	201.81
340.246	199.81
340.474	195.81
340.702	195.81
340.93	206.81
341.158	196.81
341.386	191.81
341.614	201.81
341.842	195.81
342.07	204.81
342.298	200.81
342.526	201.81
342.754	203.81
342.981	196.81
343.209	212.81
343.437	204.81
343.665	208.81
343.893	233.81
344.12	237.81
344.348	222.81
344.576	214.81
344.804	207.81
345.031	204.81
345.259	204.81
345.487	221.81
345.714	197.81
345.942	187.81
346.17	201.81
346.397	198.81
346.625	184.81
346.853	198.81
347.08	213.81
347.308	205.81
347.535	211.81
347.763	195.81
347.99	186.81
348.218	189.81
348.445	173.81
348.673	213.81
348.9	188.81
349.128	200.81
349.355	196.81
349.583	171.81
349.81	210.81
350.037	188.81
350.265	194.81
350.492	202.81
350.72	191.81
350.947	184.81
351.174	191.81
351.402	196.81
351.629	194.81
351.856	209.81
352.083	182.81
352.311	206.81
352.538	180.81
352.765	208.81
352.992	191.81
353.22	195.81
353.447	196.81
353.674	187.81
353.901	197.81
354.128	171.81
354.355	182.81
354.583	204.81
354.81	193.81
355.037	188.81
355.264	189.81
355.491	197.81
355.718	204.81
355.945	196.81
356.172	197.81
356.399	193.81
356.626	190.81
356.853	193.81
357.08	176.81
357.307	201.81
357.534	173.81
357.761	188.81
357.988	177.81
358.215	188.81
358.441	192.81
358.668	195.81
358.895	185.81
359.122	193.81
359.349	182.81
359.576	197.81
359.802	180.81
360.029	192.81
360.256	177.81
360.483	207.81
360.709	193.81
360.936	189.81
361.163	202.81
361.39	208.81
361.616	206.81
361.843	184.81
362.07	175.81
362.296	191.81
362.523	186.81
362.749	189.81
362.976	197.81
363.203	200.81
363.429	189.81
363.656	174.81
363.882	181.81
364.109	193.81
364.335	191.81
364.562	177.81
364.788	190.81
365.015	194.81
365.241	193.81
365.468	193.81
365.694	188.81
365.92	185.81
366.147	192.81
366.373	187.81
366.599	178.81
366.826	192.81
367.052	191.81
367.278	183.81
367.505	195.81
367.731	193.81
367.957	182.81
368.184	181.81
368.41	194.81
368.636	189.81
368.862	201.81
369.089	181.81
369.315	183.81
369.541	194.81
369.767	194.81
369.993	214.81
370.219	201.81
370.445	198.81
370.672	208.81
370.898	202.81
371.124	193.81
371.35	184.81
371.576	193.81
371.802	169.81
372.028	206.81
372.254	208.81
372.48	198.81
372.706	201.81
372.932	212.81
373.158	204.81
373.384	185.81
373.61	206.81
373.835	192.81
374.061	206.81
374.287	200.81
374.513	212.81
374.739	202.81
374.965	202.81
375.191	225.81
375.416	218.81
375.642	208.81
375.868	202.81
376.094	208.81
376.319	207.81
376.545	204.81
376.771	198.81
376.997	184.81
377.222	187.81
377.448	217.81
377.674	212.81
377.899	202.81
378.125	201.81
378.35	212.81
378.576	190.81
378.802	203.81
379.027	187.81
379.253	197.81
379.478	209.81
379.704	195.81
379.929	191.81
380.155	183.81
380.38	198.81
380.606	194.81
380.831	202.81
381.057	208.81
381.282	197.81
381.507	213.81
381.733	211.81
381.958	193.81
382.184	212.81
382.409	193.81
382.634	211.81
382.86	230.81
383.085	216.81
383.31	212.81
383.535	188.81
383.761	210.81
383.986	230.81
384.211	214.81
384.436	227.81
384.662	211.81
384.887	215.81
385.112	208.81
385.337	226.81
385.562	238.81
385.787	212.81
386.013	240.81
386.238	205.81
386.463	213.81
386.688	210.81
386.913	213.81
387.138	222.81
387.363	219.81
387.588	206.81
387.813	219.81
388.038	213.81
388.263	218.81
388.488	207.81
388.713	218.81
388.938	215.81
389.163	205.81
389.387	230.81
389.612	216.81
389.837	216.81
390.062	224.81
390.287	220.81
390.512	216.81
390.736	226.81
390.961	220.81
391.186	243.81
391.411	229.81
391.636	248.81
391.86	248.81
392.085	252.81
392.31	236.81
392.534	232.81
392.759	249.81
392.984	235.81
393.208	226.81
393.433	247.81
393.658	232.81
393.882	232.81
394.107	236.81
394.331	238.81
394.556	229.81
394.78	227.81
395.005	212.81
395.229	214.81
395.454	239.81
395.678	248.81
395.903	232.81
396.127	241.81
396.352	233.81
396.576	206.81
396.801	217.81
397.025	221.81
397.249	251.81
397.474	237.81
397.698	234.81
397.922	244.81
398.147	222.81
398.371	243.81
398.595	270.81
398.82	245.81
399.044	280.81
399.268	284.81
399.492	320.81
399.717	359.81
399.941	386.81
400.165	326.81
400.389	288.81
400.613	285.81
400.837	283.81
401.062	277.81
401.286	273.81
401.51	252.81
401.734	243.81
401.958	259.81
402.182	241.81
402.406	258.81
402.63	269.81
402.854	282.81
403.078	286.81
403.302	282.81
403.526	286.81
403.75	298.81
403.974	312.81
404.198	294.81
404.422	288.81
404.645	287.81
404.869	294.81
405.093	270.81
405.317	282.81
405.541	279.81
405.765	253.81
405.988	283.81
406.212	280.81
406.436	271.81
406.66	279.81
406.883	275.81
407.107	300.81
407.331	309.81
407.555	321.81
407.778	331.81
408.002	316.81
408.226	316.81
408.449	266.81
408.673	282.81
408.896	284.81
409.12	274.81
409.344	289.81
409.567	291.81
409.791	282.81
410.014	288.81
410.238	310.81
410.461	300.81
410.685	290.81
410.908	285.81
411.132	290.81
411.355	267.81
411.578	268.81
411.802	253.81
412.025	278.81
412.249	281.81
412.472	276.81
412.695	255.81
412.919	274.81
413.142	291.81
413.365	268.81
413.589	268.81
413.812	245.81
414.035	245.81
414.258	263.81
414.482	252.81
414.705	263.81
414.928	260.81
415.151	259.81
415.374	254.81
415.597	260.81
415.821	247.81
416.044	263.81
416.267	258.81
416.49	255.81
416.713	266.81
416.936	276.81
417.159	254.81
417.382	247.81
417.605	241.81
417.828	243.81
418.051	264.81
418.274	256.81
418.497	236.81
418.72	257.81
418.943	281.81
419.166	281.81
419.389	277.81
419.611	286.81
419.834	265.81
420.057	286.81
420.28	267.81
420.503	257.81
420.726	250.81
420.948	264.81
421.171	262.81
421.394	241.81
421.617	270.81
421.839	267.81
422.062	262.81
422.285	239.81
422.507	271.81
422.73	260.81
422.953	283.81
423.175	255.81
423.398	261.81
423.621	258.81
423.843	270.81
424.066	264.81
424.288	276.81
424.511	284.81
424.733	268.81
424.956	261.81
425.178	264.81
425.401	252.81
425.623	250.81
425.846	252.81
426.068	246.81
426.291	234.81
426.513	256.81
426.735	242.81
426.958	250.81
427.18	233.81
427.402	235.81
427.625	244.81
427.847	241.81
428.069	239.81
428.292	257.81
428.514	244.81
428.736	242.81
428.958	241.81
429.181	228.81
429.403	237.81
429.625	229.81
429.847	232.81
430.069	232.81
430.292	215.81
430.514	219.81
430.736	227.81
430.958	223.81
431.18	224.81
431.402	227.81
431.624	216.81
431.846	224.81
432.068	241.81
432.29	225.81
432.512	224.81
432.734	203.81
432.956	227.81
433.178	227.81
433.4	258.81
433.622	231.81
433.844	234.81
434.066	243.81
434.287	239.81
434.509	238.81
434.731	253.81
434.953	253.81
435.175	249.81
435.397	245.81
435.618	233.81
435.84	225.81
436.062	222.81
436.284	232.81
436.505	219.81
436.727	210.81
436.949	243.81
437.17	238.81
437.392	234.81
437.614	211.81
437.835	230.81
438.057	242.81
438.278	249.81
438.5	242.81
438.721	236.81
438.943	229.81
439.165	230.81
439.386	222.81
439.608	234.81
439.829	245.81
440.05	246.81
440.272	229.81
440.493	248.81
440.715	241.81
440.936	253.81
441.158	256.81
441.379	248.81
441.6	260.81
441.822	261.81
442.043	262.81
442.264	263.81
442.486	257.81
442.707	258.81
442.928	247.81
443.149	254.81
443.371	235.81
443.592	246.81
443.813	229.81
444.034	255.81
444.255	261.81
444.476	268.81
444.698	274.81
444.919	297.81
445.14	368.81
445.361	322.81
445.582	260.81
445.803	245.81
446.024	234.81
446.245	246.81
446.466	229.81
446.687	230.81
446.908	241.81
447.129	240.81
447.35	237.81
447.571	234.81
447.792	219.81
448.013	243.81
448.234	211.81
448.455	229.81
448.675	214.81
448.896	215.81
449.117	219.81
449.338	212.81
449.559	221.81
449.779	211.81
450	214.81
450.221	233.81
450.442	232.81
450.662	220.81
450.883	231.81
451.104	233.81
451.324	223.81
451.545	233.81
451.766	246.81
451.986	206.81
452.207	231.81
452.428	221.81
452.648	215.81
452.869	234.81
453.089	220.81
453.31	218.81
453.53	199.81
453.751	221.81
453.971	202.81
454.192	208.81
454.412	196.81
454.633	190.81
454.853	212.81
455.073	221.81
455.294	210.81
455.514	197.81
455.734	206.81
455.955	196.81
456.175	199.81
456.395	214.81
456.616	209.81
456.836	202.81
457.056	219.81
457.276	210.81
457.497	225.81
457.717	209.81
457.937	212.81
458.157	201.81
458.377	219.81
458.598	214.81
458.818	212.81
459.038	229.81
459.258	239.81
459.478	228.81
459.698	219.81
459.918	241.81
460.138	265.81
460.358	264.81
460.578	271.81
460.798	293.81
461.018	288.81
461.238	276.81
461.458	266.81
461.678	260.81
461.898	264.81
462.118	278.81
462.338	286.81
462.558	297.81
462.777	296.81
462.997	321.81
463.217	353.81
463.437	360.81
463.657	315.81
463.876	332.81
464.096	317.81
464.316	315.81
464.536	301.81
464.755	303.81
464.975	300.81
465.195	285.81
465.414	258.81
465.634	241.81
465.854	233.81
466.073	256.81
466.293	243.81
466.512	236.81
466.732	240.81
466.951	241.81
467.171	228.81
467.391	250.81
467.61	213.81
467.829	242.81
468.049	221.81
468.268	213.81
468.488	211.81
468.707	210.81
468.927	215.81
469.146	215.81
469.365	213.81
469.585	230.81
469.804	230.81
470.023	236.81
470.243	237.81
470.462	240.81
470.681	247.81
470.901	248.81
471.12	224.81
471.339	242.81
471.558	228.81
471.777	226.81
471.997	217.81
472.216	226.81
472.435	254.81
472.654	210.81
472.873	216.81
473.092	216.81
473.311	227.81
473.53	205.81
473.749	222.81
473.968	213.81
474.187	220.81
474.406	209.81
474.625	216.81
474.844	216.81
475.063	228.81
475.282	224.81
475.501	225.81
475.72	213.81
475.939	221.81
476.158	232.81
476.377	231.81
476.596	220.81
476.814	219.81
477.033	230.81
477.252	222.81
477.471	254.81
477.69	256.81
477.908	225.81
478.127	264.81
478.346	260.81
478.564	257.81
478.783	270.81
479.002	258.81
479.22	262.81
479.439	269.81
479.658	267.81
479.876	260.81
480.095	264.81
480.313	265.81
480.532	297.81
480.751	272.81
480.969	276.81
481.188	255.81
481.406	269.81
481.624	258.81
481.843	233.81
482.061	225.81
482.28	257.81
482.498	247.81
482.717	233.81
482.935	246.81
483.153	243.81
483.372	250.81
483.59	233.81
483.808	238.81
484.027	253.81
484.245	242.81
484.463	266.81
484.681	255.81
484.9	257.81
485.118	270.81
485.336	261.81
485.554	264.81
485.772	268.81
485.99	269.81
486.209	245.81
486.427	253.81
486.645	274.81
486.863	259.81
487.081	256.81
487.299	261.81
487.517	249.81
487.735	249.81
487.953	254.81
488.171	249.81
488.389	261.81
488.607	261.81
488.825	244.81
489.043	252.81
489.261	252.81
489.479	249.81
489.696	244.81
489.914	273.81
490.132	259.81
490.35	258.81
490.568	269.81
490.786	263.81
491.003	268.81
491.221	257.81
491.439	270.81
491.657	276.81
491.874	269.81
492.092	258.81
492.31	261.81
492.527	265.81
492.745	278.81
492.963	285.81
493.18	269.81
493.398	256.81
493.615	277.81
493.833	243.81
494.05	275.81
494.268	286.81
494.485	286.81
494.703	270.81
494.92	258.81
495.138	283.81
495.355	269.81
495.573	270.81
495.79	279.81
496.008	264.81
496.225	270.81
496.442	260.81
496.66	282.81
496.877	286.81
497.094	291.81
497.312	296.81
497.529	317.81
497.746	318.81
497.963	292.81
498.181	288.81
498.398	320.81
498.615	345.81
498.832	356.81
499.049	392.81
499.267	412.81
499.484	432.81
499.701	493.81
499.918	522.81
500.135	598.81
500.352	677.81
500.569	728.81
500.786	708.81
501.003	661.81
501.22	601.81
501.437	546.81
501.654	463.81
501.871	420.81
502.088	389.81
502.305	391.81
502.522	379.81
502.739	361.81
502.956	340.81
503.172	322.81
503.389	309.81
503.606	290.81
503.823	290.81
504.04	297.81
504.256	306.81
504.473	303.81
504.69	325.81
504.907	312.81
505.123	304.81
505.34	281.81
505.557	250.81
505.773	264.81
505.99	251.81
506.207	261.81
506.423	243.81
506.64	247.81
506.856	251.81
507.073	254.81
507.289	241.81
507.506	260.81
507.722	247.81
507.939	248.81
508.155	230.81
508.372	239.81
508.588	237.81
508.805	225.81
509.021	248.81
509.238	254.81
509.454	236.81
509.67	226.81
509.887	245.81
510.103	234.81
510.319	224.81
510.536	227.81
510.752	229.81
510.968	246.81
511.184	232.81
511.401	245.81
511.617	231.81
511.833	225.81
512.049	228.81
512.265	241.81
512.481	246.81
512.698	230.81
512.914	242.81
513.13	230.81
513.346	234.81
513.562	242.81
513.778	242.81
513.994	241.81
514.21	230.81
514.426	237.81
514.642	231.81
514.858	240.81
515.074	236.81
515.29	237.81
515.506	240.81
515.721	234.81
515.937	254.81
516.153	237.81
516.369	258.81
516.585	264.81
516.801	265.81
517.016	268.81
517.232	290.81
517.448	290.81
517.664	312.81
517.879	310.81
518.095	308.81
518.311	299.81
518.527	286.81
518.742	282.81
518.958	273.81
519.173	257.81
519.389	242.81
519.605	255.81
519.82	237.81
520.036	250.81
520.251	231.81
520.467	242.81
520.682	219.81
520.898	236.81
521.113	224.81
521.329	240.81
521.544	230.81
521.76	243.81
521.975	240.81
522.19	230.81
522.406	226.81
522.621	217.81
522.836	213.81
523.052	226.81
523.267	233.81
523.482	238.81
523.698	234.81
523.913	217.81
524.128	224.81
524.343	210.81
524.559	219.81
524.774	241.81
524.989	232.81
525.204	202.81
525.419	228.81
525.634	228.81
525.849	227.81
526.064	221.81
526.28	222.81
526.495	212.81
526.71	209.81
526.925	221.81
527.14	223.81
527.355	228.81
527.57	219.81
527.785	208.81
527.999	219.81
528.214	234.81
528.429	222.81
528.644	220.81
528.859	235.81
529.074	231.81
529.289	223.81
529.503	228.81
529.718	241.81
529.933	209.81
530.148	224.81
530.363	227.81
530.577	217.81
530.792	206.81
531.007	222.81
531.221	222.81
531.436	226.81
531.651	214.81
531.865	234.81
532.08	218.81
532.295	221.81
532.509	217.81
532.724	215.81
532.938	221.81
533.153	236.81
533.367	217.81
533.582	228.81
533.796	249.81
534.011	214.81
534.225	211.81
534.44	227.81
534.654	206.81
534.868	222.81
535.083	206.81
535.297	210.81
535.511	226.81
535.726	212.81
535.94	214.81
536.154	194.81
536.369	210.81
536.583	209.81
536.797	214.81
537.011	206.81
537.225	203.81
537.44	221.81
537.654	200.81
537.868	216.81
538.082	202.81
538.296	210.81
538.51	217.81
538.724	220.81
538.938	212.81
539.153	210.81
539.367	212.81
539.581	194.81
539.795	184.81
540.009	197.81
540.222	210.81
540.436	214.81
540.65	203.81
540.864	209.81
541.078	202.81
541.292	194.81
541.506	202.81
541.72	214.81
541.934	187.81
542.147	231.81
542.361	209.81
542.575	195.81
542.789	203.81
543.002	194.81
543.216	204.81
543.43	195.81
543.644	200.81
543.857	205.81
544.071	215.81
544.285	217.81
544.498	213.81
544.712	212.81
544.925	190.81
545.139	233.81
545.352	212.81
545.566	197.81
545.779	210.81
545.993	213.81
546.206	216.81
546.42	213.81
546.633	225.81
546.847	227.81
547.06	205.81
547.274	197.81
547.487	205.81
547.7	217.81
547.914	199.81
548.127	225.81
548.34	210.81
548.554	227.81
548.767	217.81
548.98	192.81
549.193	216.81
549.407	220.81
549.62	226.81
549.833	236.81
550.046	224.81
550.259	232.81
550.473	215.81
550.686	230.81
550.899	200.81
551.112	213.81
551.325	221.81
551.538	220.81
551.751	205.81
551.964	226.81
552.177	213.81
552.39	200.81
552.603	202.81
552.816	230.81
553.029	242.81
553.242	238.81
553.455	236.81
553.667	232.81
553.88	229.81
554.093	226.81
554.306	230.81
554.519	229.81
554.732	227.81
554.944	223.81
555.157	222.81
555.37	208.81
555.583	207.81
555.795	215.81
556.008	209.81
556.221	202.81
556.433	206.81
556.646	211.81
556.859	183.81
557.071	208.81
557.284	206.81
557.496	192.81
557.709	197.81
557.921	191.81
558.134	197.81
558.346	202.81
558.559	195.81
558.771	192.81
558.984	182.81
559.196	196.81
559.409	206.81
559.621	185.81
559.833	178.81
560.046	195.81
560.258	183.81
560.47	193.81
560.683	192.81
560.895	181.81
561.107	185.81
561.32	194.81
561.532	182.81
561.744	200.81
561.956	190.81
562.168	201.81
562.381	187.81
562.593	189.81
562.805	198.81
563.017	196.81
563.229	199.81
563.441	186.81
563.653	204.81
563.865	175.81
564.077	198.81
564.289	197.81
564.501	200.81
564.713	213.81
564.925	198.81
565.137	203.81
565.349	212.81
565.561	216.81
565.773	211.81
565.985	219.81
566.197	225.81
566.408	217.81
566.62	263.81
566.832	277.81
567.044	266.81
567.255	258.81
567.467	306.81
567.679	313.81
567.891	307.81
568.102	328.81
568.314	321.81
568.526	284.81
568.737	258.81
568.949	239.81
569.161	237.81
569.372	221.81
569.584	209.81
569.795	192.81
570.007	184.81
570.218	167.81
570.43	194.81
570.641	189.81
570.853	196.81
571.064	200.81
571.276	181.81
571.487	174.81
571.698	189.81
571.91	185.81
572.121	181.81
572.333	180.81
572.544	188.81
572.755	177.81
572.966	185.81
573.178	173.81
573.389	180.81
573.6	169.81
573.811	171.81
574.023	167.81
574.234	168.81
574.445	175.81
574.656	164.81
574.867	164.81
575.078	194.81
575.289	170.81
575.501	164.81
575.712	156.81
575.923	176.81
576.134	173.81
576.345	165.81
576.556	170.81
576.767	171.81
576.978	168.81
577.188	162.81
577.399	171.81
577.61	166.81
577.821	155.81
578.032	172.81
578.243	158.81
578.454	156.81
578.665	161.81
578.875	166.81
579.086	164.81
579.297	149.81
579.508	164.81
579.718	165.81
579.929	161.81
580.14	169.81
580.35	151.81
580.561	160.81
580.772	153.81
580.982	158.81
581.193	155.81
581.403	154.81
581.614	147.81
581.825	157.81
582.035	149.81
582.246	153.81
582.456	166.81
582.667	153.81
582.877	151.81
583.087	155.81
583.298	166.81
583.508	159.81
583.719	147.81
583.929	150.81
584.139	159.81
584.35	164.81
584.56	157.81
584.77	160.81
584.981	158.81
585.191	157.81
585.401	148.81
585.611	166.81
585.821	147.81
586.032	155.81
586.242	160.81
586.452	164.81
586.662	149.81
586.872	150.81
587.082	170.81
587.292	153.81
587.502	171.81
587.713	152.81
587.923	169.81
588.133	150.81
588.343	151.81
588.553	148.81
588.762	152.81
588.972	164.81
589.182	154.81
589.392	161.81
589.602	158.81
589.812	156.81
590.022	159.81
590.232	150.81
590.441	154.81
590.651	154.81
590.861	154.81
591.071	153.81
591.281	161.81
591.49	154.81
591.7	171.81
591.91	155.81
592.119	152.81
592.329	163.81
592.539	191.81
592.748	161.81
592.958	173.81
593.167	179.81
593.377	194.81
593.587	190.81
593.796	187.81
594.006	191.81
594.215	193.81
594.424	165.81
594.634	194.81
594.843	178.81
595.053	185.81
595.262	186.81
595.472	156.81
595.681	154.81
595.89	168.81
596.1	164.81
596.309	154.81
596.518	160.81
596.727	157.81
596.937	157.81
597.146	153.81
597.355	171.81
597.564	144.81
597.774	138.81
597.983	135.81
598.192	121.81
598.401	160.81
598.61	138.81
598.819	132.81
599.028	145.81
599.237	147.81
599.446	140.81
599.655	139.81
599.864	145.81
600.073	133.81
600.282	129.81
600.491	153.81
600.7	142.81
600.909	152.81
601.118	147.81
601.327	150.81
601.536	131.81
601.745	140.81
601.953	138.81
602.162	142.81
602.371	137.81
602.58	134.81
602.789	148.81
602.997	147.81
603.206	130.81
603.415	129.81
603.623	120.81
603.832	144.81
604.041	127.81
604.249	141.81
604.458	130.81
604.666	140.81
604.875	146.81
605.084	158.81
605.292	149.81
605.501	133.81
605.709	133.81
605.918	149.81
606.126	155.81
606.334	130.81
606.543	132.81
606.751	134.81
606.96	128.81
607.168	146.81
607.376	136.81
607.585	133.81
607.793	133.81
608.001	140.81
608.21	136.81
608.418	133.81
608.626	122.81
608.834	148.81
609.043	128.81
609.251	132.81
609.459	131.81
609.667	153.81
609.875	132.81
610.083	130.81
610.291	123.81
610.499	134.81
610.707	132.81
610.916	130.81
611.124	142.81
611.332	126.81
611.54	143.81
611.748	136.81
611.955	138.81
612.163	149.81
612.371	134.81
612.579	145.81
612.787	123.81
612.995	130.81
613.203	134.81
613.411	128.81
613.618	132.81
613.826	137.81
614.034	147.81
614.242	141.81
614.449	135.81
614.657	127.81
614.865	131.81
615.072	121.81
615.28	146.81
615.488	141.81
615.695	137.81
615.903	128.81
616.111	124.81
616.318	139.81
616.526	128.81
616.733	147.81
616.941	128.81
617.148	133.81
617.356	130.81
617.563	125.81
617.771	147.81
617.978	139.81
618.185	127.81
618.393	137.81
618.6	136.81
618.807	141.81
619.015	123.81
619.222	122.81
619.429	128.81
619.637	133.81
619.844	140.81
620.051	138.81
620.258	149.81
620.466	120.81
620.673	117.81
620.88	110.81
621.087	138.81
621.294	135.81
621.501	113.81
621.708	131.81
621.915	125.81
622.122	136.81
622.329	125.81
622.536	143.81
622.743	132.81
622.95	137.81
623.157	126.81
623.364	121.81
623.571	121.81
623.778	134.81
623.985	124.81
624.192	129.81
624.399	124.81
624.606	140.81
624.812	124.81
625.019	140.81
625.226	121.81
625.433	124.81
625.639	141.81
625.846	119.81
626.053	128.81
626.259	125.81
626.466	116.81
626.673	122.81
626.879	138.81
627.086	140.81
627.293	131.81
627.499	129.81
627.706	126.81
627.912	137.81
628.119	128.81
628.325	134.81
628.532	114.81
628.738	120.81
628.945	124.81
629.151	138.81
629.357	118.81
629.564	132.81
629.77	133.81
629.976	116.81
630.183	131.81
630.389	117.81
630.595	125.81
630.802	101.81
631.008	128.81
631.214	123.81
631.42	121.81
631.627	116.81
631.833	114.81
632.039	125.81
632.245	113.81
632.451	123.81
632.657	128.81
632.863	106.81
633.069	110.81
633.275	109.81
633.481	126.81
633.688	127.81
633.893	132.81
634.099	128.81
634.305	124.81
634.511	124.81
634.717	122.81
634.923	103.81
635.129	111.81
635.335	124.81
635.541	112.81
635.747	107.81
635.952	120.81
636.158	109.81
636.364	119.81
636.57	112.81
636.775	112.81
636.981	115.81
637.187	118.81
637.392	119.81
637.598	126.81
637.804	135.81
638.009	117.81
638.215	123.81
638.421	115.81
638.626	130.81
638.832	115.81
639.037	108.81
639.243	121.81
639.448	114.81
639.654	113.81
639.859	101.81
640.065	109.81
640.27	121.81
640.475	119.81
640.681	112.81
640.886	106.81
641.091	117.81
641.297	124.81
641.502	119.81
641.707	114.81
641.913	112.81
642.118	115.81
642.323	126.81
642.528	118.81
642.733	104.81
642.939	115.81
643.144	111.81
643.349	114.81
643.554	113.81
643.759	115.81
643.964	102.81
644.169	121.81
644.374	126.81
644.579	99.81
644.784	115.81
644.989	107.81
645.194	113.81
645.399	124.81
645.604	108.81
645.809	115.81
646.014	121.81
646.219	123.81
646.423	109.81
646.628	116.81
646.833	116.81
647.038	124.81
647.243	130.81
647.447	103.81
647.652	108.81
647.857	114.81
648.062	110.81
648.266	118.81
648.471	122.81
648.676	121.81
648.88	114.81
649.085	128.81
649.289	105.81
649.494	119.81
649.698	110.81
649.903	106.81
650.107	123.81
650.312	116.81
650.516	118.81
650.721	95.81
650.925	121.81
651.13	109.81
651.334	120.81
651.539	104.81
651.743	104.81
651.947	109.81
652.152	105.81
652.356	118.81
652.56	112.81
652.764	112.81
652.969	101.81
653.173	100.81
653.377	101.81
653.581	102.81
653.785	91.81
653.99	109.81
654.194	105.81
654.398	108.81
654.602	90.81
654.806	85.81
655.01	101.81
655.214	103.81
655.418	100.81
655.622	102.81
655.826	102.81
656.03	100.81
656.234	118.81
656.438	114.81
656.642	113.81
656.846	98.81
657.049	97.81
657.253	100.81
657.457	108.81
657.661	98.81
657.865	99.81
658.068	85.81
658.272	94.81
658.476	100.81
658.68	90.81
658.883	78.81
659.087	96.81
659.291	90.81
659.494	92.81
659.698	97.81
659.901	104.81
660.105	95.81
660.309	85.81
660.512	84.81
660.716	84.81
660.919	83.81
661.123	84.81
661.326	77.81
661.53	78.81
661.733	81.81
661.936	93.81
662.14	90.81
662.343	92.81
662.546	86.81
662.75	83.81
662.953	85.81
663.156	82.81
663.36	94.81
663.563	78.81
663.766	85.81
663.969	82.81
664.173	93.81
664.376	77.81
664.579	78.81
664.782	77.81
664.985	90.81
665.188	91.81
665.391	84.81
665.594	88.81
665.797	72.81
666	85.81
666.203	79.81
666.406	88.81
666.609	95.81
666.812	77.81
667.015	91.81
667.218	90.81
667.421	78.81
667.624	78.81
667.827	85.81
668.03	76.81
668.232	80.81
668.435	86.81
668.638	70.81
668.841	93.81
669.043	83.81
669.246	89.81
669.449	89.81
669.651	81.81
669.854	83.81
670.057	78.81
670.259	79.81
670.462	90.81
670.665	72.81
670.867	76.81
671.07	82.81
671.272	85.81
671.475	82.81
671.677	84.81
671.88	85.81
672.082	98.81
672.284	93.81
672.487	80.81
672.689	78.81
672.892	87.81
