Data from 0.5MCu(NO3)2.Standard.Lamp.E10.CV._HRD10591_16-05-46-753.txt Node
Date: Mon Jul 22 16:05:46 EDT 2019
User: cochatt
Spectrometer: HR+D1059
Trigger mode: 1
Integration Time (sec): 1.000000E-1
Scans to average: 1
Electric dark correction enabled: true
Nonlinearity correction enabled: false
Boxcar width: 0
XAxis mode: Wavelengths
Number of Pixels in Spectrum: 2048
>>>>>Begin Spectral Data<<<<<
223.165	-13.81
223.4	-13.81
223.635	-13.81
223.869	-16.81
224.104	-14.81
224.338	-21.81
224.573	-3.81
224.808	-9.81
225.042	-30.81
225.277	-5.81
225.511	2.19
225.746	2.19
225.98	7.19
226.215	4.19
226.449	22.19
226.683	19.19
226.918	26.19
227.152	34.19
227.387	32.19
227.621	37.19
227.856	39.19
228.09	35.19
228.324	56.19
228.559	58.19
228.793	68.19
229.027	74.19
229.262	70.19
229.496	58.19
229.73	86.19
229.964	78.19
230.199	76.19
230.433	84.19
230.667	86.19
230.901	75.19
231.136	83.19
231.37	79.19
231.604	95.19
231.838	95.19
232.072	84.19
232.306	82.19
232.541	94.19
232.775	83.19
233.009	84.19
233.243	84.19
233.477	86.19
233.711	87.19
233.945	94.19
234.179	85.19
234.413	87.19
234.647	94.19
234.881	94.19
235.115	83.19
235.349	85.19
235.583	92.19
235.817	80.19
236.051	81.19
236.285	91.19
236.519	104.19
236.753	78.19
236.987	82.19
237.221	100.19
237.455	84.19
237.689	86.19
237.922	80.19
238.156	83.19
238.39	89.19
238.624	88.19
238.858	82.19
239.091	81.19
239.325	90.19
239.559	83.19
239.793	83.19
240.027	95.19
240.26	96.19
240.494	100.19
240.728	86.19
240.961	85.19
241.195	99.19
241.429	91.19
241.662	99.19
241.896	83.19
242.13	94.19
242.363	100.19
242.597	114.19
242.83	87.19
243.064	97.19
243.298	89.19
243.531	97.19
243.765	100.19
243.998	111.19
244.232	86.19
244.465	96.19
244.699	88.19
244.932	84.19
245.166	112.19
245.399	84.19
245.633	92.19
245.866	88.19
246.099	96.19
246.333	91.19
246.566	98.19
246.8	99.19
247.033	107.19
247.266	105.19
247.5	101.19
247.733	107.19
247.966	116.19
248.2	112.19
248.433	98.19
248.666	96.19
248.899	82.19
249.133	90.19
249.366	119.19
249.599	91.19
249.832	104.19
250.066	124.19
250.299	110.19
250.532	103.19
250.765	98.19
250.998	108.19
251.231	109.19
251.465	111.19
251.698	97.19
251.931	107.19
252.164	105.19
252.397	113.19
252.63	107.19
252.863	108.19
253.096	98.19
253.329	106.19
253.562	99.19
253.795	117.19
254.028	102.19
254.261	131.19
254.494	100.19
254.727	99.19
254.96	119.19
255.193	107.19
255.426	104.19
255.659	105.19
255.892	119.19
256.124	106.19
256.357	116.19
256.59	115.19
256.823	101.19
257.056	116.19
257.289	106.19
257.521	102.19
257.754	109.19
257.987	110.19
258.22	119.19
258.452	103.19
258.685	105.19
258.918	110.19
259.151	114.19
259.383	125.19
259.616	102.19
259.849	119.19
260.081	117.19
260.314	118.19
260.547	104.19
260.779	124.19
261.012	118.19
261.244	122.19
261.477	112.19
261.71	127.19
261.942	114.19
262.175	112.19
262.407	118.19
262.64	126.19
262.872	130.19
263.105	114.19
263.337	122.19
263.57	123.19
263.802	116.19
264.035	141.19
264.267	126.19
264.499	128.19
264.732	123.19
264.964	112.19
265.197	123.19
265.429	127.19
265.661	122.19
265.894	116.19
266.126	117.19
266.358	113.19
266.591	111.19
266.823	126.19
267.055	130.19
267.287	133.19
267.52	118.19
267.752	125.19
267.984	128.19
268.216	120.19
268.448	126.19
268.681	131.19
268.913	126.19
269.145	123.19
269.377	134.19
269.609	124.19
269.841	134.19
270.073	130.19
270.306	144.19
270.538	135.19
270.77	135.19
271.002	132.19
271.234	132.19
271.466	123.19
271.698	134.19
271.93	134.19
272.162	135.19
272.394	144.19
272.626	147.19
272.858	131.19
273.09	131.19
273.322	117.19
273.553	122.19
273.785	138.19
274.017	135.19
274.249	139.19
274.481	130.19
274.713	143.19
274.945	122.19
275.176	128.19
275.408	119.19
275.64	132.19
275.872	140.19
276.104	154.19
276.335	123.19
276.567	141.19
276.799	126.19
277.031	127.19
277.262	144.19
277.494	144.19
277.726	136.19
277.957	138.19
278.189	128.19
278.421	140.19
278.652	154.19
278.884	147.19
279.115	137.19
279.347	129.19
279.579	138.19
279.81	126.19
280.042	144.19
280.273	137.19
280.505	165.19
280.736	164.19
280.968	142.19
281.199	136.19
281.431	141.19
281.662	134.19
281.894	160.19
282.125	155.19
282.356	150.19
282.588	151.19
282.819	146.19
283.051	150.19
283.282	124.19
283.513	138.19
283.745	153.19
283.976	160.19
284.207	146.19
284.439	149.19
284.67	155.19
284.901	156.19
285.132	154.19
285.364	151.19
285.595	139.19
285.826	161.19
286.057	161.19
286.288	149.19
286.52	150.19
286.751	155.19
286.982	160.19
287.213	165.19
287.444	152.19
287.675	178.19
287.906	157.19
288.138	163.19
288.369	161.19
288.6	171.19
288.831	144.19
289.062	162.19
289.293	166.19
289.524	150.19
289.755	138.19
289.986	156.19
290.217	172.19
290.448	172.19
290.679	154.19
290.91	162.19
291.141	157.19
291.371	170.19
291.602	158.19
291.833	159.19
292.064	170.19
292.295	161.19
292.526	155.19
292.757	176.19
292.987	168.19
293.218	166.19
293.449	165.19
293.68	168.19
293.91	167.19
294.141	153.19
294.372	160.19
294.603	166.19
294.833	167.19
295.064	182.19
295.295	161.19
295.525	159.19
295.756	152.19
295.987	176.19
296.217	162.19
296.448	160.19
296.679	168.19
296.909	165.19
297.14	165.19
297.37	180.19
297.601	176.19
297.831	178.19
298.062	168.19
298.292	167.19
298.523	186.19
298.753	178.19
298.984	188.19
299.214	174.19
299.445	168.19
299.675	163.19
299.905	174.19
300.136	172.19
300.366	178.19
300.597	172.19
300.827	168.19
301.057	174.19
301.288	175.19
301.518	184.19
301.748	176.19
301.979	179.19
302.209	198.19
302.439	166.19
302.669	174.19
302.9	167.19
303.13	190.19
303.36	169.19
303.59	176.19
303.82	171.19
304.051	184.19
304.281	162.19
304.511	188.19
304.741	169.19
304.971	167.19
305.201	178.19
305.431	172.19
305.661	178.19
305.891	191.19
306.121	174.19
306.352	168.19
306.582	163.19
306.812	182.19
307.042	190.19
307.272	179.19
307.502	171.19
307.731	176.19
307.961	189.19
308.191	179.19
308.421	162.19
308.651	179.19
308.881	176.19
309.111	194.19
309.341	162.19
309.571	181.19
309.8	170.19
310.03	195.19
310.26	180.19
310.49	168.19
310.72	177.19
310.949	171.19
311.179	182.19
311.409	172.19
311.639	177.19
311.868	179.19
312.098	171.19
312.328	185.19
312.557	179.19
312.787	183.19
313.017	179.19
313.246	172.19
313.476	182.19
313.706	182.19
313.935	201.19
314.165	199.19
314.394	192.19
314.624	194.19
314.853	181.19
315.083	196.19
315.312	168.19
315.542	178.19
315.771	186.19
316.001	177.19
316.23	190.19
316.46	184.19
316.689	181.19
316.919	174.19
317.148	176.19
317.377	195.19
317.607	175.19
317.836	178.19
318.065	180.19
318.295	184.19
318.524	180.19
318.753	174.19
318.983	188.19
319.212	196.19
319.441	184.19
319.67	193.19
319.9	178.19
320.129	188.19
320.358	169.19
320.587	171.19
320.816	170.19
321.046	180.19
321.275	194.19
321.504	172.19
321.733	185.19
321.962	162.19
322.191	198.19
322.42	187.19
322.649	183.19
322.878	194.19
323.108	192.19
323.337	163.19
323.566	176.19
323.795	192.19
324.024	184.19
324.253	182.19
324.482	182.19
324.71	176.19
324.939	186.19
325.168	188.19
325.397	204.19
325.626	195.19
325.855	187.19
326.084	191.19
326.313	187.19
326.542	183.19
326.77	191.19
326.999	184.19
327.228	192.19
327.457	211.19
327.686	190.19
327.914	196.19
328.143	183.19
328.372	192.19
328.6	193.19
328.829	206.19
329.058	195.19
329.287	193.19
329.515	175.19
329.744	194.19
329.972	186.19
330.201	186.19
330.43	190.19
330.658	195.19
330.887	201.19
331.115	211.19
331.344	193.19
331.572	200.19
331.801	208.19
332.03	190.19
332.258	218.19
332.486	212.19
332.715	225.19
332.943	227.19
333.172	235.19
333.4	248.19
333.629	244.19
333.857	259.19
334.085	233.19
334.314	232.19
334.542	224.19
334.771	229.19
334.999	231.19
335.227	234.19
335.455	221.19
335.684	227.19
335.912	224.19
336.14	217.19
336.369	215.19
336.597	208.19
336.825	242.19
337.053	226.19
337.281	214.19
337.51	226.19
337.738	234.19
337.966	213.19
338.194	214.19
338.422	208.19
338.65	201.19
338.878	202.19
339.106	206.19
339.334	198.19
339.562	195.19
339.79	198.19
340.018	197.19
340.246	191.19
340.474	199.19
340.702	194.19
340.93	197.19
341.158	191.19
341.386	196.19
341.614	206.19
341.842	209.19
342.07	201.19
342.298	201.19
342.526	199.19
342.754	194.19
342.981	187.19
343.209	200.19
343.437	202.19
343.665	198.19
343.893	228.19
344.12	244.19
344.348	236.19
344.576	231.19
344.804	212.19
345.031	201.19
345.259	196.19
345.487	211.19
345.714	194.19
345.942	204.19
346.17	204.19
346.397	196.19
346.625	202.19
346.853	204.19
347.08	198.19
347.308	199.19
347.535	215.19
347.763	207.19
347.99	204.19
348.218	207.19
348.445	204.19
348.673	196.19
348.9	193.19
349.128	182.19
349.355	188.19
349.583	195.19
349.81	183.19
350.037	191.19
350.265	198.19
350.492	186.19
350.72	171.19
350.947	192.19
351.174	201.19
351.402	179.19
351.629	187.19
351.856	195.19
352.083	176.19
352.311	182.19
352.538	193.19
352.765	174.19
352.992	182.19
353.22	187.19
353.447	188.19
353.674	201.19
353.901	168.19
354.128	202.19
354.355	185.19
354.583	195.19
354.81	187.19
355.037	200.19
355.264	187.19
355.491	192.19
355.718	194.19
355.945	191.19
356.172	186.19
356.399	193.19
356.626	182.19
356.853	172.19
357.08	183.19
357.307	196.19
357.534	183.19
357.761	193.19
357.988	191.19
358.215	187.19
358.441	166.19
358.668	172.19
358.895	172.19
359.122	190.19
359.349	189.19
359.576	187.19
359.802	201.19
360.029	184.19
360.256	196.19
360.483	183.19
360.709	171.19
360.936	177.19
361.163	190.19
361.39	192.19
361.616	190.19
361.843	186.19
362.07	201.19
362.296	186.19
362.523	195.19
362.749	180.19
362.976	177.19
363.203	209.19
363.429	188.19
363.656	191.19
363.882	182.19
364.109	194.19
364.335	182.19
364.562	194.19
364.788	176.19
365.015	190.19
365.241	201.19
365.468	186.19
365.694	182.19
365.92	186.19
366.147	179.19
366.373	182.19
366.599	193.19
366.826	180.19
367.052	199.19
367.278	192.19
367.505	188.19
367.731	208.19
367.957	198.19
368.184	197.19
368.41	181.19
368.636	180.19
368.862	191.19
369.089	196.19
369.315	195.19
369.541	196.19
369.767	187.19
369.993	189.19
370.219	174.19
370.445	196.19
370.672	195.19
370.898	194.19
371.124	193.19
371.35	186.19
371.576	194.19
371.802	190.19
372.028	199.19
372.254	202.19
372.48	185.19
372.706	200.19
372.932	192.19
373.158	207.19
373.384	200.19
373.61	187.19
373.835	179.19
374.061	199.19
374.287	190.19
374.513	192.19
374.739	198.19
374.965	204.19
375.191	224.19
375.416	220.19
375.642	210.19
375.868	211.19
376.094	201.19
376.319	192.19
376.545	199.19
376.771	204.19
376.997	209.19
377.222	199.19
377.448	179.19
377.674	184.19
377.899	193.19
378.125	192.19
378.35	207.19
378.576	191.19
378.802	209.19
379.027	194.19
379.253	215.19
379.478	191.19
379.704	197.19
379.929	204.19
380.155	211.19
380.38	197.19
380.606	198.19
380.831	183.19
381.057	187.19
381.282	192.19
381.507	210.19
381.733	198.19
381.958	214.19
382.184	205.19
382.409	210.19
382.634	208.19
382.86	216.19
383.085	209.19
383.31	206.19
383.535	213.19
383.761	213.19
383.986	223.19
384.211	214.19
384.436	230.19
384.662	207.19
384.887	203.19
385.112	234.19
385.337	226.19
385.562	222.19
385.787	225.19
386.013	231.19
386.238	231.19
386.463	218.19
386.688	226.19
386.913	213.19
387.138	235.19
387.363	228.19
387.588	238.19
387.813	210.19
388.038	203.19
388.263	231.19
388.488	238.19
388.713	222.19
388.938	204.19
389.163	218.19
389.387	216.19
389.612	207.19
389.837	225.19
390.062	212.19
390.287	215.19
390.512	211.19
390.736	219.19
390.961	212.19
391.186	234.19
391.411	219.19
391.636	214.19
391.86	260.19
392.085	242.19
392.31	242.19
392.534	242.19
392.759	235.19
392.984	221.19
393.208	223.19
393.433	226.19
393.658	235.19
393.882	233.19
394.107	227.19
394.331	244.19
394.556	218.19
394.78	230.19
395.005	231.19
395.229	232.19
395.454	238.19
395.678	229.19
395.903	250.19
396.127	241.19
396.352	235.19
396.576	225.19
396.801	222.19
397.025	231.19
397.249	219.19
397.474	234.19
397.698	233.19
397.922	245.19
398.147	229.19
398.371	238.19
398.595	244.19
398.82	249.19
399.044	266.19
399.268	302.19
399.492	330.19
399.717	375.19
399.941	374.19
400.165	320.19
400.389	304.19
400.613	278.19
400.837	272.19
401.062	258.19
401.286	259.19
401.51	261.19
401.734	257.19
401.958	274.19
402.182	267.19
402.406	266.19
402.63	268.19
402.854	279.19
403.078	279.19
403.302	298.19
403.526	306.19
403.75	303.19
403.974	308.19
404.198	300.19
404.422	303.19
404.645	291.19
404.869	306.19
405.093	281.19
405.317	296.19
405.541	276.19
405.765	286.19
405.988	265.19
406.212	290.19
406.436	281.19
406.66	280.19
406.883	293.19
407.107	304.19
407.331	328.19
407.555	332.19
407.778	330.19
408.002	304.19
408.226	323.19
408.449	298.19
408.673	312.19
408.896	288.19
409.12	302.19
409.344	296.19
409.567	303.19
409.791	302.19
410.014	309.19
410.238	305.19
410.461	278.19
410.685	302.19
410.908	285.19
411.132	280.19
411.355	253.19
411.578	282.19
411.802	272.19
412.025	254.19
412.249	280.19
412.472	263.19
412.695	264.19
412.919	282.19
413.142	257.19
413.365	262.19
413.589	277.19
413.812	271.19
414.035	263.19
414.258	263.19
414.482	273.19
414.705	258.19
414.928	270.19
415.151	246.19
415.374	265.19
415.597	266.19
415.821	255.19
416.044	268.19
416.267	262.19
416.49	244.19
416.713	254.19
416.936	235.19
417.159	260.19
417.382	251.19
417.605	257.19
417.828	273.19
418.051	275.19
418.274	275.19
418.497	259.19
418.72	273.19
418.943	261.19
419.166	274.19
419.389	276.19
419.611	293.19
419.834	269.19
420.057	265.19
420.28	264.19
420.503	261.19
420.726	263.19
420.948	261.19
421.171	261.19
421.394	254.19
421.617	275.19
421.839	264.19
422.062	265.19
422.285	258.19
422.507	277.19
422.73	250.19
422.953	289.19
423.175	272.19
423.398	274.19
423.621	277.19
423.843	280.19
424.066	278.19
424.288	271.19
424.511	286.19
424.733	269.19
424.956	274.19
425.178	275.19
425.401	268.19
425.623	262.19
425.846	247.19
426.068	250.19
426.291	243.19
426.513	264.19
426.735	249.19
426.958	249.19
427.18	238.19
427.402	253.19
427.625	257.19
427.847	242.19
428.069	230.19
428.292	243.19
428.514	224.19
428.736	240.19
428.958	218.19
429.181	230.19
429.403	232.19
429.625	248.19
429.847	234.19
430.069	227.19
430.292	234.19
430.514	236.19
430.736	238.19
430.958	227.19
431.18	243.19
431.402	233.19
431.624	227.19
431.846	244.19
432.068	246.19
432.29	233.19
432.512	226.19
432.734	233.19
432.956	233.19
433.178	236.19
433.4	245.19
433.622	230.19
433.844	228.19
434.066	248.19
434.287	240.19
434.509	224.19
434.731	255.19
434.953	265.19
435.175	265.19
435.397	281.19
435.618	251.19
435.84	247.19
436.062	228.19
436.284	222.19
436.505	231.19
436.727	237.19
436.949	227.19
437.17	260.19
437.392	243.19
437.614	230.19
437.835	232.19
438.057	222.19
438.278	218.19
438.5	234.19
438.721	227.19
438.943	213.19
439.165	226.19
439.386	240.19
439.608	244.19
439.829	249.19
440.05	240.19
440.272	233.19
440.493	251.19
440.715	231.19
440.936	249.19
441.158	261.19
441.379	249.19
441.6	265.19
441.822	250.19
442.043	262.19
442.264	267.19
442.486	258.19
442.707	258.19
442.928	246.19
443.149	268.19
443.371	263.19
443.592	248.19
443.813	254.19
444.034	259.19
444.255	252.19
444.476	282.19
444.698	278.19
444.919	329.19
445.14	403.19
445.361	346.19
445.582	278.19
445.803	260.19
446.024	258.19
446.245	247.19
446.466	241.19
446.687	215.19
446.908	215.19
447.129	230.19
447.35	227.19
447.571	217.19
447.792	217.19
448.013	232.19
448.234	208.19
448.455	212.19
448.675	199.19
448.896	219.19
449.117	230.19
449.338	216.19
449.559	223.19
449.779	214.19
450	228.19
450.221	200.19
450.442	209.19
450.662	220.19
450.883	231.19
451.104	231.19
451.324	228.19
451.545	231.19
451.766	220.19
451.986	232.19
452.207	222.19
452.428	217.19
452.648	215.19
452.869	216.19
453.089	240.19
453.31	214.19
453.53	217.19
453.751	211.19
453.971	225.19
454.192	200.19
454.412	213.19
454.633	214.19
454.853	211.19
455.073	203.19
455.294	208.19
455.514	222.19
455.734	205.19
455.955	198.19
456.175	199.19
456.395	213.19
456.616	211.19
456.836	218.19
457.056	219.19
457.276	193.19
457.497	215.19
457.717	204.19
457.937	206.19
458.157	214.19
458.377	212.19
458.598	218.19
458.818	220.19
459.038	235.19
459.258	233.19
459.478	256.19
459.698	242.19
459.918	239.19
460.138	261.19
460.358	282.19
460.578	284.19
460.798	273.19
461.018	258.19
461.238	280.19
461.458	276.19
461.678	281.19
461.898	268.19
462.118	289.19
462.338	287.19
462.558	294.19
462.777	302.19
462.997	350.19
463.217	340.19
463.437	364.19
463.657	331.19
463.876	310.19
464.096	316.19
464.316	307.19
464.536	345.19
464.755	295.19
464.975	295.19
465.195	296.19
465.414	277.19
465.634	244.19
465.854	251.19
466.073	246.19
466.293	244.19
466.512	236.19
466.732	230.19
466.951	225.19
467.171	219.19
467.391	239.19
467.61	229.19
467.829	213.19
468.049	226.19
468.268	238.19
468.488	228.19
468.707	225.19
468.927	215.19
469.146	223.19
469.365	228.19
469.585	226.19
469.804	235.19
470.023	254.19
470.243	244.19
470.462	235.19
470.681	253.19
470.901	244.19
471.12	230.19
471.339	243.19
471.558	224.19
471.777	233.19
471.997	238.19
472.216	235.19
472.435	218.19
472.654	203.19
472.873	214.19
473.092	225.19
473.311	224.19
473.53	210.19
473.749	216.19
473.968	223.19
474.187	226.19
474.406	229.19
474.625	227.19
474.844	218.19
475.063	208.19
475.282	212.19
475.501	213.19
475.72	242.19
475.939	224.19
476.158	217.19
476.377	226.19
476.596	237.19
476.814	235.19
477.033	242.19
477.252	227.19
477.471	218.19
477.69	241.19
477.908	243.19
478.127	271.19
478.346	268.19
478.564	266.19
478.783	257.19
479.002	288.19
479.22	262.19
479.439	263.19
479.658	284.19
479.876	257.19
480.095	268.19
480.313	284.19
480.532	273.19
480.751	290.19
480.969	273.19
481.188	264.19
481.406	240.19
481.624	250.19
481.843	248.19
482.061	246.19
482.28	258.19
482.498	261.19
482.717	226.19
482.935	242.19
483.153	259.19
483.372	254.19
483.59	255.19
483.808	254.19
484.027	261.19
484.245	262.19
484.463	259.19
484.681	268.19
484.9	242.19
485.118	254.19
485.336	258.19
485.554	280.19
485.772	278.19
485.99	275.19
486.209	278.19
486.427	262.19
486.645	267.19
486.863	289.19
487.081	268.19
487.299	267.19
487.517	279.19
487.735	266.19
487.953	254.19
488.171	264.19
488.389	274.19
488.607	268.19
488.825	262.19
489.043	262.19
489.261	256.19
489.479	265.19
489.696	254.19
489.914	262.19
490.132	257.19
490.35	261.19
490.568	272.19
490.786	258.19
491.003	275.19
491.221	278.19
491.439	280.19
491.657	266.19
491.874	272.19
492.092	282.19
492.31	279.19
492.527	288.19
492.745	285.19
492.963	283.19
493.18	269.19
493.398	274.19
493.615	271.19
493.833	284.19
494.05	290.19
494.268	302.19
494.485	279.19
494.703	276.19
494.92	295.19
495.138	268.19
495.355	289.19
495.573	286.19
495.79	281.19
496.008	273.19
496.225	283.19
496.442	287.19
496.66	285.19
496.877	272.19
497.094	281.19
497.312	282.19
497.529	321.19
497.746	305.19
497.963	320.19
498.181	346.19
498.398	335.19
498.615	357.19
498.832	376.19
499.049	408.19
499.267	410.19
499.484	476.19
499.701	512.19
499.918	543.19
500.135	634.19
500.352	720.19
500.569	755.19
500.786	762.19
501.003	708.19
501.22	606.19
501.437	562.19
501.654	480.19
501.871	461.19
502.088	420.19
502.305	404.19
502.522	388.19
502.739	362.19
502.956	342.19
503.172	334.19
503.389	305.19
503.606	308.19
503.823	307.19
504.04	309.19
504.256	313.19
504.473	330.19
504.69	344.19
504.907	329.19
505.123	302.19
505.34	272.19
505.557	280.19
505.773	269.19
505.99	267.19
506.207	262.19
506.423	262.19
506.64	270.19
506.856	243.19
507.073	253.19
507.289	257.19
507.506	259.19
507.722	260.19
507.939	248.19
508.155	249.19
508.372	232.19
508.588	254.19
508.805	236.19
509.021	243.19
509.238	266.19
509.454	247.19
509.67	231.19
509.887	225.19
510.103	240.19
510.319	253.19
510.536	249.19
510.752	225.19
510.968	219.19
511.184	228.19
511.401	230.19
511.617	224.19
511.833	240.19
512.049	234.19
512.265	238.19
512.481	247.19
512.698	250.19
512.914	238.19
513.13	235.19
513.346	222.19
513.562	233.19
513.778	229.19
513.994	235.19
514.21	240.19
514.426	234.19
514.642	242.19
514.858	240.19
515.074	240.19
515.29	244.19
515.506	234.19
515.721	243.19
515.937	258.19
516.153	264.19
516.369	258.19
516.585	273.19
516.801	275.19
517.016	277.19
517.232	284.19
517.448	315.19
517.664	297.19
517.879	320.19
518.095	304.19
518.311	316.19
518.527	291.19
518.742	304.19
518.958	283.19
519.173	273.19
519.389	257.19
519.605	258.19
519.82	262.19
520.036	254.19
520.251	242.19
520.467	230.19
520.682	243.19
520.898	223.19
521.113	234.19
521.329	235.19
521.544	216.19
521.76	242.19
521.975	225.19
522.19	221.19
522.406	215.19
522.621	227.19
522.836	226.19
523.052	242.19
523.267	243.19
523.482	238.19
523.698	223.19
523.913	215.19
524.128	240.19
524.343	225.19
524.559	226.19
524.774	225.19
524.989	237.19
525.204	218.19
525.419	222.19
525.634	234.19
525.849	230.19
526.064	226.19
526.28	226.19
526.495	218.19
526.71	234.19
526.925	224.19
527.14	232.19
527.355	220.19
527.57	231.19
527.785	222.19
527.999	220.19
528.214	220.19
528.429	222.19
528.644	224.19
528.859	255.19
529.074	211.19
529.289	222.19
529.503	229.19
529.718	226.19
529.933	235.19
530.148	219.19
530.363	243.19
530.577	214.19
530.792	218.19
531.007	219.19
531.221	212.19
531.436	229.19
531.651	227.19
531.865	238.19
532.08	218.19
532.295	235.19
532.509	216.19
532.724	249.19
532.938	225.19
533.153	228.19
533.367	225.19
533.582	223.19
533.796	231.19
534.011	213.19
534.225	238.19
534.44	227.19
534.654	220.19
534.868	220.19
535.083	227.19
535.297	215.19
535.511	202.19
535.726	235.19
535.94	220.19
536.154	209.19
536.369	217.19
536.583	210.19
536.797	217.19
537.011	208.19
537.225	217.19
537.44	222.19
537.654	226.19
537.868	203.19
538.082	213.19
538.296	201.19
538.51	198.19
538.724	212.19
538.938	206.19
539.153	214.19
539.367	204.19
539.581	208.19
539.795	217.19
540.009	202.19
540.222	203.19
540.436	187.19
540.65	217.19
540.864	200.19
541.078	217.19
541.292	202.19
541.506	208.19
541.72	210.19
541.934	211.19
542.147	207.19
542.361	228.19
542.575	213.19
542.789	200.19
543.002	232.19
543.216	202.19
543.43	195.19
543.644	198.19
543.857	219.19
544.071	205.19
544.285	209.19
544.498	205.19
544.712	196.19
544.925	213.19
545.139	218.19
545.352	218.19
545.566	215.19
545.779	210.19
545.993	223.19
546.206	225.19
546.42	222.19
546.633	214.19
546.847	205.19
547.06	216.19
547.274	208.19
547.487	232.19
547.7	222.19
547.914	219.19
548.127	228.19
548.34	222.19
548.554	218.19
548.767	223.19
548.98	212.19
549.193	228.19
549.407	227.19
549.62	219.19
549.833	234.19
550.046	217.19
550.259	218.19
550.473	213.19
550.686	233.19
550.899	203.19
551.112	217.19
551.325	214.19
551.538	212.19
551.751	220.19
551.964	225.19
552.177	212.19
552.39	208.19
552.603	221.19
552.816	220.19
553.029	243.19
553.242	230.19
553.455	233.19
553.667	244.19
553.88	228.19
554.093	235.19
554.306	213.19
554.519	211.19
554.732	210.19
554.944	225.19
555.157	214.19
555.37	234.19
555.583	207.19
555.795	201.19
556.008	200.19
556.221	210.19
556.433	203.19
556.646	197.19
556.859	206.19
557.071	207.19
557.284	205.19
557.496	203.19
557.709	195.19
557.921	195.19
558.134	200.19
558.346	177.19
558.559	187.19
558.771	197.19
558.984	202.19
559.196	193.19
559.409	189.19
559.621	186.19
559.833	195.19
560.046	174.19
560.258	193.19
560.47	186.19
560.683	199.19
560.895	184.19
561.107	180.19
561.32	189.19
561.532	208.19
561.744	197.19
561.956	186.19
562.168	184.19
562.381	198.19
562.593	191.19
562.805	193.19
563.017	199.19
563.229	190.19
563.441	191.19
563.653	183.19
563.865	187.19
564.077	204.19
564.289	195.19
564.501	200.19
564.713	200.19
564.925	209.19
565.137	186.19
565.349	226.19
565.561	232.19
565.773	230.19
565.985	212.19
566.197	234.19
566.408	238.19
566.62	271.19
566.832	293.19
567.044	292.19
567.255	281.19
567.467	293.19
567.679	316.19
567.891	330.19
568.102	337.19
568.314	333.19
568.526	287.19
568.737	277.19
568.949	256.19
569.161	218.19
569.372	213.19
569.584	204.19
569.795	206.19
570.007	194.19
570.218	218.19
570.43	208.19
570.641	186.19
570.853	195.19
571.064	204.19
571.276	209.19
571.487	198.19
571.698	180.19
571.91	184.19
572.121	188.19
572.333	179.19
572.544	176.19
572.755	176.19
572.966	186.19
573.178	180.19
573.389	179.19
573.6	175.19
573.811	175.19
574.023	174.19
574.234	168.19
574.445	185.19
574.656	165.19
574.867	184.19
575.078	163.19
575.289	178.19
575.501	188.19
575.712	176.19
575.923	180.19
576.134	169.19
576.345	180.19
576.556	163.19
576.767	157.19
576.978	179.19
577.188	169.19
577.399	188.19
577.61	166.19
577.821	164.19
578.032	153.19
578.243	168.19
578.454	174.19
578.665	140.19
578.875	146.19
579.086	144.19
579.297	156.19
579.508	165.19
579.718	166.19
579.929	166.19
580.14	166.19
580.35	154.19
580.561	151.19
580.772	165.19
580.982	162.19
581.193	156.19
581.403	158.19
581.614	176.19
581.825	163.19
582.035	152.19
582.246	159.19
582.456	173.19
582.667	152.19
582.877	142.19
583.087	155.19
583.298	158.19
583.508	164.19
583.719	155.19
583.929	170.19
584.139	155.19
584.35	154.19
584.56	151.19
584.77	155.19
584.981	149.19
585.191	159.19
585.401	156.19
585.611	179.19
585.821	156.19
586.032	154.19
586.242	147.19
586.452	166.19
586.662	159.19
586.872	149.19
587.082	151.19
587.292	153.19
587.502	154.19
587.713	157.19
587.923	143.19
588.133	143.19
588.343	156.19
588.553	148.19
588.762	158.19
588.972	155.19
589.182	158.19
589.392	169.19
589.602	143.19
589.812	169.19
590.022	175.19
590.232	154.19
590.441	167.19
590.651	142.19
590.861	161.19
591.071	150.19
591.281	165.19
591.49	169.19
591.7	159.19
591.91	165.19
592.119	160.19
592.329	148.19
592.539	171.19
592.748	179.19
592.958	186.19
593.167	183.19
593.377	199.19
593.587	208.19
593.796	171.19
594.006	179.19
594.215	194.19
594.424	200.19
594.634	192.19
594.843	213.19
595.053	185.19
595.262	162.19
595.472	166.19
595.681	155.19
595.89	164.19
596.1	156.19
596.309	151.19
596.518	151.19
596.727	156.19
596.937	155.19
597.146	158.19
597.355	163.19
597.564	130.19
597.774	152.19
597.983	140.19
598.192	152.19
598.401	132.19
598.61	146.19
598.819	132.19
599.028	143.19
599.237	136.19
599.446	145.19
599.655	144.19
599.864	155.19
600.073	146.19
600.282	147.19
600.491	156.19
600.7	155.19
600.909	139.19
601.118	140.19
601.327	159.19
601.536	140.19
601.745	154.19
601.953	144.19
602.162	141.19
602.371	132.19
602.58	129.19
602.789	141.19
602.997	143.19
603.206	139.19
603.415	150.19
603.623	151.19
603.832	152.19
604.041	140.19
604.249	132.19
604.458	140.19
604.666	147.19
604.875	132.19
605.084	137.19
605.292	148.19
605.501	148.19
605.709	143.19
605.918	128.19
606.126	134.19
606.334	125.19
606.543	129.19
606.751	145.19
606.96	137.19
607.168	134.19
607.376	131.19
607.585	153.19
607.793	147.19
608.001	137.19
608.21	140.19
608.418	142.19
608.626	150.19
608.834	151.19
609.043	135.19
609.251	136.19
609.459	139.19
609.667	153.19
609.875	140.19
610.083	138.19
610.291	113.19
610.499	134.19
610.707	121.19
610.916	122.19
611.124	140.19
611.332	136.19
611.54	136.19
611.748	123.19
611.955	136.19
612.163	153.19
612.371	144.19
612.579	125.19
612.787	136.19
612.995	147.19
613.203	147.19
613.411	137.19
613.618	136.19
613.826	121.19
614.034	126.19
614.242	132.19
614.449	145.19
614.657	120.19
614.865	135.19
615.072	122.19
615.28	122.19
615.488	136.19
615.695	132.19
615.903	135.19
616.111	146.19
616.318	133.19
616.526	149.19
616.733	133.19
616.941	128.19
617.148	141.19
617.356	124.19
617.563	156.19
617.771	141.19
617.978	141.19
618.185	128.19
618.393	130.19
618.6	148.19
618.807	131.19
619.015	137.19
619.222	117.19
619.429	118.19
619.637	135.19
619.844	118.19
620.051	130.19
620.258	132.19
620.466	140.19
620.673	121.19
620.88	130.19
621.087	142.19
621.294	119.19
621.501	126.19
621.708	128.19
621.915	150.19
622.122	137.19
622.329	122.19
622.536	146.19
622.743	134.19
622.95	123.19
623.157	122.19
623.364	120.19
623.571	120.19
623.778	123.19
623.985	131.19
624.192	128.19
624.399	131.19
624.606	127.19
624.812	127.19
625.019	120.19
625.226	133.19
625.433	136.19
625.639	99.19
625.846	128.19
626.053	123.19
626.259	130.19
626.466	129.19
626.673	127.19
626.879	133.19
627.086	107.19
627.293	122.19
627.499	115.19
627.706	122.19
627.912	106.19
628.119	130.19
628.325	116.19
628.532	115.19
628.738	130.19
628.945	114.19
629.151	115.19
629.357	123.19
629.564	101.19
629.77	109.19
629.976	119.19
630.183	130.19
630.389	108.19
630.595	123.19
630.802	136.19
631.008	119.19
631.214	114.19
631.42	119.19
631.627	131.19
631.833	123.19
632.039	107.19
632.245	128.19
632.451	114.19
632.657	111.19
632.863	111.19
633.069	133.19
633.275	124.19
633.481	116.19
633.688	125.19
633.893	122.19
634.099	97.19
634.305	119.19
634.511	122.19
634.717	118.19
634.923	104.19
635.129	123.19
635.335	114.19
635.541	113.19
635.747	114.19
635.952	115.19
636.158	118.19
636.364	116.19
636.57	101.19
636.775	122.19
636.981	113.19
637.187	115.19
637.392	118.19
637.598	123.19
637.804	111.19
638.009	115.19
638.215	105.19
638.421	109.19
638.626	115.19
638.832	121.19
639.037	96.19
639.243	110.19
639.448	122.19
639.654	123.19
639.859	115.19
640.065	123.19
640.27	136.19
640.475	116.19
640.681	116.19
640.886	112.19
641.091	112.19
641.297	117.19
641.502	112.19
641.707	114.19
641.913	115.19
642.118	115.19
642.323	98.19
642.528	120.19
642.733	113.19
642.939	113.19
643.144	117.19
643.349	110.19
643.554	107.19
643.759	99.19
643.964	101.19
644.169	103.19
644.374	118.19
644.579	116.19
644.784	130.19
644.989	123.19
645.194	101.19
645.399	112.19
645.604	108.19
645.809	116.19
646.014	124.19
646.219	125.19
646.423	103.19
646.628	111.19
646.833	103.19
647.038	108.19
647.243	106.19
647.447	120.19
647.652	117.19
647.857	104.19
648.062	118.19
648.266	122.19
648.471	122.19
648.676	106.19
648.88	128.19
649.085	102.19
649.289	106.19
649.494	121.19
649.698	112.19
649.903	101.19
650.107	118.19
650.312	105.19
650.516	102.19
650.721	115.19
650.925	94.19
651.13	108.19
651.334	101.19
651.539	105.19
651.743	102.19
651.947	117.19
652.152	111.19
652.356	123.19
652.56	92.19
652.764	99.19
652.969	106.19
653.173	114.19
653.377	100.19
653.581	102.19
653.785	111.19
653.99	108.19
654.194	102.19
654.398	83.19
654.602	80.19
654.806	111.19
655.01	98.19
655.214	104.19
655.418	108.19
655.622	92.19
655.826	111.19
656.03	102.19
656.234	106.19
656.438	100.19
656.642	101.19
656.846	104.19
657.049	91.19
657.253	103.19
657.457	101.19
657.661	86.19
657.865	107.19
658.068	100.19
658.272	100.19
658.476	95.19
658.68	96.19
658.883	76.19
659.087	98.19
659.291	95.19
659.494	95.19
659.698	100.19
659.901	84.19
660.105	91.19
660.309	73.19
660.512	85.19
660.716	91.19
660.919	78.19
661.123	82.19
661.326	75.19
661.53	76.19
661.733	78.19
661.936	101.19
662.14	95.19
662.343	75.19
662.546	85.19
662.75	92.19
662.953	87.19
663.156	86.19
663.36	81.19
663.563	70.19
663.766	87.19
663.969	94.19
664.173	83.19
664.376	80.19
664.579	76.19
664.782	87.19
664.985	87.19
665.188	79.19
665.391	79.19
665.594	75.19
665.797	84.19
666	83.19
666.203	76.19
666.406	92.19
666.609	88.19
666.812	99.19
667.015	90.19
667.218	86.19
667.421	76.19
667.624	94.19
667.827	89.19
668.03	64.19
668.232	92.19
668.435	81.19
668.638	86.19
668.841	87.19
669.043	82.19
669.246	85.19
669.449	72.19
669.651	85.19
669.854	88.19
670.057	79.19
670.259	74.19
670.462	92.19
670.665	76.19
670.867	95.19
671.07	78.19
671.272	78.19
671.475	84.19
671.677	80.19
671.88	73.19
672.082	70.19
672.284	73.19
672.487	86.19
672.689	78.19
672.892	81.19
