Data from 0.5MCu(NO3)2.Standard.Lamp.E10.CV._HRD10591_16-03-58-754.txt Node
Date: Mon Jul 22 16:03:58 EDT 2019
User: cochatt
Spectrometer: HR+D1059
Trigger mode: 1
Integration Time (sec): 1.000000E-1
Scans to average: 1
Electric dark correction enabled: true
Nonlinearity correction enabled: false
Boxcar width: 0
XAxis mode: Wavelengths
Number of Pixels in Spectrum: 2048
>>>>>Begin Spectral Data<<<<<
223.165	-13.69
223.4	-13.69
223.635	-13.69
223.869	-16.69
224.104	-15.69
224.338	-6.69
224.573	-17.69
224.808	-7.69
225.042	-9.69
225.277	0.31
225.511	7.31
225.746	-4.69
225.98	-4.69
226.215	23.31
226.449	20.31
226.683	16.31
226.918	13.31
227.152	16.31
227.387	33.31
227.621	41.31
227.856	37.31
228.09	47.31
228.324	39.31
228.559	43.31
228.793	55.31
229.027	67.31
229.262	62.31
229.496	64.31
229.73	68.31
229.964	78.31
230.199	81.31
230.433	73.31
230.667	71.31
230.901	78.31
231.136	81.31
231.37	79.31
231.604	90.31
231.838	83.31
232.072	87.31
232.306	94.31
232.541	95.31
232.775	86.31
233.009	98.31
233.243	94.31
233.477	92.31
233.711	96.31
233.945	84.31
234.179	99.31
234.413	89.31
234.647	90.31
234.881	92.31
235.115	90.31
235.349	89.31
235.583	91.31
235.817	94.31
236.051	83.31
236.285	85.31
236.519	91.31
236.753	102.31
236.987	83.31
237.221	85.31
237.455	96.31
237.689	91.31
237.922	95.31
238.156	92.31
238.39	98.31
238.624	88.31
238.858	95.31
239.091	90.31
239.325	80.31
239.559	103.31
239.793	90.31
240.027	101.31
240.26	80.31
240.494	94.31
240.728	104.31
240.961	94.31
241.195	86.31
241.429	109.31
241.662	109.31
241.896	92.31
242.13	109.31
242.363	95.31
242.597	108.31
242.83	97.31
243.064	96.31
243.298	96.31
243.531	96.31
243.765	105.31
243.998	102.31
244.232	93.31
244.465	113.31
244.699	109.31
244.932	119.31
245.166	98.31
245.399	100.31
245.633	112.31
245.866	111.31
246.099	113.31
246.333	108.31
246.566	123.31
246.8	113.31
247.033	82.31
247.266	97.31
247.5	100.31
247.733	111.31
247.966	112.31
248.2	120.31
248.433	113.31
248.666	112.31
248.899	105.31
249.133	101.31
249.366	107.31
249.599	108.31
249.832	115.31
250.066	129.31
250.299	120.31
250.532	121.31
250.765	105.31
250.998	114.31
251.231	120.31
251.465	113.31
251.698	107.31
251.931	108.31
252.164	126.31
252.397	103.31
252.63	120.31
252.863	120.31
253.096	111.31
253.329	127.31
253.562	115.31
253.795	128.31
254.028	128.31
254.261	120.31
254.494	107.31
254.727	125.31
254.96	131.31
255.193	117.31
255.426	131.31
255.659	121.31
255.892	114.31
256.124	120.31
256.357	137.31
256.59	127.31
256.823	122.31
257.056	131.31
257.289	121.31
257.521	121.31
257.754	124.31
257.987	143.31
258.22	131.31
258.452	124.31
258.685	133.31
258.918	126.31
259.151	139.31
259.383	143.31
259.616	131.31
259.849	126.31
260.081	113.31
260.314	128.31
260.547	139.31
260.779	143.31
261.012	131.31
261.244	131.31
261.477	128.31
261.71	131.31
261.942	131.31
262.175	131.31
262.407	136.31
262.64	150.31
262.872	136.31
263.105	145.31
263.337	149.31
263.57	136.31
263.802	159.31
264.035	143.31
264.267	144.31
264.499	142.31
264.732	153.31
264.964	135.31
265.197	144.31
265.429	150.31
265.661	143.31
265.894	137.31
266.126	145.31
266.358	141.31
266.591	152.31
266.823	149.31
267.055	162.31
267.287	147.31
267.52	148.31
267.752	150.31
267.984	158.31
268.216	140.31
268.448	154.31
268.681	147.31
268.913	153.31
269.145	151.31
269.377	164.31
269.609	149.31
269.841	155.31
270.073	171.31
270.306	156.31
270.538	143.31
270.77	149.31
271.002	159.31
271.234	139.31
271.466	148.31
271.698	159.31
271.93	168.31
272.162	153.31
272.394	168.31
272.626	152.31
272.858	148.31
273.09	160.31
273.322	157.31
273.553	149.31
273.785	160.31
274.017	165.31
274.249	169.31
274.481	162.31
274.713	175.31
274.945	160.31
275.176	157.31
275.408	160.31
275.64	151.31
275.872	172.31
276.104	165.31
276.335	164.31
276.567	157.31
276.799	167.31
277.031	166.31
277.262	181.31
277.494	173.31
277.726	168.31
277.957	173.31
278.189	177.31
278.421	145.31
278.652	163.31
278.884	175.31
279.115	164.31
279.347	181.31
279.579	185.31
279.81	181.31
280.042	169.31
280.273	172.31
280.505	178.31
280.736	181.31
280.968	179.31
281.199	174.31
281.431	171.31
281.662	191.31
281.894	184.31
282.125	184.31
282.356	193.31
282.588	197.31
282.819	196.31
283.051	194.31
283.282	191.31
283.513	189.31
283.745	192.31
283.976	175.31
284.207	175.31
284.439	181.31
284.67	188.31
284.901	179.31
285.132	183.31
285.364	176.31
285.595	184.31
285.826	201.31
286.057	182.31
286.288	191.31
286.52	189.31
286.751	185.31
286.982	187.31
287.213	183.31
287.444	189.31
287.675	201.31
287.906	200.31
288.138	201.31
288.369	205.31
288.6	205.31
288.831	206.31
289.062	193.31
289.293	208.31
289.524	192.31
289.755	210.31
289.986	190.31
290.217	204.31
290.448	195.31
290.679	194.31
290.91	198.31
291.141	208.31
291.371	202.31
291.602	200.31
291.833	190.31
292.064	189.31
292.295	197.31
292.526	189.31
292.757	212.31
292.987	206.31
293.218	195.31
293.449	196.31
293.68	207.31
293.91	203.31
294.141	205.31
294.372	195.31
294.603	192.31
294.833	219.31
295.064	201.31
295.295	223.31
295.525	209.31
295.756	215.31
295.987	213.31
296.217	198.31
296.448	213.31
296.679	206.31
296.909	239.31
297.14	221.31
297.37	237.31
297.601	239.31
297.831	218.31
298.062	215.31
298.292	226.31
298.523	219.31
298.753	222.31
298.984	232.31
299.214	220.31
299.445	221.31
299.675	201.31
299.905	220.31
300.136	217.31
300.366	224.31
300.597	217.31
300.827	220.31
301.057	229.31
301.288	244.31
301.518	239.31
301.748	245.31
301.979	228.31
302.209	229.31
302.439	228.31
302.669	220.31
302.9	227.31
303.13	243.31
303.36	222.31
303.59	238.31
303.82	235.31
304.051	223.31
304.281	206.31
304.511	209.31
304.741	231.31
304.971	221.31
305.201	215.31
305.431	222.31
305.661	247.31
305.891	233.31
306.121	223.31
306.352	229.31
306.582	199.31
306.812	210.31
307.042	207.31
307.272	227.31
307.502	211.31
307.731	240.31
307.961	222.31
308.191	218.31
308.421	236.31
308.651	227.31
308.881	237.31
309.111	211.31
309.341	225.31
309.571	248.31
309.8	230.31
310.03	221.31
310.26	229.31
310.49	216.31
310.72	225.31
310.949	240.31
311.179	228.31
311.409	231.31
311.639	221.31
311.868	235.31
312.098	217.31
312.328	221.31
312.557	239.31
312.787	241.31
313.017	229.31
313.246	228.31
313.476	233.31
313.706	238.31
313.935	249.31
314.165	244.31
314.394	250.31
314.624	240.31
314.853	229.31
315.083	219.31
315.312	238.31
315.542	250.31
315.771	232.31
316.001	248.31
316.23	242.31
316.46	234.31
316.689	233.31
316.919	228.31
317.148	232.31
317.377	232.31
317.607	228.31
317.836	251.31
318.065	227.31
318.295	224.31
318.524	225.31
318.753	229.31
318.983	244.31
319.212	219.31
319.441	212.31
319.67	232.31
319.9	244.31
320.129	227.31
320.358	246.31
320.587	241.31
320.816	233.31
321.046	239.31
321.275	221.31
321.504	249.31
321.733	253.31
321.962	244.31
322.191	236.31
322.42	239.31
322.649	232.31
322.878	229.31
323.108	238.31
323.337	239.31
323.566	238.31
323.795	232.31
324.024	249.31
324.253	241.31
324.482	232.31
324.71	251.31
324.939	246.31
325.168	248.31
325.397	258.31
325.626	244.31
325.855	261.31
326.084	250.31
326.313	261.31
326.542	255.31
326.77	258.31
326.999	262.31
327.228	239.31
327.457	234.31
327.686	253.31
327.914	262.31
328.143	273.31
328.372	251.31
328.6	239.31
328.829	253.31
329.058	262.31
329.287	259.31
329.515	264.31
329.744	253.31
329.972	260.31
330.201	262.31
330.43	260.31
330.658	261.31
330.887	266.31
331.115	267.31
331.344	278.31
331.572	275.31
331.801	287.31
332.03	291.31
332.258	310.31
332.486	301.31
332.715	298.31
332.943	295.31
333.172	323.31
333.4	315.31
333.629	341.31
333.857	340.31
334.085	328.31
334.314	294.31
334.542	333.31
334.771	324.31
334.999	302.31
335.227	300.31
335.455	307.31
335.684	318.31
335.912	309.31
336.14	296.31
336.369	293.31
336.597	304.31
336.825	309.31
337.053	285.31
337.281	276.31
337.51	287.31
337.738	285.31
337.966	285.31
338.194	264.31
338.422	255.31
338.65	269.31
338.878	281.31
339.106	274.31
339.334	286.31
339.562	280.31
339.79	267.31
340.018	259.31
340.246	273.31
340.474	276.31
340.702	264.31
340.93	262.31
341.158	260.31
341.386	273.31
341.614	269.31
341.842	269.31
342.07	261.31
342.298	276.31
342.526	264.31
342.754	279.31
342.981	251.31
343.209	256.31
343.437	295.31
343.665	287.31
343.893	323.31
344.12	321.31
344.348	313.31
344.576	284.31
344.804	277.31
345.031	260.31
345.259	257.31
345.487	255.31
345.714	270.31
345.942	242.31
346.17	253.31
346.397	246.31
346.625	257.31
346.853	275.31
347.08	240.31
347.308	259.31
347.535	258.31
347.763	264.31
347.99	263.31
348.218	263.31
348.445	241.31
348.673	263.31
348.9	251.31
349.128	242.31
349.355	240.31
349.583	262.31
349.81	247.31
350.037	257.31
350.265	238.31
350.492	247.31
350.72	236.31
350.947	226.31
351.174	251.31
351.402	253.31
351.629	239.31
351.856	240.31
352.083	243.31
352.311	246.31
352.538	252.31
352.765	240.31
352.992	255.31
353.22	248.31
353.447	242.31
353.674	245.31
353.901	241.31
354.128	258.31
354.355	241.31
354.583	272.31
354.81	224.31
355.037	249.31
355.264	244.31
355.491	225.31
355.718	223.31
355.945	228.31
356.172	254.31
356.399	235.31
356.626	249.31
356.853	230.31
357.08	255.31
357.307	261.31
357.534	262.31
357.761	239.31
357.988	253.31
358.215	250.31
358.441	238.31
358.668	245.31
358.895	253.31
359.122	236.31
359.349	261.31
359.576	247.31
359.802	252.31
360.029	240.31
360.256	264.31
360.483	244.31
360.709	254.31
360.936	229.31
361.163	247.31
361.39	255.31
361.616	239.31
361.843	228.31
362.07	229.31
362.296	248.31
362.523	230.31
362.749	246.31
362.976	246.31
363.203	237.31
363.429	236.31
363.656	235.31
363.882	245.31
364.109	241.31
364.335	230.31
364.562	237.31
364.788	251.31
365.015	248.31
365.241	248.31
365.468	231.31
365.694	235.31
365.92	259.31
366.147	246.31
366.373	221.31
366.599	221.31
366.826	221.31
367.052	232.31
367.278	240.31
367.505	249.31
367.731	247.31
367.957	244.31
368.184	242.31
368.41	243.31
368.636	236.31
368.862	222.31
369.089	248.31
369.315	241.31
369.541	241.31
369.767	252.31
369.993	251.31
370.219	252.31
370.445	256.31
370.672	224.31
370.898	251.31
371.124	250.31
371.35	250.31
371.576	251.31
371.802	263.31
372.028	279.31
372.254	254.31
372.48	252.31
372.706	294.31
372.932	271.31
373.158	253.31
373.384	277.31
373.61	264.31
373.835	259.31
374.061	255.31
374.287	262.31
374.513	270.31
374.739	294.31
374.965	283.31
375.191	279.31
375.416	279.31
375.642	259.31
375.868	259.31
376.094	276.31
376.319	261.31
376.545	258.31
376.771	263.31
376.997	274.31
377.222	255.31
377.448	253.31
377.674	274.31
377.899	255.31
378.125	261.31
378.35	243.31
378.576	277.31
378.802	249.31
379.027	262.31
379.253	255.31
379.478	263.31
379.704	245.31
379.929	263.31
380.155	255.31
380.38	265.31
380.606	253.31
380.831	254.31
381.057	276.31
381.282	243.31
381.507	259.31
381.733	272.31
381.958	265.31
382.184	255.31
382.409	280.31
382.634	283.31
382.86	253.31
383.085	278.31
383.31	258.31
383.535	287.31
383.761	297.31
383.986	287.31
384.211	287.31
384.436	304.31
384.662	301.31
384.887	320.31
385.112	311.31
385.337	307.31
385.562	301.31
385.787	300.31
386.013	309.31
386.238	289.31
386.463	313.31
386.688	293.31
386.913	290.31
387.138	299.31
387.363	299.31
387.588	294.31
387.813	289.31
388.038	287.31
388.263	303.31
388.488	301.31
388.713	290.31
388.938	278.31
389.163	294.31
389.387	293.31
389.612	290.31
389.837	299.31
390.062	276.31
390.287	291.31
390.512	305.31
390.736	292.31
390.961	291.31
391.186	305.31
391.411	305.31
391.636	312.31
391.86	313.31
392.085	351.31
392.31	334.31
392.534	322.31
392.759	308.31
392.984	294.31
393.208	305.31
393.433	316.31
393.658	314.31
393.882	290.31
394.107	311.31
394.331	309.31
394.556	314.31
394.78	301.31
395.005	315.31
395.229	326.31
395.454	325.31
395.678	333.31
395.903	346.31
396.127	308.31
396.352	323.31
396.576	315.31
396.801	297.31
397.025	291.31
397.249	320.31
397.474	328.31
397.698	314.31
397.922	315.31
398.147	296.31
398.371	323.31
398.595	344.31
398.82	361.31
399.044	385.31
399.268	404.31
399.492	478.31
399.717	527.31
399.941	533.31
400.165	484.31
400.389	407.31
400.613	389.31
400.837	377.31
401.062	366.31
401.286	359.31
401.51	355.31
401.734	345.31
401.958	368.31
402.182	363.31
402.406	359.31
402.63	371.31
402.854	381.31
403.078	390.31
403.302	405.31
403.526	405.31
403.75	428.31
403.974	444.31
404.198	427.31
404.422	425.31
404.645	404.31
404.869	411.31
405.093	404.31
405.317	377.31
405.541	390.31
405.765	382.31
405.988	374.31
406.212	365.31
406.436	390.31
406.66	390.31
406.883	393.31
407.107	416.31
407.331	448.31
407.555	452.31
407.778	452.31
408.002	436.31
408.226	422.31
408.449	402.31
408.673	412.31
408.896	375.31
409.12	385.31
409.344	403.31
409.567	405.31
409.791	407.31
410.014	399.31
410.238	399.31
410.461	412.31
410.685	387.31
410.908	385.31
411.132	393.31
411.355	384.31
411.578	368.31
411.802	370.31
412.025	357.31
412.249	382.31
412.472	360.31
412.695	366.31
412.919	356.31
413.142	344.31
413.365	357.31
413.589	342.31
413.812	345.31
414.035	352.31
414.258	370.31
414.482	352.31
414.705	341.31
414.928	343.31
415.151	360.31
415.374	354.31
415.597	352.31
415.821	340.31
416.044	324.31
416.267	331.31
416.49	319.31
416.713	331.31
416.936	329.31
417.159	336.31
417.382	331.31
417.605	358.31
417.828	369.31
418.051	353.31
418.274	340.31
418.497	343.31
418.72	363.31
418.943	358.31
419.166	367.31
419.389	379.31
419.611	388.31
419.834	372.31
420.057	365.31
420.28	387.31
420.503	353.31
420.726	340.31
420.948	347.31
421.171	343.31
421.394	347.31
421.617	329.31
421.839	345.31
422.062	358.31
422.285	345.31
422.507	357.31
422.73	371.31
422.953	360.31
423.175	362.31
423.398	379.31
423.621	372.31
423.843	379.31
424.066	384.31
424.288	369.31
424.511	373.31
424.733	352.31
424.956	348.31
425.178	364.31
425.401	341.31
425.623	342.31
425.846	341.31
426.068	333.31
426.291	342.31
426.513	341.31
426.735	317.31
426.958	331.31
427.18	312.31
427.402	303.31
427.625	321.31
427.847	318.31
428.069	308.31
428.292	320.31
428.514	309.31
428.736	302.31
428.958	324.31
429.181	303.31
429.403	304.31
429.625	321.31
429.847	321.31
430.069	317.31
430.292	304.31
430.514	315.31
430.736	292.31
430.958	289.31
431.18	316.31
431.402	328.31
431.624	321.31
431.846	294.31
432.068	322.31
432.29	335.31
432.512	319.31
432.734	325.31
432.956	327.31
433.178	333.31
433.4	318.31
433.622	343.31
433.844	322.31
434.066	310.31
434.287	320.31
434.509	343.31
434.731	340.31
434.953	346.31
435.175	359.31
435.397	370.31
435.618	344.31
435.84	330.31
436.062	312.31
436.284	337.31
436.505	321.31
436.727	296.31
436.949	326.31
437.17	309.31
437.392	316.31
437.614	315.31
437.835	297.31
438.057	319.31
438.278	295.31
438.5	303.31
438.721	303.31
438.943	307.31
439.165	302.31
439.386	313.31
439.608	303.31
439.829	315.31
440.05	323.31
440.272	315.31
440.493	332.31
440.715	332.31
440.936	339.31
441.158	329.31
441.379	339.31
441.6	341.31
441.822	353.31
442.043	352.31
442.264	351.31
442.486	328.31
442.707	337.31
442.928	342.31
443.149	336.31
443.371	341.31
443.592	364.31
443.813	326.31
444.034	339.31
444.255	357.31
444.476	387.31
444.698	397.31
444.919	399.31
445.14	534.31
445.361	433.31
445.582	359.31
445.803	340.31
446.024	315.31
446.245	335.31
446.466	314.31
446.687	327.31
446.908	332.31
447.129	299.31
447.35	292.31
447.571	304.31
447.792	301.31
448.013	312.31
448.234	289.31
448.455	285.31
448.675	306.31
448.896	284.31
449.117	292.31
449.338	283.31
449.559	292.31
449.779	284.31
450	290.31
450.221	289.31
450.442	294.31
450.662	293.31
450.883	297.31
451.104	313.31
451.324	308.31
451.545	295.31
451.766	318.31
451.986	305.31
452.207	299.31
452.428	288.31
452.648	289.31
452.869	288.31
453.089	306.31
453.31	296.31
453.53	291.31
453.751	289.31
453.971	287.31
454.192	272.31
454.412	271.31
454.633	245.31
454.853	276.31
455.073	266.31
455.294	289.31
455.514	281.31
455.734	271.31
455.955	277.31
456.175	262.31
456.395	275.31
456.616	276.31
456.836	281.31
457.056	279.31
457.276	266.31
457.497	277.31
457.717	288.31
457.937	275.31
458.157	275.31
458.377	277.31
458.598	283.31
458.818	281.31
459.038	315.31
459.258	312.31
459.478	343.31
459.698	318.31
459.918	350.31
460.138	369.31
460.358	354.31
460.578	373.31
460.798	388.31
461.018	353.31
461.238	371.31
461.458	363.31
461.678	353.31
461.898	361.31
462.118	360.31
462.338	399.31
462.558	397.31
462.777	401.31
462.997	453.31
463.217	482.31
463.437	495.31
463.657	457.31
463.876	411.31
464.096	405.31
464.316	441.31
464.536	427.31
464.755	436.31
464.975	412.31
465.195	387.31
465.414	376.31
465.634	333.31
465.854	317.31
466.073	334.31
466.293	328.31
466.512	286.31
466.732	294.31
466.951	319.31
467.171	317.31
467.391	316.31
467.61	300.31
467.829	310.31
468.049	301.31
468.268	303.31
468.488	299.31
468.707	288.31
468.927	303.31
469.146	284.31
469.365	303.31
469.585	305.31
469.804	308.31
470.023	322.31
470.243	312.31
470.462	336.31
470.681	326.31
470.901	339.31
471.12	341.31
471.339	316.31
471.558	301.31
471.777	301.31
471.997	308.31
472.216	305.31
472.435	304.31
472.654	302.31
472.873	292.31
473.092	290.31
473.311	297.31
473.53	302.31
473.749	284.31
473.968	301.31
474.187	306.31
474.406	295.31
474.625	303.31
474.844	299.31
475.063	306.31
475.282	304.31
475.501	294.31
475.72	312.31
475.939	311.31
476.158	306.31
476.377	313.31
476.596	322.31
476.814	296.31
477.033	313.31
477.252	319.31
477.471	325.31
477.69	327.31
477.908	341.31
478.127	325.31
478.346	341.31
478.564	361.31
478.783	368.31
479.002	376.31
479.22	376.31
479.439	368.31
479.658	356.31
479.876	347.31
480.095	381.31
480.313	389.31
480.532	403.31
480.751	402.31
480.969	376.31
481.188	366.31
481.406	347.31
481.624	343.31
481.843	325.31
482.061	339.31
482.28	339.31
482.498	328.31
482.717	356.31
482.935	344.31
483.153	338.31
483.372	319.31
483.59	328.31
483.808	342.31
484.027	355.31
484.245	359.31
484.463	346.31
484.681	368.31
484.9	366.31
485.118	348.31
485.336	358.31
485.554	369.31
485.772	369.31
485.99	366.31
486.209	371.31
486.427	370.31
486.645	385.31
486.863	375.31
487.081	378.31
487.299	356.31
487.517	369.31
487.735	342.31
487.953	375.31
488.171	353.31
488.389	353.31
488.607	351.31
488.825	356.31
489.043	350.31
489.261	353.31
489.479	364.31
489.696	355.31
489.914	373.31
490.132	369.31
490.35	351.31
490.568	358.31
490.786	358.31
491.003	350.31
491.221	355.31
491.439	355.31
491.657	348.31
491.874	383.31
492.092	365.31
492.31	365.31
492.527	365.31
492.745	363.31
492.963	363.31
493.18	355.31
493.398	382.31
493.615	383.31
493.833	369.31
494.05	381.31
494.268	366.31
494.485	376.31
494.703	369.31
494.92	379.31
495.138	383.31
495.355	368.31
495.573	385.31
495.79	359.31
496.008	369.31
496.225	379.31
496.442	373.31
496.66	392.31
496.877	392.31
497.094	377.31
497.312	423.31
497.529	412.31
497.746	410.31
497.963	422.31
498.181	445.31
498.398	437.31
498.615	479.31
498.832	507.31
499.049	561.31
499.267	606.31
499.484	645.31
499.701	704.31
499.918	797.31
500.135	920.31
500.352	1055.31
500.569	1097.31
500.786	1147.31
501.003	986.31
501.22	917.31
501.437	811.31
501.654	685.31
501.871	608.31
502.088	573.31
502.305	546.31
502.522	501.31
502.739	503.31
502.956	467.31
503.172	443.31
503.389	431.31
503.606	440.31
503.823	423.31
504.04	403.31
504.256	432.31
504.473	452.31
504.69	478.31
504.907	471.31
505.123	410.31
505.34	387.31
505.557	373.31
505.773	377.31
505.99	363.31
506.207	360.31
506.423	365.31
506.64	345.31
506.856	355.31
507.073	347.31
507.289	332.31
507.506	335.31
507.722	347.31
507.939	359.31
508.155	333.31
508.372	335.31
508.588	340.31
508.805	312.31
509.021	325.31
509.238	302.31
509.454	312.31
509.67	321.31
509.887	321.31
510.103	308.31
510.319	333.31
510.536	335.31
510.752	314.31
510.968	297.31
511.184	313.31
511.401	322.31
511.617	329.31
511.833	328.31
512.049	326.31
512.265	328.31
512.481	320.31
512.698	327.31
512.914	312.31
513.13	312.31
513.346	301.31
513.562	330.31
513.778	312.31
513.994	339.31
514.21	325.31
514.426	315.31
514.642	316.31
514.858	309.31
515.074	327.31
515.29	331.31
515.506	331.31
515.721	337.31
515.937	332.31
516.153	339.31
516.369	351.31
516.585	374.31
516.801	361.31
517.016	397.31
517.232	419.31
517.448	425.31
517.664	442.31
517.879	457.31
518.095	457.31
518.311	438.31
518.527	417.31
518.742	390.31
518.958	393.31
519.173	352.31
519.389	358.31
519.605	346.31
519.82	352.31
520.036	316.31
520.251	325.31
520.467	327.31
520.682	348.31
520.898	316.31
521.113	323.31
521.329	323.31
521.544	320.31
521.76	310.31
521.975	312.31
522.19	317.31
522.406	316.31
522.621	305.31
522.836	309.31
523.052	315.31
523.267	306.31
523.482	312.31
523.698	294.31
523.913	295.31
524.128	308.31
524.343	283.31
524.559	305.31
524.774	302.31
524.989	297.31
525.204	299.31
525.419	305.31
525.634	311.31
525.849	282.31
526.064	296.31
526.28	290.31
526.495	312.31
526.71	287.31
526.925	295.31
527.14	290.31
527.355	288.31
527.57	287.31
527.785	280.31
527.999	290.31
528.214	313.31
528.429	307.31
528.644	318.31
528.859	310.31
529.074	300.31
529.289	303.31
529.503	289.31
529.718	307.31
529.933	308.31
530.148	294.31
530.363	293.31
530.577	289.31
530.792	295.31
531.007	301.31
531.221	307.31
531.436	294.31
531.651	308.31
531.865	291.31
532.08	312.31
532.295	302.31
532.509	277.31
532.724	315.31
532.938	293.31
533.153	288.31
533.367	312.31
533.582	301.31
533.796	295.31
534.011	294.31
534.225	301.31
534.44	295.31
534.654	311.31
534.868	305.31
535.083	290.31
535.297	303.31
535.511	292.31
535.726	293.31
535.94	278.31
536.154	293.31
536.369	261.31
536.583	292.31
536.797	280.31
537.011	270.31
537.225	275.31
537.44	281.31
537.654	293.31
537.868	271.31
538.082	281.31
538.296	275.31
538.51	284.31
538.724	261.31
538.938	297.31
539.153	279.31
539.367	281.31
539.581	277.31
539.795	277.31
540.009	271.31
540.222	288.31
540.436	284.31
540.65	286.31
540.864	279.31
541.078	274.31
541.292	272.31
541.506	280.31
541.72	276.31
541.934	291.31
542.147	270.31
542.361	291.31
542.575	250.31
542.789	288.31
543.002	257.31
543.216	277.31
543.43	280.31
543.644	276.31
543.857	278.31
544.071	300.31
544.285	284.31
544.498	277.31
544.712	271.31
544.925	280.31
545.139	268.31
545.352	278.31
545.566	286.31
545.779	277.31
545.993	271.31
546.206	283.31
546.42	279.31
546.633	288.31
546.847	299.31
547.06	282.31
547.274	287.31
547.487	284.31
547.7	280.31
547.914	291.31
548.127	285.31
548.34	287.31
548.554	283.31
548.767	288.31
548.98	293.31
549.193	295.31
549.407	299.31
549.62	304.31
549.833	300.31
550.046	306.31
550.259	298.31
550.473	270.31
550.686	279.31
550.899	283.31
551.112	292.31
551.325	271.31
551.538	271.31
551.751	274.31
551.964	281.31
552.177	271.31
552.39	283.31
552.603	296.31
552.816	305.31
553.029	301.31
553.242	315.31
553.455	310.31
553.667	320.31
553.88	296.31
554.093	312.31
554.306	302.31
554.519	294.31
554.732	287.31
554.944	297.31
555.157	275.31
555.37	293.31
555.583	275.31
555.795	288.31
556.008	249.31
556.221	253.31
556.433	269.31
556.646	259.31
556.859	255.31
557.071	252.31
557.284	279.31
557.496	263.31
557.709	260.31
557.921	247.31
558.134	242.31
558.346	252.31
558.559	256.31
558.771	237.31
558.984	249.31
559.196	257.31
559.409	248.31
559.621	256.31
559.833	244.31
560.046	251.31
560.258	249.31
560.47	251.31
560.683	238.31
560.895	236.31
561.107	251.31
561.32	242.31
561.532	248.31
561.744	252.31
561.956	240.31
562.168	238.31
562.381	241.31
562.593	247.31
562.805	255.31
563.017	244.31
563.229	255.31
563.441	254.31
563.653	252.31
563.865	240.31
564.077	243.31
564.289	271.31
564.501	271.31
564.713	257.31
564.925	258.31
565.137	242.31
565.349	265.31
565.561	282.31
565.773	287.31
565.985	308.31
566.197	319.31
566.408	339.31
566.62	369.31
566.832	387.31
567.044	401.31
567.255	407.31
567.467	417.31
567.679	414.31
567.891	461.31
568.102	486.31
568.314	444.31
568.526	413.31
568.737	365.31
568.949	331.31
569.161	311.31
569.372	302.31
569.584	281.31
569.795	279.31
570.007	275.31
570.218	262.31
570.43	250.31
570.641	249.31
570.853	251.31
571.064	261.31
571.276	273.31
571.487	263.31
571.698	248.31
571.91	228.31
572.121	244.31
572.333	239.31
572.544	219.31
572.755	233.31
572.966	240.31
573.178	221.31
573.389	221.31
573.6	218.31
573.811	211.31
574.023	213.31
574.234	198.31
574.445	215.31
574.656	236.31
574.867	218.31
575.078	222.31
575.289	217.31
575.501	211.31
575.712	225.31
575.923	213.31
576.134	228.31
576.345	217.31
576.556	216.31
576.767	211.31
576.978	205.31
577.188	198.31
577.399	212.31
577.61	219.31
577.821	202.31
578.032	215.31
578.243	196.31
578.454	205.31
578.665	221.31
578.875	205.31
579.086	192.31
579.297	205.31
579.508	202.31
579.718	193.31
579.929	207.31
580.14	188.31
580.35	189.31
580.561	197.31
580.772	195.31
580.982	182.31
581.193	193.31
581.403	208.31
581.614	196.31
581.825	203.31
582.035	196.31
582.246	192.31
582.456	191.31
582.667	203.31
582.877	201.31
583.087	205.31
583.298	182.31
583.508	183.31
583.719	198.31
583.929	194.31
584.139	181.31
584.35	198.31
584.56	207.31
584.77	183.31
584.981	190.31
585.191	183.31
585.401	189.31
585.611	196.31
585.821	210.31
586.032	200.31
586.242	197.31
586.452	194.31
586.662	197.31
586.872	194.31
587.082	197.31
587.292	190.31
587.502	184.31
587.713	193.31
587.923	204.31
588.133	191.31
588.343	186.31
588.553	190.31
588.762	196.31
588.972	193.31
589.182	190.31
589.392	198.31
589.602	191.31
589.812	185.31
590.022	203.31
590.232	191.31
590.441	192.31
590.651	198.31
590.861	191.31
591.071	200.31
591.281	181.31
591.49	195.31
591.7	216.31
591.91	210.31
592.119	208.31
592.329	235.31
592.539	221.31
592.748	231.31
592.958	222.31
593.167	223.31
593.377	246.31
593.587	232.31
593.796	236.31
594.006	250.31
594.215	253.31
594.424	230.31
594.634	247.31
594.843	229.31
595.053	210.31
595.262	218.31
595.472	223.31
595.681	212.31
595.89	198.31
596.1	199.31
596.309	173.31
596.518	180.31
596.727	188.31
596.937	185.31
597.146	189.31
597.355	183.31
597.564	187.31
597.774	195.31
597.983	162.31
598.192	180.31
598.401	167.31
598.61	174.31
598.819	166.31
599.028	173.31
599.237	169.31
599.446	173.31
599.655	164.31
599.864	187.31
600.073	179.31
600.282	172.31
600.491	196.31
600.7	178.31
600.909	176.31
601.118	163.31
601.327	173.31
601.536	162.31
601.745	153.31
601.953	166.31
602.162	171.31
602.371	173.31
602.58	160.31
602.789	175.31
602.997	165.31
603.206	150.31
603.415	166.31
603.623	157.31
603.832	170.31
604.041	179.31
604.249	159.31
604.458	178.31
604.666	166.31
604.875	163.31
605.084	152.31
605.292	166.31
605.501	175.31
605.709	180.31
605.918	155.31
606.126	159.31
606.334	174.31
606.543	171.31
606.751	169.31
606.96	168.31
607.168	159.31
607.376	159.31
607.585	173.31
607.793	179.31
608.001	157.31
608.21	163.31
608.418	167.31
608.626	162.31
608.834	151.31
609.043	158.31
609.251	161.31
609.459	166.31
609.667	155.31
609.875	168.31
610.083	158.31
610.291	159.31
610.499	162.31
610.707	147.31
610.916	166.31
611.124	149.31
611.332	157.31
611.54	179.31
611.748	155.31
611.955	168.31
612.163	151.31
612.371	167.31
612.579	150.31
612.787	161.31
612.995	158.31
613.203	158.31
613.411	163.31
613.618	167.31
613.826	155.31
614.034	156.31
614.242	162.31
614.449	163.31
614.657	160.31
614.865	163.31
615.072	155.31
615.28	172.31
615.488	162.31
615.695	168.31
615.903	164.31
616.111	173.31
616.318	157.31
616.526	169.31
616.733	162.31
616.941	171.31
617.148	158.31
617.356	171.31
617.563	162.31
617.771	159.31
617.978	168.31
618.185	153.31
618.393	155.31
618.6	171.31
618.807	160.31
619.015	171.31
619.222	164.31
619.429	145.31
619.637	168.31
619.844	159.31
620.051	150.31
620.258	169.31
620.466	163.31
620.673	155.31
620.88	141.31
621.087	149.31
621.294	167.31
621.501	149.31
621.708	157.31
621.915	143.31
622.122	138.31
622.329	149.31
622.536	133.31
622.743	141.31
622.95	163.31
623.157	144.31
623.364	141.31
623.571	143.31
623.778	137.31
623.985	145.31
624.192	145.31
624.399	157.31
624.606	146.31
624.812	155.31
625.019	142.31
625.226	165.31
625.433	155.31
625.639	143.31
625.846	144.31
626.053	149.31
626.259	147.31
626.466	146.31
626.673	138.31
626.879	133.31
627.086	142.31
627.293	147.31
627.499	135.31
627.706	147.31
627.912	151.31
628.119	135.31
628.325	148.31
628.532	142.31
628.738	132.31
628.945	134.31
629.151	130.31
629.357	134.31
629.564	119.31
629.77	157.31
629.976	129.31
630.183	128.31
630.389	126.31
630.595	159.31
630.802	127.31
631.008	134.31
631.214	131.31
631.42	132.31
631.627	134.31
631.833	133.31
632.039	132.31
632.245	123.31
632.451	119.31
632.657	132.31
632.863	141.31
633.069	139.31
633.275	125.31
633.481	140.31
633.688	129.31
633.893	131.31
634.099	141.31
634.305	139.31
634.511	135.31
634.717	133.31
634.923	122.31
635.129	134.31
635.335	124.31
635.541	133.31
635.747	145.31
635.952	120.31
636.158	130.31
636.364	119.31
636.57	120.31
636.775	125.31
636.981	128.31
637.187	147.31
637.392	127.31
637.598	118.31
637.804	127.31
638.009	125.31
638.215	129.31
638.421	117.31
638.626	141.31
638.832	124.31
639.037	138.31
639.243	131.31
639.448	127.31
639.654	134.31
639.859	129.31
640.065	120.31
640.27	120.31
640.475	117.31
640.681	115.31
640.886	121.31
641.091	118.31
641.297	119.31
641.502	136.31
641.707	128.31
641.913	116.31
642.118	121.31
642.323	110.31
642.528	129.31
642.733	137.31
642.939	128.31
643.144	120.31
643.349	122.31
643.554	137.31
643.759	115.31
643.964	117.31
644.169	133.31
644.374	129.31
644.579	123.31
644.784	127.31
644.989	123.31
645.194	122.31
645.399	131.31
645.604	121.31
645.809	122.31
646.014	119.31
646.219	116.31
646.423	132.31
646.628	129.31
646.833	128.31
647.038	126.31
647.243	114.31
647.447	119.31
647.652	131.31
647.857	124.31
648.062	134.31
648.266	141.31
648.471	120.31
648.676	122.31
648.88	135.31
649.085	129.31
649.289	117.31
649.494	133.31
649.698	128.31
649.903	120.31
650.107	120.31
650.312	114.31
650.516	111.31
650.721	109.31
650.925	129.31
651.13	132.31
651.334	128.31
651.539	122.31
651.743	113.31
651.947	131.31
652.152	120.31
652.356	115.31
652.56	111.31
652.764	121.31
652.969	93.31
653.173	104.31
653.377	108.31
653.581	111.31
653.785	115.31
653.99	116.31
654.194	104.31
654.398	99.31
654.602	111.31
654.806	104.31
655.01	110.31
655.214	111.31
655.418	108.31
655.622	112.31
655.826	110.31
656.03	100.31
656.234	113.31
656.438	119.31
656.642	119.31
656.846	121.31
657.049	119.31
657.253	111.31
657.457	104.31
657.661	98.31
657.865	96.31
658.068	91.31
658.272	110.31
658.476	85.31
658.68	96.31
658.883	86.31
659.087	95.31
659.291	99.31
659.494	101.31
659.698	87.31
659.901	84.31
660.105	89.31
660.309	79.31
660.512	79.31
660.716	84.31
660.919	73.31
661.123	75.31
661.326	88.31
661.53	93.31
661.733	79.31
661.936	67.31
662.14	76.31
662.343	92.31
662.546	85.31
662.75	92.31
662.953	89.31
663.156	87.31
663.36	78.31
663.563	77.31
663.766	79.31
663.969	72.31
664.173	79.31
664.376	76.31
664.579	55.31
664.782	86.31
664.985	91.31
665.188	74.31
665.391	65.31
665.594	75.31
665.797	71.31
666	88.31
666.203	83.31
666.406	71.31
666.609	78.31
666.812	77.31
667.015	79.31
667.218	73.31
667.421	77.31
667.624	85.31
667.827	78.31
668.03	89.31
668.232	80.31
668.435	65.31
668.638	85.31
668.841	70.31
669.043	76.31
669.246	88.31
669.449	72.31
669.651	78.31
669.854	89.31
670.057	90.31
670.259	90.31
670.462	76.31
670.665	65.31
670.867	72.31
671.07	75.31
671.272	83.31
671.475	74.31
671.677	83.31
671.88	65.31
672.082	73.31
672.284	83.31
672.487	70.31
672.689	63.31
672.892	68.31
