Data from 0.5MCu(NO3)2.Standard.Lamp.E10.CV._HRD10591_16-06-29-761.txt Node
Date: Mon Jul 22 16:06:29 EDT 2019
User: cochatt
Spectrometer: HR+D1059
Trigger mode: 1
Integration Time (sec): 1.000000E-1
Scans to average: 1
Electric dark correction enabled: true
Nonlinearity correction enabled: false
Boxcar width: 0
XAxis mode: Wavelengths
Number of Pixels in Spectrum: 2048
>>>>>Begin Spectral Data<<<<<
223.165	-9.69
223.4	-9.69
223.635	-9.69
223.869	-21.69
224.104	-17.69
224.338	-31.69
224.573	-7.69
224.808	-19.69
225.042	-13.69
225.277	-9.69
225.511	-10.69
225.746	3.31
225.98	12.31
226.215	22.31
226.449	22.31
226.683	28.31
226.918	20.31
227.152	33.31
227.387	35.31
227.621	32.31
227.856	39.31
228.09	53.31
228.324	52.31
228.559	42.31
228.793	69.31
229.027	67.31
229.262	60.31
229.496	60.31
229.73	77.31
229.964	74.31
230.199	69.31
230.433	85.31
230.667	83.31
230.901	80.31
231.136	86.31
231.37	86.31
231.604	72.31
231.838	76.31
232.072	77.31
232.306	98.31
232.541	93.31
232.775	94.31
233.009	85.31
233.243	88.31
233.477	78.31
233.711	77.31
233.945	96.31
234.179	100.31
234.413	91.31
234.647	99.31
234.881	75.31
235.115	94.31
235.349	81.31
235.583	86.31
235.817	80.31
236.051	84.31
236.285	83.31
236.519	90.31
236.753	88.31
236.987	86.31
237.221	86.31
237.455	94.31
237.689	97.31
237.922	91.31
238.156	84.31
238.39	91.31
238.624	101.31
238.858	94.31
239.091	80.31
239.325	85.31
239.559	97.31
239.793	98.31
240.027	95.31
240.26	114.31
240.494	102.31
240.728	88.31
240.961	81.31
241.195	86.31
241.429	101.31
241.662	79.31
241.896	99.31
242.13	97.31
242.363	86.31
242.597	105.31
242.83	86.31
243.064	86.31
243.298	105.31
243.531	92.31
243.765	101.31
243.998	100.31
244.232	94.31
244.465	92.31
244.699	97.31
244.932	96.31
245.166	100.31
245.399	96.31
245.633	98.31
245.866	94.31
246.099	112.31
246.333	101.31
246.566	105.31
246.8	100.31
247.033	100.31
247.266	80.31
247.5	97.31
247.733	83.31
247.966	98.31
248.2	101.31
248.433	97.31
248.666	106.31
248.899	109.31
249.133	112.31
249.366	107.31
249.599	94.31
249.832	90.31
250.066	99.31
250.299	99.31
250.532	105.31
250.765	105.31
250.998	107.31
251.231	92.31
251.465	88.31
251.698	103.31
251.931	105.31
252.164	104.31
252.397	91.31
252.63	109.31
252.863	114.31
253.096	109.31
253.329	117.31
253.562	101.31
253.795	112.31
254.028	101.31
254.261	120.31
254.494	112.31
254.727	113.31
254.96	108.31
255.193	114.31
255.426	103.31
255.659	107.31
255.892	114.31
256.124	118.31
256.357	105.31
256.59	109.31
256.823	106.31
257.056	118.31
257.289	121.31
257.521	111.31
257.754	100.31
257.987	112.31
258.22	107.31
258.452	109.31
258.685	117.31
258.918	113.31
259.151	120.31
259.383	132.31
259.616	111.31
259.849	119.31
260.081	119.31
260.314	107.31
260.547	103.31
260.779	115.31
261.012	117.31
261.244	109.31
261.477	124.31
261.71	115.31
261.942	113.31
262.175	126.31
262.407	101.31
262.64	104.31
262.872	119.31
263.105	114.31
263.337	122.31
263.57	123.31
263.802	114.31
264.035	105.31
264.267	124.31
264.499	115.31
264.732	119.31
264.964	106.31
265.197	114.31
265.429	107.31
265.661	124.31
265.894	124.31
266.126	125.31
266.358	122.31
266.591	127.31
266.823	125.31
267.055	125.31
267.287	138.31
267.52	120.31
267.752	128.31
267.984	118.31
268.216	125.31
268.448	130.31
268.681	129.31
268.913	126.31
269.145	124.31
269.377	134.31
269.609	128.31
269.841	134.31
270.073	126.31
270.306	136.31
270.538	122.31
270.77	135.31
271.002	122.31
271.234	126.31
271.466	133.31
271.698	130.31
271.93	131.31
272.162	132.31
272.394	147.31
272.626	126.31
272.858	113.31
273.09	132.31
273.322	136.31
273.553	133.31
273.785	128.31
274.017	128.31
274.249	131.31
274.481	117.31
274.713	125.31
274.945	134.31
275.176	132.31
275.408	141.31
275.64	129.31
275.872	137.31
276.104	142.31
276.335	152.31
276.567	139.31
276.799	129.31
277.031	128.31
277.262	130.31
277.494	129.31
277.726	122.31
277.957	139.31
278.189	133.31
278.421	149.31
278.652	136.31
278.884	133.31
279.115	140.31
279.347	133.31
279.579	122.31
279.81	150.31
280.042	132.31
280.273	149.31
280.505	146.31
280.736	139.31
280.968	128.31
281.199	139.31
281.431	136.31
281.662	152.31
281.894	135.31
282.125	142.31
282.356	136.31
282.588	142.31
282.819	140.31
283.051	148.31
283.282	136.31
283.513	149.31
283.745	152.31
283.976	155.31
284.207	145.31
284.439	140.31
284.67	132.31
284.901	133.31
285.132	144.31
285.364	145.31
285.595	135.31
285.826	145.31
286.057	142.31
286.288	146.31
286.52	160.31
286.751	173.31
286.982	160.31
287.213	152.31
287.444	161.31
287.675	168.31
287.906	149.31
288.138	152.31
288.369	152.31
288.6	149.31
288.831	158.31
289.062	157.31
289.293	158.31
289.524	150.31
289.755	166.31
289.986	163.31
290.217	154.31
290.448	148.31
290.679	155.31
290.91	165.31
291.141	181.31
291.371	163.31
291.602	156.31
291.833	144.31
292.064	164.31
292.295	147.31
292.526	161.31
292.757	151.31
292.987	160.31
293.218	168.31
293.449	167.31
293.68	150.31
293.91	169.31
294.141	160.31
294.372	161.31
294.603	162.31
294.833	164.31
295.064	150.31
295.295	162.31
295.525	171.31
295.756	157.31
295.987	173.31
296.217	169.31
296.448	160.31
296.679	161.31
296.909	157.31
297.14	174.31
297.37	186.31
297.601	170.31
297.831	156.31
298.062	172.31
298.292	186.31
298.523	182.31
298.753	160.31
298.984	173.31
299.214	176.31
299.445	163.31
299.675	179.31
299.905	177.31
300.136	176.31
300.366	160.31
300.597	178.31
300.827	187.31
301.057	160.31
301.288	171.31
301.518	189.31
301.748	167.31
301.979	169.31
302.209	167.31
302.439	182.31
302.669	170.31
302.9	168.31
303.13	161.31
303.36	166.31
303.59	159.31
303.82	178.31
304.051	165.31
304.281	172.31
304.511	175.31
304.741	173.31
304.971	176.31
305.201	169.31
305.431	173.31
305.661	173.31
305.891	180.31
306.121	147.31
306.352	162.31
306.582	177.31
306.812	162.31
307.042	164.31
307.272	156.31
307.502	171.31
307.731	168.31
307.961	163.31
308.191	165.31
308.421	189.31
308.651	188.31
308.881	163.31
309.111	147.31
309.341	170.31
309.571	164.31
309.8	193.31
310.03	172.31
310.26	165.31
310.49	178.31
310.72	168.31
310.949	164.31
311.179	160.31
311.409	156.31
311.639	168.31
311.868	203.31
312.098	177.31
312.328	177.31
312.557	177.31
312.787	176.31
313.017	181.31
313.246	196.31
313.476	193.31
313.706	190.31
313.935	181.31
314.165	182.31
314.394	164.31
314.624	177.31
314.853	194.31
315.083	174.31
315.312	188.31
315.542	172.31
315.771	178.31
316.001	165.31
316.23	178.31
316.46	180.31
316.689	167.31
316.919	174.31
317.148	169.31
317.377	176.31
317.607	169.31
317.836	168.31
318.065	163.31
318.295	185.31
318.524	184.31
318.753	156.31
318.983	173.31
319.212	173.31
319.441	174.31
319.67	186.31
319.9	171.31
320.129	168.31
320.358	187.31
320.587	179.31
320.816	168.31
321.046	184.31
321.275	178.31
321.504	185.31
321.733	167.31
321.962	164.31
322.191	168.31
322.42	184.31
322.649	172.31
322.878	190.31
323.108	184.31
323.337	179.31
323.566	185.31
323.795	180.31
324.024	171.31
324.253	182.31
324.482	176.31
324.71	190.31
324.939	180.31
325.168	191.31
325.397	187.31
325.626	161.31
325.855	184.31
326.084	195.31
326.313	169.31
326.542	199.31
326.77	184.31
326.999	192.31
327.228	188.31
327.457	182.31
327.686	198.31
327.914	195.31
328.143	190.31
328.372	202.31
328.6	207.31
328.829	192.31
329.058	187.31
329.287	169.31
329.515	177.31
329.744	192.31
329.972	182.31
330.201	197.31
330.43	178.31
330.658	188.31
330.887	196.31
331.115	195.31
331.344	201.31
331.572	186.31
331.801	191.31
332.03	201.31
332.258	206.31
332.486	202.31
332.715	209.31
332.943	230.31
333.172	219.31
333.4	225.31
333.629	234.31
333.857	236.31
334.085	228.31
334.314	236.31
334.542	230.31
334.771	232.31
334.999	215.31
335.227	209.31
335.455	213.31
335.684	223.31
335.912	217.31
336.14	199.31
336.369	224.31
336.597	215.31
336.825	227.31
337.053	216.31
337.281	205.31
337.51	214.31
337.738	207.31
337.966	204.31
338.194	205.31
338.422	208.31
338.65	198.31
338.878	195.31
339.106	205.31
339.334	186.31
339.562	180.31
339.79	188.31
340.018	189.31
340.246	182.31
340.474	194.31
340.702	188.31
340.93	191.31
341.158	188.31
341.386	200.31
341.614	210.31
341.842	191.31
342.07	190.31
342.298	198.31
342.526	196.31
342.754	182.31
342.981	186.31
343.209	189.31
343.437	177.31
343.665	209.31
343.893	214.31
344.12	232.31
344.348	220.31
344.576	211.31
344.804	220.31
345.031	194.31
345.259	217.31
345.487	200.31
345.714	178.31
345.942	197.31
346.17	187.31
346.397	197.31
346.625	186.31
346.853	194.31
347.08	174.31
347.308	194.31
347.535	197.31
347.763	202.31
347.99	186.31
348.218	183.31
348.445	191.31
348.673	191.31
348.9	192.31
349.128	181.31
349.355	204.31
349.583	193.31
349.81	189.31
350.037	181.31
350.265	166.31
350.492	186.31
350.72	183.31
350.947	172.31
351.174	184.31
351.402	179.31
351.629	169.31
351.856	191.31
352.083	190.31
352.311	183.31
352.538	176.31
352.765	189.31
352.992	186.31
353.22	181.31
353.447	177.31
353.674	184.31
353.901	187.31
354.128	194.31
354.355	184.31
354.583	182.31
354.81	172.31
355.037	173.31
355.264	192.31
355.491	182.31
355.718	179.31
355.945	192.31
356.172	169.31
356.399	191.31
356.626	177.31
356.853	184.31
357.08	213.31
357.307	186.31
357.534	184.31
357.761	170.31
357.988	189.31
358.215	170.31
358.441	182.31
358.668	180.31
358.895	174.31
359.122	184.31
359.349	184.31
359.576	191.31
359.802	186.31
360.029	185.31
360.256	174.31
360.483	186.31
360.709	160.31
360.936	182.31
361.163	184.31
361.39	180.31
361.616	165.31
361.843	183.31
362.07	179.31
362.296	185.31
362.523	189.31
362.749	179.31
362.976	180.31
363.203	171.31
363.429	193.31
363.656	192.31
363.882	188.31
364.109	184.31
364.335	173.31
364.562	184.31
364.788	174.31
365.015	186.31
365.241	188.31
365.468	177.31
365.694	182.31
365.92	197.31
366.147	190.31
366.373	168.31
366.599	182.31
366.826	189.31
367.052	189.31
367.278	184.31
367.505	178.31
367.731	184.31
367.957	199.31
368.184	192.31
368.41	185.31
368.636	189.31
368.862	196.31
369.089	184.31
369.315	197.31
369.541	174.31
369.767	174.31
369.993	196.31
370.219	186.31
370.445	201.31
370.672	192.31
370.898	192.31
371.124	205.31
371.35	186.31
371.576	179.31
371.802	193.31
372.028	190.31
372.254	196.31
372.48	200.31
372.706	196.31
372.932	209.31
373.158	196.31
373.384	203.31
373.61	183.31
373.835	202.31
374.061	194.31
374.287	181.31
374.513	193.31
374.739	190.31
374.965	223.31
375.191	206.31
375.416	203.31
375.642	202.31
375.868	206.31
376.094	191.31
376.319	192.31
376.545	182.31
376.771	210.31
376.997	220.31
377.222	193.31
377.448	188.31
377.674	180.31
377.899	181.31
378.125	189.31
378.35	180.31
378.576	195.31
378.802	183.31
379.027	179.31
379.253	187.31
379.478	179.31
379.704	178.31
379.929	177.31
380.155	173.31
380.38	202.31
380.606	181.31
380.831	184.31
381.057	206.31
381.282	210.31
381.507	195.31
381.733	186.31
381.958	210.31
382.184	182.31
382.409	197.31
382.634	209.31
382.86	201.31
383.085	199.31
383.31	197.31
383.535	204.31
383.761	209.31
383.986	227.31
384.211	214.31
384.436	208.31
384.662	204.31
384.887	214.31
385.112	234.31
385.337	221.31
385.562	220.31
385.787	228.31
386.013	221.31
386.238	203.31
386.463	218.31
386.688	213.31
386.913	219.31
387.138	212.31
387.363	213.31
387.588	210.31
387.813	217.31
388.038	206.31
388.263	222.31
388.488	226.31
388.713	218.31
388.938	200.31
389.163	201.31
389.387	219.31
389.612	211.31
389.837	215.31
390.062	210.31
390.287	209.31
390.512	193.31
390.736	199.31
390.961	236.31
391.186	232.31
391.411	222.31
391.636	235.31
391.86	235.31
392.085	243.31
392.31	242.31
392.534	225.31
392.759	228.31
392.984	221.31
393.208	232.31
393.433	209.31
393.658	228.31
393.882	228.31
394.107	212.31
394.331	208.31
394.556	207.31
394.78	230.31
395.005	221.31
395.229	228.31
395.454	224.31
395.678	245.31
395.903	235.31
396.127	225.31
396.352	217.31
396.576	210.31
396.801	221.31
397.025	227.31
397.249	218.31
397.474	236.31
397.698	230.31
397.922	222.31
398.147	240.31
398.371	251.31
398.595	248.31
398.82	237.31
399.044	241.31
399.268	280.31
399.492	339.31
399.717	353.31
399.941	353.31
400.165	327.31
400.389	265.31
400.613	256.31
400.837	245.31
401.062	252.31
401.286	250.31
401.51	240.31
401.734	264.31
401.958	257.31
402.182	248.31
402.406	250.31
402.63	270.31
402.854	268.31
403.078	280.31
403.302	281.31
403.526	262.31
403.75	278.31
403.974	302.31
404.198	300.31
404.422	281.31
404.645	293.31
404.869	265.31
405.093	268.31
405.317	290.31
405.541	288.31
405.765	268.31
405.988	268.31
406.212	264.31
406.436	274.31
406.66	264.31
406.883	274.31
407.107	321.31
407.331	318.31
407.555	314.31
407.778	307.31
408.002	296.31
408.226	307.31
408.449	296.31
408.673	279.31
408.896	285.31
409.12	277.31
409.344	270.31
409.567	288.31
409.791	292.31
410.014	279.31
410.238	284.31
410.461	290.31
410.685	274.31
410.908	264.31
411.132	273.31
411.355	253.31
411.578	246.31
411.802	258.31
412.025	263.31
412.249	276.31
412.472	264.31
412.695	237.31
412.919	250.31
413.142	275.31
413.365	257.31
413.589	234.31
413.812	252.31
414.035	247.31
414.258	249.31
414.482	229.31
414.705	267.31
414.928	275.31
415.151	238.31
415.374	260.31
415.597	243.31
415.821	257.31
416.044	243.31
416.267	234.31
416.49	242.31
416.713	251.31
416.936	258.31
417.159	245.31
417.382	243.31
417.605	250.31
417.828	233.31
418.051	266.31
418.274	253.31
418.497	250.31
418.72	253.31
418.943	257.31
419.166	258.31
419.389	275.31
419.611	274.31
419.834	275.31
420.057	235.31
420.28	251.31
420.503	254.31
420.726	263.31
420.948	256.31
421.171	273.31
421.394	258.31
421.617	244.31
421.839	239.31
422.062	251.31
422.285	230.31
422.507	251.31
422.73	264.31
422.953	272.31
423.175	268.31
423.398	258.31
423.621	270.31
423.843	284.31
424.066	248.31
424.288	265.31
424.511	261.31
424.733	243.31
424.956	258.31
425.178	257.31
425.401	241.31
425.623	252.31
425.846	234.31
426.068	252.31
426.291	260.31
426.513	235.31
426.735	256.31
426.958	238.31
427.18	235.31
427.402	248.31
427.625	216.31
427.847	234.31
428.069	216.31
428.292	227.31
428.514	224.31
428.736	212.31
428.958	228.31
429.181	220.31
429.403	228.31
429.625	219.31
429.847	224.31
430.069	204.31
430.292	232.31
430.514	228.31
430.736	225.31
430.958	219.31
431.18	212.31
431.402	220.31
431.624	237.31
431.846	246.31
432.068	227.31
432.29	228.31
432.512	231.31
432.734	232.31
432.956	218.31
433.178	233.31
433.4	227.31
433.622	241.31
433.844	238.31
434.066	232.31
434.287	228.31
434.509	247.31
434.731	233.31
434.953	243.31
435.175	248.31
435.397	242.31
435.618	216.31
435.84	204.31
436.062	247.31
436.284	231.31
436.505	236.31
436.727	234.31
436.949	250.31
437.17	225.31
437.392	225.31
437.614	227.31
437.835	203.31
438.057	236.31
438.278	232.31
438.5	217.31
438.721	238.31
438.943	215.31
439.165	237.31
439.386	232.31
439.608	221.31
439.829	226.31
440.05	235.31
440.272	229.31
440.493	222.31
440.715	242.31
440.936	240.31
441.158	228.31
441.379	244.31
441.6	243.31
441.822	245.31
442.043	253.31
442.264	245.31
442.486	224.31
442.707	250.31
442.928	253.31
443.149	243.31
443.371	253.31
443.592	249.31
443.813	271.31
444.034	247.31
444.255	282.31
444.476	271.31
444.698	291.31
444.919	285.31
445.14	349.31
445.361	312.31
445.582	253.31
445.803	244.31
446.024	234.31
446.245	241.31
446.466	243.31
446.687	222.31
446.908	226.31
447.129	225.31
447.35	229.31
447.571	239.31
447.792	211.31
448.013	227.31
448.234	215.31
448.455	230.31
448.675	222.31
448.896	227.31
449.117	232.31
449.338	222.31
449.559	219.31
449.779	235.31
450	216.31
450.221	205.31
450.442	220.31
450.662	204.31
450.883	200.31
451.104	226.31
451.324	220.31
451.545	231.31
451.766	232.31
451.986	214.31
452.207	214.31
452.428	217.31
452.648	224.31
452.869	214.31
453.089	225.31
453.31	206.31
453.53	205.31
453.751	210.31
453.971	209.31
454.192	217.31
454.412	189.31
454.633	201.31
454.853	195.31
455.073	205.31
455.294	214.31
455.514	219.31
455.734	197.31
455.955	194.31
456.175	208.31
456.395	184.31
456.616	188.31
456.836	203.31
457.056	200.31
457.276	188.31
457.497	198.31
457.717	192.31
457.937	217.31
458.157	216.31
458.377	218.31
458.598	215.31
458.818	206.31
459.038	207.31
459.258	231.31
459.478	240.31
459.698	227.31
459.918	254.31
460.138	253.31
460.358	254.31
460.578	268.31
460.798	257.31
461.018	262.31
461.238	257.31
461.458	253.31
461.678	283.31
461.898	261.31
462.118	249.31
462.338	262.31
462.558	290.31
462.777	297.31
462.997	301.31
463.217	325.31
463.437	359.31
463.657	316.31
463.876	303.31
464.096	307.31
464.316	292.31
464.536	298.31
464.755	276.31
464.975	279.31
465.195	274.31
465.414	240.31
465.634	245.31
465.854	232.31
466.073	228.31
466.293	244.31
466.512	227.31
466.732	223.31
466.951	215.31
467.171	238.31
467.391	206.31
467.61	233.31
467.829	214.31
468.049	213.31
468.268	217.31
468.488	213.31
468.707	215.31
468.927	205.31
469.146	213.31
469.365	222.31
469.585	223.31
469.804	235.31
470.023	227.31
470.243	249.31
470.462	218.31
470.681	244.31
470.901	239.31
471.12	216.31
471.339	232.31
471.558	214.31
471.777	226.31
471.997	214.31
472.216	216.31
472.435	228.31
472.654	206.31
472.873	212.31
473.092	225.31
473.311	210.31
473.53	231.31
473.749	228.31
473.968	223.31
474.187	187.31
474.406	192.31
474.625	210.31
474.844	198.31
475.063	214.31
475.282	202.31
475.501	224.31
475.72	214.31
475.939	215.31
476.158	210.31
476.377	228.31
476.596	229.31
476.814	220.31
477.033	208.31
477.252	233.31
477.471	240.31
477.69	225.31
477.908	233.31
478.127	257.31
478.346	255.31
478.564	258.31
478.783	249.31
479.002	258.31
479.22	264.31
479.439	257.31
479.658	242.31
479.876	273.31
480.095	264.31
480.313	267.31
480.532	266.31
480.751	290.31
480.969	262.31
481.188	253.31
481.406	245.31
481.624	236.31
481.843	220.31
482.061	234.31
482.28	254.31
482.498	233.31
482.717	229.31
482.935	240.31
483.153	256.31
483.372	228.31
483.59	238.31
483.808	247.31
484.027	250.31
484.245	252.31
484.463	243.31
484.681	250.31
484.9	246.31
485.118	245.31
485.336	251.31
485.554	241.31
485.772	250.31
485.99	259.31
486.209	256.31
486.427	250.31
486.645	268.31
486.863	241.31
487.081	266.31
487.299	245.31
487.517	244.31
487.735	259.31
487.953	268.31
488.171	259.31
488.389	252.31
488.607	257.31
488.825	261.31
489.043	271.31
489.261	261.31
489.479	255.31
489.696	240.31
489.914	260.31
490.132	256.31
490.35	253.31
490.568	271.31
490.786	261.31
491.003	256.31
491.221	254.31
491.439	245.31
491.657	260.31
491.874	260.31
492.092	264.31
492.31	248.31
492.527	250.31
492.745	277.31
492.963	247.31
493.18	268.31
493.398	279.31
493.615	268.31
493.833	269.31
494.05	253.31
494.268	265.31
494.485	261.31
494.703	274.31
494.92	280.31
495.138	268.31
495.355	264.31
495.573	260.31
495.79	256.31
496.008	257.31
496.225	276.31
496.442	260.31
496.66	273.31
496.877	268.31
497.094	289.31
497.312	269.31
497.529	275.31
497.746	284.31
497.963	289.31
498.181	286.31
498.398	310.31
498.615	324.31
498.832	339.31
499.049	381.31
499.267	393.31
499.484	420.31
499.701	477.31
499.918	512.31
500.135	578.31
500.352	670.31
500.569	682.31
500.786	717.31
501.003	634.31
501.22	573.31
501.437	501.31
501.654	457.31
501.871	422.31
502.088	376.31
502.305	361.31
502.522	346.31
502.739	351.31
502.956	320.31
503.172	314.31
503.389	295.31
503.606	306.31
503.823	288.31
504.04	300.31
504.256	295.31
504.473	306.31
504.69	312.31
504.907	301.31
505.123	281.31
505.34	265.31
505.557	284.31
505.773	259.31
505.99	256.31
506.207	266.31
506.423	253.31
506.64	253.31
506.856	262.31
507.073	250.31
507.289	253.31
507.506	254.31
507.722	249.31
507.939	252.31
508.155	249.31
508.372	235.31
508.588	222.31
508.805	238.31
509.021	243.31
509.238	244.31
509.454	228.31
509.67	226.31
509.887	237.31
510.103	220.31
510.319	227.31
510.536	223.31
510.752	215.31
510.968	218.31
511.184	217.31
511.401	231.31
511.617	231.31
511.833	206.31
512.049	219.31
512.265	232.31
512.481	233.31
512.698	240.31
512.914	226.31
513.13	244.31
513.346	220.31
513.562	235.31
513.778	229.31
513.994	212.31
514.21	224.31
514.426	231.31
514.642	215.31
514.858	221.31
515.074	241.31
515.29	220.31
515.506	230.31
515.721	235.31
515.937	234.31
516.153	256.31
516.369	226.31
516.585	245.31
516.801	258.31
517.016	272.31
517.232	278.31
517.448	290.31
517.664	303.31
517.879	321.31
518.095	302.31
518.311	298.31
518.527	291.31
518.742	289.31
518.958	260.31
519.173	275.31
519.389	249.31
519.605	245.31
519.82	235.31
520.036	246.31
520.251	230.31
520.467	227.31
520.682	243.31
520.898	242.31
521.113	225.31
521.329	225.31
521.544	224.31
521.76	241.31
521.975	215.31
522.19	221.31
522.406	217.31
522.621	211.31
522.836	220.31
523.052	219.31
523.267	213.31
523.482	214.31
523.698	235.31
523.913	225.31
524.128	227.31
524.343	229.31
524.559	226.31
524.774	222.31
524.989	220.31
525.204	213.31
525.419	205.31
525.634	213.31
525.849	235.31
526.064	223.31
526.28	219.31
526.495	214.31
526.71	230.31
526.925	205.31
527.14	219.31
527.355	229.31
527.57	213.31
527.785	205.31
527.999	210.31
528.214	212.31
528.429	229.31
528.644	212.31
528.859	202.31
529.074	204.31
529.289	211.31
529.503	230.31
529.718	206.31
529.933	225.31
530.148	219.31
530.363	228.31
530.577	220.31
530.792	224.31
531.007	225.31
531.221	218.31
531.436	212.31
531.651	217.31
531.865	211.31
532.08	211.31
532.295	228.31
532.509	214.31
532.724	245.31
532.938	242.31
533.153	212.31
533.367	228.31
533.582	209.31
533.796	206.31
534.011	218.31
534.225	203.31
534.44	214.31
534.654	212.31
534.868	211.31
535.083	215.31
535.297	218.31
535.511	230.31
535.726	213.31
535.94	222.31
536.154	200.31
536.369	191.31
536.583	202.31
536.797	197.31
537.011	203.31
537.225	196.31
537.44	197.31
537.654	193.31
537.868	219.31
538.082	208.31
538.296	206.31
538.51	223.31
538.724	198.31
538.938	199.31
539.153	228.31
539.367	198.31
539.581	213.31
539.795	216.31
540.009	202.31
540.222	212.31
540.436	196.31
540.65	209.31
540.864	214.31
541.078	202.31
541.292	201.31
541.506	198.31
541.72	200.31
541.934	203.31
542.147	214.31
542.361	202.31
542.575	190.31
542.789	205.31
543.002	215.31
543.216	206.31
543.43	204.31
543.644	193.31
543.857	201.31
544.071	195.31
544.285	218.31
544.498	208.31
544.712	205.31
544.925	203.31
545.139	196.31
545.352	217.31
545.566	221.31
545.779	208.31
545.993	216.31
546.206	203.31
546.42	204.31
546.633	209.31
546.847	208.31
547.06	220.31
547.274	208.31
547.487	209.31
547.7	217.31
547.914	194.31
548.127	226.31
548.34	219.31
548.554	220.31
548.767	196.31
548.98	202.31
549.193	198.31
549.407	194.31
549.62	205.31
549.833	228.31
550.046	220.31
550.259	209.31
550.473	202.31
550.686	212.31
550.899	206.31
551.112	211.31
551.325	199.31
551.538	200.31
551.751	197.31
551.964	196.31
552.177	211.31
552.39	219.31
552.603	225.31
552.816	206.31
553.029	220.31
553.242	233.31
553.455	228.31
553.667	231.31
553.88	230.31
554.093	225.31
554.306	223.31
554.519	201.31
554.732	213.31
554.944	212.31
555.157	206.31
555.37	205.31
555.583	203.31
555.795	213.31
556.008	188.31
556.221	197.31
556.433	176.31
556.646	198.31
556.859	189.31
557.071	191.31
557.284	203.31
557.496	189.31
557.709	194.31
557.921	198.31
558.134	185.31
558.346	197.31
558.559	189.31
558.771	177.31
558.984	178.31
559.196	197.31
559.409	184.31
559.621	174.31
559.833	195.31
560.046	188.31
560.258	189.31
560.47	203.31
560.683	190.31
560.895	179.31
561.107	185.31
561.32	189.31
561.532	186.31
561.744	184.31
561.956	181.31
562.168	181.31
562.381	189.31
562.593	184.31
562.805	190.31
563.017	197.31
563.229	180.31
563.441	187.31
563.653	182.31
563.865	182.31
564.077	174.31
564.289	181.31
564.501	195.31
564.713	200.31
564.925	188.31
565.137	188.31
565.349	195.31
565.561	221.31
565.773	204.31
565.985	225.31
566.197	230.31
566.408	246.31
566.62	258.31
566.832	269.31
567.044	264.31
567.255	273.31
567.467	266.31
567.679	291.31
567.891	338.31
568.102	315.31
568.314	302.31
568.526	295.31
568.737	266.31
568.949	244.31
569.161	243.31
569.372	205.31
569.584	204.31
569.795	207.31
570.007	197.31
570.218	207.31
570.43	186.31
570.641	195.31
570.853	171.31
571.064	189.31
571.276	206.31
571.487	189.31
571.698	189.31
571.91	170.31
572.121	184.31
572.333	172.31
572.544	187.31
572.755	158.31
572.966	164.31
573.178	176.31
573.389	187.31
573.6	181.31
573.811	163.31
574.023	158.31
574.234	154.31
574.445	161.31
574.656	172.31
574.867	172.31
575.078	179.31
575.289	166.31
575.501	180.31
575.712	158.31
575.923	163.31
576.134	159.31
576.345	167.31
576.556	173.31
576.767	166.31
576.978	163.31
577.188	162.31
577.399	160.31
577.61	172.31
577.821	165.31
578.032	170.31
578.243	153.31
578.454	157.31
578.665	168.31
578.875	173.31
579.086	155.31
579.297	148.31
579.508	140.31
579.718	160.31
579.929	160.31
580.14	162.31
580.35	166.31
580.561	155.31
580.772	141.31
580.982	153.31
581.193	143.31
581.403	151.31
581.614	158.31
581.825	162.31
582.035	150.31
582.246	156.31
582.456	153.31
582.667	152.31
582.877	153.31
583.087	170.31
583.298	152.31
583.508	157.31
583.719	154.31
583.929	157.31
584.139	139.31
584.35	151.31
584.56	165.31
584.77	164.31
584.981	144.31
585.191	153.31
585.401	146.31
585.611	158.31
585.821	155.31
586.032	157.31
586.242	155.31
586.452	148.31
586.662	149.31
586.872	145.31
587.082	151.31
587.292	138.31
587.502	157.31
587.713	152.31
587.923	142.31
588.133	154.31
588.343	148.31
588.553	151.31
588.762	160.31
588.972	150.31
589.182	152.31
589.392	142.31
589.602	148.31
589.812	155.31
590.022	164.31
590.232	165.31
590.441	154.31
590.651	157.31
590.861	159.31
591.071	157.31
591.281	168.31
591.49	156.31
591.7	155.31
591.91	166.31
592.119	150.31
592.329	151.31
592.539	170.31
592.748	186.31
592.958	164.31
593.167	183.31
593.377	164.31
593.587	194.31
593.796	172.31
594.006	188.31
594.215	182.31
594.424	181.31
594.634	173.31
594.843	177.31
595.053	171.31
595.262	149.31
595.472	147.31
595.681	173.31
595.89	155.31
596.1	151.31
596.309	160.31
596.518	156.31
596.727	147.31
596.937	148.31
597.146	159.31
597.355	128.31
597.564	161.31
597.774	149.31
597.983	135.31
598.192	150.31
598.401	140.31
598.61	147.31
598.819	145.31
599.028	162.31
599.237	145.31
599.446	140.31
599.655	138.31
599.864	139.31
600.073	150.31
600.282	145.31
600.491	138.31
600.7	152.31
600.909	148.31
601.118	136.31
601.327	148.31
601.536	146.31
601.745	130.31
601.953	122.31
602.162	142.31
602.371	144.31
602.58	148.31
602.789	142.31
602.997	118.31
603.206	138.31
603.415	133.31
603.623	136.31
603.832	142.31
604.041	133.31
604.249	150.31
604.458	135.31
604.666	130.31
604.875	139.31
605.084	138.31
605.292	132.31
605.501	140.31
605.709	145.31
605.918	140.31
606.126	143.31
606.334	154.31
606.543	134.31
606.751	140.31
606.96	135.31
607.168	132.31
607.376	124.31
607.585	120.31
607.793	123.31
608.001	132.31
608.21	144.31
608.418	140.31
608.626	133.31
608.834	136.31
609.043	135.31
609.251	135.31
609.459	130.31
609.667	124.31
609.875	142.31
610.083	124.31
610.291	146.31
610.499	142.31
610.707	145.31
610.916	129.31
611.124	130.31
611.332	146.31
611.54	125.31
611.748	125.31
611.955	146.31
612.163	136.31
612.371	133.31
612.579	141.31
612.787	138.31
612.995	133.31
613.203	136.31
613.411	135.31
613.618	132.31
613.826	121.31
614.034	133.31
614.242	118.31
614.449	137.31
614.657	133.31
614.865	134.31
615.072	131.31
615.28	144.31
615.488	133.31
615.695	144.31
615.903	151.31
616.111	125.31
616.318	130.31
616.526	144.31
616.733	126.31
616.941	152.31
617.148	132.31
617.356	135.31
617.563	145.31
617.771	142.31
617.978	130.31
618.185	133.31
618.393	139.31
618.6	132.31
618.807	134.31
619.015	154.31
619.222	128.31
619.429	136.31
619.637	142.31
619.844	120.31
620.051	132.31
620.258	143.31
620.466	140.31
620.673	128.31
620.88	131.31
621.087	125.31
621.294	116.31
621.501	134.31
621.708	123.31
621.915	128.31
622.122	117.31
622.329	115.31
622.536	119.31
622.743	117.31
622.95	112.31
623.157	134.31
623.364	133.31
623.571	128.31
623.778	133.31
623.985	133.31
624.192	124.31
624.399	123.31
624.606	127.31
624.812	123.31
625.019	105.31
625.226	123.31
625.433	119.31
625.639	134.31
625.846	122.31
626.053	121.31
626.259	128.31
626.466	117.31
626.673	120.31
626.879	120.31
627.086	118.31
627.293	124.31
627.499	117.31
627.706	121.31
627.912	117.31
628.119	126.31
628.325	130.31
628.532	131.31
628.738	110.31
628.945	132.31
629.151	129.31
629.357	102.31
629.564	114.31
629.77	125.31
629.976	116.31
630.183	117.31
630.389	117.31
630.595	130.31
630.802	124.31
631.008	118.31
631.214	128.31
631.42	127.31
631.627	117.31
631.833	117.31
632.039	108.31
632.245	126.31
632.451	117.31
632.657	128.31
632.863	118.31
633.069	111.31
633.275	120.31
633.481	132.31
633.688	125.31
633.893	125.31
634.099	100.31
634.305	111.31
634.511	109.31
634.717	107.31
634.923	129.31
635.129	116.31
635.335	113.31
635.541	106.31
635.747	129.31
635.952	109.31
636.158	110.31
636.364	120.31
636.57	121.31
636.775	120.31
636.981	114.31
637.187	103.31
637.392	102.31
637.598	105.31
637.804	105.31
638.009	122.31
638.215	117.31
638.421	105.31
638.626	109.31
638.832	116.31
639.037	108.31
639.243	98.31
639.448	111.31
639.654	109.31
639.859	106.31
640.065	114.31
640.27	126.31
640.475	113.31
640.681	102.31
640.886	122.31
641.091	118.31
641.297	121.31
641.502	104.31
641.707	118.31
641.913	116.31
642.118	105.31
642.323	100.31
642.528	123.31
642.733	114.31
642.939	125.31
643.144	99.31
643.349	107.31
643.554	118.31
643.759	117.31
643.964	126.31
644.169	113.31
644.374	118.31
644.579	114.31
644.784	105.31
644.989	108.31
645.194	122.31
645.399	121.31
645.604	105.31
645.809	105.31
646.014	110.31
646.219	113.31
646.423	116.31
646.628	117.31
646.833	112.31
647.038	123.31
647.243	109.31
647.447	117.31
647.652	113.31
647.857	113.31
648.062	129.31
648.266	108.31
648.471	111.31
648.676	122.31
648.88	111.31
649.085	123.31
649.289	121.31
649.494	117.31
649.698	108.31
649.903	119.31
650.107	116.31
650.312	109.31
650.516	110.31
650.721	114.31
650.925	110.31
651.13	114.31
651.334	116.31
651.539	110.31
651.743	121.31
651.947	115.31
652.152	100.31
652.356	97.31
652.56	100.31
652.764	101.31
652.969	121.31
653.173	96.31
653.377	87.31
653.581	100.31
653.785	102.31
653.99	109.31
654.194	103.31
654.398	99.31
654.602	101.31
654.806	87.31
655.01	115.31
655.214	108.31
655.418	112.31
655.622	98.31
655.826	106.31
656.03	105.31
656.234	115.31
656.438	121.31
656.642	108.31
656.846	103.31
657.049	105.31
657.253	93.31
657.457	87.31
657.661	104.31
657.865	88.31
658.068	93.31
658.272	93.31
658.476	87.31
658.68	101.31
658.883	74.31
659.087	78.31
659.291	92.31
659.494	100.31
659.698	83.31
659.901	87.31
660.105	91.31
660.309	98.31
660.512	82.31
660.716	91.31
660.919	77.31
661.123	87.31
661.326	96.31
661.53	86.31
661.733	93.31
661.936	78.31
662.14	84.31
662.343	87.31
662.546	83.31
662.75	82.31
662.953	91.31
663.156	85.31
663.36	94.31
663.563	84.31
663.766	77.31
663.969	74.31
664.173	83.31
664.376	89.31
664.579	100.31
664.782	87.31
664.985	84.31
665.188	69.31
665.391	72.31
665.594	78.31
665.797	85.31
666	85.31
666.203	82.31
666.406	82.31
666.609	84.31
666.812	90.31
667.015	94.31
667.218	101.31
667.421	97.31
667.624	84.31
667.827	90.31
668.03	83.31
668.232	87.31
668.435	95.31
668.638	88.31
668.841	90.31
669.043	81.31
669.246	80.31
669.449	91.31
669.651	86.31
669.854	90.31
670.057	93.31
670.259	84.31
670.462	88.31
670.665	58.31
670.867	94.31
671.07	77.31
671.272	74.31
671.475	74.31
671.677	81.31
671.88	71.31
672.082	84.31
672.284	96.31
672.487	85.31
672.689	75.31
672.892	77.31
