Data from 0.5MCu(NO3)2.Standard.Lamp.E10.CV._HRD10591_16-04-28-753.txt Node
Date: Mon Jul 22 16:04:28 EDT 2019
User: cochatt
Spectrometer: HR+D1059
Trigger mode: 1
Integration Time (sec): 1.000000E-1
Scans to average: 1
Electric dark correction enabled: true
Nonlinearity correction enabled: false
Boxcar width: 0
XAxis mode: Wavelengths
Number of Pixels in Spectrum: 2048
>>>>>Begin Spectral Data<<<<<
223.165	-27.69
223.4	-27.69
223.635	-27.69
223.869	-23.69
224.104	-10.69
224.338	-6.69
224.573	-10.69
224.808	-10.69
225.042	-10.69
225.277	-18.69
225.511	-5.69
225.746	-0.69
225.98	11.31
226.215	13.31
226.449	9.31
226.683	23.31
226.918	39.31
227.152	29.31
227.387	32.31
227.621	42.31
227.856	44.31
228.09	44.31
228.324	51.31
228.559	58.31
228.793	37.31
229.027	78.31
229.262	70.31
229.496	84.31
229.73	75.31
229.964	84.31
230.199	70.31
230.433	84.31
230.667	72.31
230.901	93.31
231.136	80.31
231.37	97.31
231.604	86.31
231.838	76.31
232.072	90.31
232.306	91.31
232.541	96.31
232.775	90.31
233.009	91.31
233.243	95.31
233.477	98.31
233.711	80.31
233.945	88.31
234.179	93.31
234.413	95.31
234.647	95.31
234.881	82.31
235.115	77.31
235.349	91.31
235.583	88.31
235.817	91.31
236.051	91.31
236.285	90.31
236.519	83.31
236.753	88.31
236.987	89.31
237.221	96.31
237.455	100.31
237.689	88.31
237.922	89.31
238.156	89.31
238.39	96.31
238.624	86.31
238.858	82.31
239.091	98.31
239.325	88.31
239.559	88.31
239.793	93.31
240.027	90.31
240.26	82.31
240.494	90.31
240.728	84.31
240.961	92.31
241.195	102.31
241.429	102.31
241.662	97.31
241.896	86.31
242.13	91.31
242.363	89.31
242.597	99.31
242.83	96.31
243.064	93.31
243.298	101.31
243.531	104.31
243.765	106.31
243.998	106.31
244.232	105.31
244.465	88.31
244.699	100.31
244.932	101.31
245.166	94.31
245.399	98.31
245.633	90.31
245.866	99.31
246.099	98.31
246.333	98.31
246.566	112.31
246.8	105.31
247.033	101.31
247.266	102.31
247.5	99.31
247.733	105.31
247.966	102.31
248.2	112.31
248.433	116.31
248.666	88.31
248.899	94.31
249.133	112.31
249.366	114.31
249.599	105.31
249.832	101.31
250.066	104.31
250.299	98.31
250.532	106.31
250.765	110.31
250.998	103.31
251.231	106.31
251.465	105.31
251.698	99.31
251.931	108.31
252.164	123.31
252.397	101.31
252.63	107.31
252.863	115.31
253.096	104.31
253.329	120.31
253.562	109.31
253.795	124.31
254.028	119.31
254.261	91.31
254.494	100.31
254.727	117.31
254.96	112.31
255.193	112.31
255.426	120.31
255.659	119.31
255.892	120.31
256.124	107.31
256.357	118.31
256.59	114.31
256.823	108.31
257.056	109.31
257.289	124.31
257.521	108.31
257.754	121.31
257.987	116.31
258.22	121.31
258.452	112.31
258.685	113.31
258.918	103.31
259.151	120.31
259.383	122.31
259.616	114.31
259.849	121.31
260.081	120.31
260.314	109.31
260.547	121.31
260.779	131.31
261.012	109.31
261.244	124.31
261.477	128.31
261.71	116.31
261.942	115.31
262.175	106.31
262.407	124.31
262.64	128.31
262.872	119.31
263.105	107.31
263.337	115.31
263.57	118.31
263.802	122.31
264.035	129.31
264.267	112.31
264.499	129.31
264.732	124.31
264.964	127.31
265.197	129.31
265.429	144.31
265.661	123.31
265.894	129.31
266.126	121.31
266.358	108.31
266.591	108.31
266.823	115.31
267.055	122.31
267.287	125.31
267.52	125.31
267.752	123.31
267.984	132.31
268.216	132.31
268.448	130.31
268.681	133.31
268.913	127.31
269.145	134.31
269.377	137.31
269.609	128.31
269.841	136.31
270.073	132.31
270.306	133.31
270.538	120.31
270.77	130.31
271.002	130.31
271.234	125.31
271.466	139.31
271.698	128.31
271.93	138.31
272.162	131.31
272.394	136.31
272.626	140.31
272.858	136.31
273.09	141.31
273.322	123.31
273.553	141.31
273.785	144.31
274.017	139.31
274.249	128.31
274.481	136.31
274.713	128.31
274.945	138.31
275.176	140.31
275.408	150.31
275.64	149.31
275.872	124.31
276.104	140.31
276.335	140.31
276.567	132.31
276.799	129.31
277.031	125.31
277.262	142.31
277.494	135.31
277.726	153.31
277.957	157.31
278.189	137.31
278.421	140.31
278.652	148.31
278.884	148.31
279.115	134.31
279.347	146.31
279.579	139.31
279.81	138.31
280.042	152.31
280.273	152.31
280.505	145.31
280.736	155.31
280.968	142.31
281.199	144.31
281.431	143.31
281.662	150.31
281.894	141.31
282.125	142.31
282.356	139.31
282.588	157.31
282.819	154.31
283.051	145.31
283.282	164.31
283.513	158.31
283.745	157.31
283.976	151.31
284.207	163.31
284.439	146.31
284.67	140.31
284.901	147.31
285.132	145.31
285.364	153.31
285.595	149.31
285.826	150.31
286.057	152.31
286.288	155.31
286.52	148.31
286.751	147.31
286.982	162.31
287.213	154.31
287.444	148.31
287.675	155.31
287.906	153.31
288.138	168.31
288.369	162.31
288.6	142.31
288.831	158.31
289.062	151.31
289.293	143.31
289.524	168.31
289.755	146.31
289.986	162.31
290.217	166.31
290.448	154.31
290.679	161.31
290.91	170.31
291.141	183.31
291.371	164.31
291.602	168.31
291.833	143.31
292.064	166.31
292.295	165.31
292.526	162.31
292.757	162.31
292.987	177.31
293.218	159.31
293.449	169.31
293.68	158.31
293.91	166.31
294.141	160.31
294.372	152.31
294.603	166.31
294.833	158.31
295.064	150.31
295.295	158.31
295.525	161.31
295.756	159.31
295.987	176.31
296.217	156.31
296.448	155.31
296.679	161.31
296.909	159.31
297.14	158.31
297.37	192.31
297.601	175.31
297.831	165.31
298.062	170.31
298.292	175.31
298.523	180.31
298.753	190.31
298.984	181.31
299.214	189.31
299.445	193.31
299.675	169.31
299.905	169.31
300.136	174.31
300.366	183.31
300.597	162.31
300.827	175.31
301.057	173.31
301.288	184.31
301.518	170.31
301.748	184.31
301.979	188.31
302.209	161.31
302.439	179.31
302.669	176.31
302.9	178.31
303.13	188.31
303.36	196.31
303.59	179.31
303.82	173.31
304.051	170.31
304.281	177.31
304.511	180.31
304.741	183.31
304.971	177.31
305.201	179.31
305.431	164.31
305.661	189.31
305.891	173.31
306.121	157.31
306.352	174.31
306.582	166.31
306.812	165.31
307.042	161.31
307.272	173.31
307.502	182.31
307.731	176.31
307.961	189.31
308.191	186.31
308.421	178.31
308.651	189.31
308.881	182.31
309.111	178.31
309.341	167.31
309.571	184.31
309.8	169.31
310.03	193.31
310.26	161.31
310.49	189.31
310.72	177.31
310.949	182.31
311.179	177.31
311.409	181.31
311.639	166.31
311.868	178.31
312.098	177.31
312.328	186.31
312.557	184.31
312.787	196.31
313.017	186.31
313.246	186.31
313.476	177.31
313.706	173.31
313.935	180.31
314.165	183.31
314.394	205.31
314.624	181.31
314.853	189.31
315.083	198.31
315.312	191.31
315.542	188.31
315.771	191.31
316.001	167.31
316.23	189.31
316.46	174.31
316.689	186.31
316.919	165.31
317.148	194.31
317.377	180.31
317.607	183.31
317.836	195.31
318.065	162.31
318.295	188.31
318.524	192.31
318.753	180.31
318.983	181.31
319.212	179.31
319.441	182.31
319.67	198.31
319.9	185.31
320.129	156.31
320.358	194.31
320.587	182.31
320.816	177.31
321.046	194.31
321.275	194.31
321.504	195.31
321.733	185.31
321.962	185.31
322.191	181.31
322.42	205.31
322.649	194.31
322.878	152.31
323.108	173.31
323.337	179.31
323.566	186.31
323.795	204.31
324.024	210.31
324.253	193.31
324.482	168.31
324.71	194.31
324.939	182.31
325.168	186.31
325.397	192.31
325.626	201.31
325.855	187.31
326.084	195.31
326.313	193.31
326.542	198.31
326.77	193.31
326.999	204.31
327.228	181.31
327.457	196.31
327.686	194.31
327.914	189.31
328.143	199.31
328.372	201.31
328.6	203.31
328.829	181.31
329.058	185.31
329.287	185.31
329.515	201.31
329.744	186.31
329.972	208.31
330.201	196.31
330.43	183.31
330.658	203.31
330.887	192.31
331.115	200.31
331.344	202.31
331.572	209.31
331.801	197.31
332.03	213.31
332.258	202.31
332.486	224.31
332.715	218.31
332.943	233.31
333.172	244.31
333.4	264.31
333.629	240.31
333.857	246.31
334.085	245.31
334.314	223.31
334.542	229.31
334.771	246.31
334.999	211.31
335.227	217.31
335.455	218.31
335.684	236.31
335.912	224.31
336.14	213.31
336.369	226.31
336.597	221.31
336.825	228.31
337.053	210.31
337.281	218.31
337.51	211.31
337.738	222.31
337.966	210.31
338.194	202.31
338.422	206.31
338.65	216.31
338.878	216.31
339.106	205.31
339.334	215.31
339.562	199.31
339.79	196.31
340.018	194.31
340.246	202.31
340.474	186.31
340.702	200.31
340.93	197.31
341.158	201.31
341.386	199.31
341.614	198.31
341.842	201.31
342.07	189.31
342.298	168.31
342.526	198.31
342.754	202.31
342.981	185.31
343.209	210.31
343.437	209.31
343.665	209.31
343.893	259.31
344.12	240.31
344.348	215.31
344.576	208.31
344.804	210.31
345.031	202.31
345.259	197.31
345.487	198.31
345.714	191.31
345.942	207.31
346.17	205.31
346.397	186.31
346.625	189.31
346.853	207.31
347.08	188.31
347.308	211.31
347.535	194.31
347.763	215.31
347.99	204.31
348.218	198.31
348.445	201.31
348.673	200.31
348.9	201.31
349.128	197.31
349.355	211.31
349.583	199.31
349.81	211.31
350.037	198.31
350.265	198.31
350.492	188.31
350.72	174.31
350.947	176.31
351.174	192.31
351.402	190.31
351.629	195.31
351.856	199.31
352.083	187.31
352.311	187.31
352.538	174.31
352.765	205.31
352.992	197.31
353.22	181.31
353.447	185.31
353.674	212.31
353.901	186.31
354.128	192.31
354.355	194.31
354.583	179.31
354.81	184.31
355.037	196.31
355.264	203.31
355.491	188.31
355.718	196.31
355.945	191.31
356.172	183.31
356.399	204.31
356.626	204.31
356.853	183.31
357.08	183.31
357.307	186.31
357.534	185.31
357.761	164.31
357.988	194.31
358.215	181.31
358.441	177.31
358.668	182.31
358.895	173.31
359.122	179.31
359.349	192.31
359.576	185.31
359.802	188.31
360.029	198.31
360.256	178.31
360.483	193.31
360.709	178.31
360.936	185.31
361.163	196.31
361.39	194.31
361.616	187.31
361.843	199.31
362.07	179.31
362.296	190.31
362.523	170.31
362.749	179.31
362.976	177.31
363.203	193.31
363.429	188.31
363.656	189.31
363.882	196.31
364.109	188.31
364.335	177.31
364.562	174.31
364.788	180.31
365.015	178.31
365.241	190.31
365.468	175.31
365.694	184.31
365.92	180.31
366.147	186.31
366.373	167.31
366.599	182.31
366.826	176.31
367.052	180.31
367.278	188.31
367.505	175.31
367.731	182.31
367.957	192.31
368.184	200.31
368.41	177.31
368.636	200.31
368.862	182.31
369.089	210.31
369.315	177.31
369.541	173.31
369.767	196.31
369.993	205.31
370.219	190.31
370.445	194.31
370.672	194.31
370.898	177.31
371.124	184.31
371.35	210.31
371.576	195.31
371.802	209.31
372.028	210.31
372.254	205.31
372.48	186.31
372.706	205.31
372.932	201.31
373.158	205.31
373.384	198.31
373.61	218.31
373.835	205.31
374.061	206.31
374.287	196.31
374.513	181.31
374.739	199.31
374.965	224.31
375.191	222.31
375.416	214.31
375.642	233.31
375.868	198.31
376.094	208.31
376.319	197.31
376.545	201.31
376.771	194.31
376.997	193.31
377.222	191.31
377.448	210.31
377.674	189.31
377.899	202.31
378.125	201.31
378.35	185.31
378.576	186.31
378.802	197.31
379.027	206.31
379.253	187.31
379.478	198.31
379.704	179.31
379.929	205.31
380.155	197.31
380.38	174.31
380.606	182.31
380.831	184.31
381.057	210.31
381.282	184.31
381.507	211.31
381.733	211.31
381.958	198.31
382.184	205.31
382.409	204.31
382.634	197.31
382.86	217.31
383.085	196.31
383.31	213.31
383.535	222.31
383.761	214.31
383.986	232.31
384.211	221.31
384.436	225.31
384.662	219.31
384.887	234.31
385.112	228.31
385.337	249.31
385.562	224.31
385.787	232.31
386.013	230.31
386.238	220.31
386.463	198.31
386.688	222.31
386.913	236.31
387.138	218.31
387.363	210.31
387.588	212.31
387.813	231.31
388.038	228.31
388.263	204.31
388.488	218.31
388.713	203.31
388.938	228.31
389.163	233.31
389.387	211.31
389.612	191.31
389.837	225.31
390.062	201.31
390.287	216.31
390.512	213.31
390.736	221.31
390.961	216.31
391.186	231.31
391.411	236.31
391.636	216.31
391.86	239.31
392.085	249.31
392.31	230.31
392.534	260.31
392.759	241.31
392.984	224.31
393.208	242.31
393.433	226.31
393.658	236.31
393.882	229.31
394.107	234.31
394.331	225.31
394.556	230.31
394.78	246.31
395.005	229.31
395.229	219.31
395.454	226.31
395.678	243.31
395.903	240.31
396.127	241.31
396.352	222.31
396.576	204.31
396.801	211.31
397.025	225.31
397.249	238.31
397.474	246.31
397.698	225.31
397.922	236.31
398.147	230.31
398.371	224.31
398.595	245.31
398.82	265.31
399.044	278.31
399.268	290.31
399.492	318.31
399.717	378.31
399.941	340.31
400.165	338.31
400.389	304.31
400.613	283.31
400.837	254.31
401.062	262.31
401.286	248.31
401.51	261.31
401.734	270.31
401.958	262.31
402.182	272.31
402.406	263.31
402.63	282.31
402.854	300.31
403.078	282.31
403.302	278.31
403.526	280.31
403.75	282.31
403.974	309.31
404.198	299.31
404.422	289.31
404.645	298.31
404.869	293.31
405.093	287.31
405.317	265.31
405.541	280.31
405.765	284.31
405.988	291.31
406.212	295.31
406.436	272.31
406.66	274.31
406.883	284.31
407.107	302.31
407.331	307.31
407.555	343.31
407.778	312.31
408.002	302.31
408.226	294.31
408.449	305.31
408.673	286.31
408.896	299.31
409.12	287.31
409.344	292.31
409.567	291.31
409.791	292.31
410.014	280.31
410.238	301.31
410.461	294.31
410.685	277.31
410.908	270.31
411.132	252.31
411.355	284.31
411.578	262.31
411.802	267.31
412.025	281.31
412.249	276.31
412.472	269.31
412.695	240.31
412.919	253.31
413.142	262.31
413.365	253.31
413.589	268.31
413.812	250.31
414.035	233.31
414.258	245.31
414.482	260.31
414.705	283.31
414.928	268.31
415.151	248.31
415.374	268.31
415.597	276.31
415.821	269.31
416.044	256.31
416.267	276.31
416.49	251.31
416.713	240.31
416.936	245.31
417.159	261.31
417.382	258.31
417.605	268.31
417.828	269.31
418.051	270.31
418.274	266.31
418.497	254.31
418.72	270.31
418.943	269.31
419.166	276.31
419.389	292.31
419.611	286.31
419.834	284.31
420.057	298.31
420.28	258.31
420.503	256.31
420.726	253.31
420.948	251.31
421.171	250.31
421.394	257.31
421.617	258.31
421.839	271.31
422.062	274.31
422.285	234.31
422.507	276.31
422.73	270.31
422.953	261.31
423.175	265.31
423.398	266.31
423.621	262.31
423.843	282.31
424.066	261.31
424.288	273.31
424.511	266.31
424.733	269.31
424.956	277.31
425.178	259.31
425.401	265.31
425.623	249.31
425.846	236.31
426.068	261.31
426.291	252.31
426.513	261.31
426.735	262.31
426.958	229.31
427.18	241.31
427.402	247.31
427.625	240.31
427.847	220.31
428.069	233.31
428.292	216.31
428.514	212.31
428.736	241.31
428.958	234.31
429.181	226.31
429.403	227.31
429.625	246.31
429.847	212.31
430.069	235.31
430.292	238.31
430.514	223.31
430.736	237.31
430.958	237.31
431.18	242.31
431.402	225.31
431.624	241.31
431.846	229.31
432.068	225.31
432.29	232.31
432.512	223.31
432.734	232.31
432.956	247.31
433.178	225.31
433.4	241.31
433.622	229.31
433.844	235.31
434.066	240.31
434.287	228.31
434.509	244.31
434.731	246.31
434.953	268.31
435.175	261.31
435.397	268.31
435.618	245.31
435.84	232.31
436.062	224.31
436.284	241.31
436.505	217.31
436.727	228.31
436.949	243.31
437.17	220.31
437.392	226.31
437.614	223.31
437.835	229.31
438.057	209.31
438.278	230.31
438.5	225.31
438.721	223.31
438.943	236.31
439.165	237.31
439.386	230.31
439.608	247.31
439.829	234.31
440.05	240.31
440.272	227.31
440.493	229.31
440.715	240.31
440.936	242.31
441.158	244.31
441.379	234.31
441.6	256.31
441.822	269.31
442.043	272.31
442.264	266.31
442.486	255.31
442.707	240.31
442.928	262.31
443.149	259.31
443.371	246.31
443.592	250.31
443.813	276.31
444.034	244.31
444.255	264.31
444.476	268.31
444.698	282.31
444.919	310.31
445.14	411.31
445.361	330.31
445.582	264.31
445.803	263.31
446.024	250.31
446.245	234.31
446.466	248.31
446.687	237.31
446.908	240.31
447.129	237.31
447.35	231.31
447.571	228.31
447.792	218.31
448.013	218.31
448.234	207.31
448.455	225.31
448.675	203.31
448.896	218.31
449.117	206.31
449.338	234.31
449.559	205.31
449.779	214.31
450	220.31
450.221	219.31
450.442	205.31
450.662	210.31
450.883	217.31
451.104	224.31
451.324	203.31
451.545	235.31
451.766	242.31
451.986	222.31
452.207	213.31
452.428	217.31
452.648	232.31
452.869	219.31
453.089	221.31
453.31	201.31
453.53	225.31
453.751	209.31
453.971	218.31
454.192	235.31
454.412	207.31
454.633	219.31
454.853	219.31
455.073	235.31
455.294	214.31
455.514	193.31
455.734	204.31
455.955	206.31
456.175	217.31
456.395	211.31
456.616	211.31
456.836	195.31
457.056	211.31
457.276	213.31
457.497	194.31
457.717	202.31
457.937	214.31
458.157	215.31
458.377	208.31
458.598	212.31
458.818	208.31
459.038	232.31
459.258	222.31
459.478	237.31
459.698	246.31
459.918	250.31
460.138	256.31
460.358	266.31
460.578	278.31
460.798	292.31
461.018	264.31
461.238	266.31
461.458	268.31
461.678	268.31
461.898	284.31
462.118	280.31
462.338	275.31
462.558	282.31
462.777	286.31
462.997	324.31
463.217	348.31
463.437	347.31
463.657	333.31
463.876	308.31
464.096	311.31
464.316	315.31
464.536	330.31
464.755	308.31
464.975	304.31
465.195	282.31
465.414	280.31
465.634	242.31
465.854	231.31
466.073	242.31
466.293	237.31
466.512	237.31
466.732	229.31
466.951	236.31
467.171	227.31
467.391	232.31
467.61	231.31
467.829	222.31
468.049	225.31
468.268	218.31
468.488	218.31
468.707	223.31
468.927	224.31
469.146	230.31
469.365	218.31
469.585	217.31
469.804	241.31
470.023	242.31
470.243	236.31
470.462	235.31
470.681	237.31
470.901	247.31
471.12	249.31
471.339	216.31
471.558	238.31
471.777	227.31
471.997	221.31
472.216	220.31
472.435	219.31
472.654	225.31
472.873	229.31
473.092	226.31
473.311	213.31
473.53	230.31
473.749	214.31
473.968	237.31
474.187	219.31
474.406	232.31
474.625	214.31
474.844	236.31
475.063	233.31
475.282	231.31
475.501	219.31
475.72	217.31
475.939	204.31
476.158	228.31
476.377	243.31
476.596	224.31
476.814	230.31
477.033	225.31
477.252	231.31
477.471	233.31
477.69	246.31
477.908	256.31
478.127	262.31
478.346	251.31
478.564	261.31
478.783	276.31
479.002	253.31
479.22	270.31
479.439	279.31
479.658	264.31
479.876	269.31
480.095	268.31
480.313	282.31
480.532	305.31
480.751	285.31
480.969	277.31
481.188	246.31
481.406	255.31
481.624	251.31
481.843	254.31
482.061	245.31
482.28	246.31
482.498	253.31
482.717	242.31
482.935	243.31
483.153	251.31
483.372	232.31
483.59	240.31
483.808	252.31
484.027	257.31
484.245	258.31
484.463	236.31
484.681	260.31
484.9	258.31
485.118	261.31
485.336	246.31
485.554	284.31
485.772	286.31
485.99	271.31
486.209	268.31
486.427	275.31
486.645	260.31
486.863	257.31
487.081	248.31
487.299	262.31
487.517	250.31
487.735	260.31
487.953	264.31
488.171	259.31
488.389	266.31
488.607	251.31
488.825	254.31
489.043	230.31
489.261	249.31
489.479	254.31
489.696	268.31
489.914	278.31
490.132	278.31
490.35	277.31
490.568	263.31
490.786	251.31
491.003	273.31
491.221	265.31
491.439	275.31
491.657	277.31
491.874	270.31
492.092	273.31
492.31	280.31
492.527	283.31
492.745	270.31
492.963	254.31
493.18	282.31
493.398	279.31
493.615	272.31
493.833	281.31
494.05	253.31
494.268	276.31
494.485	273.31
494.703	283.31
494.92	273.31
495.138	270.31
495.355	290.31
495.573	291.31
495.79	266.31
496.008	278.31
496.225	280.31
496.442	270.31
496.66	284.31
496.877	279.31
497.094	302.31
497.312	300.31
497.529	292.31
497.746	308.31
497.963	299.31
498.181	314.31
498.398	335.31
498.615	339.31
498.832	355.31
499.049	389.31
499.267	402.31
499.484	466.31
499.701	491.31
499.918	549.31
500.135	626.31
500.352	710.31
500.569	750.31
500.786	734.31
501.003	688.31
501.22	613.31
501.437	542.31
501.654	493.31
501.871	449.31
502.088	393.31
502.305	391.31
502.522	381.31
502.739	355.31
502.956	348.31
503.172	331.31
503.389	304.31
503.606	329.31
503.823	312.31
504.04	305.31
504.256	317.31
504.473	302.31
504.69	338.31
504.907	328.31
505.123	310.31
505.34	293.31
505.557	266.31
505.773	276.31
505.99	257.31
506.207	256.31
506.423	259.31
506.64	258.31
506.856	276.31
507.073	275.31
507.289	266.31
507.506	256.31
507.722	253.31
507.939	244.31
508.155	243.31
508.372	241.31
508.588	243.31
508.805	237.31
509.021	257.31
509.238	231.31
509.454	241.31
509.67	244.31
509.887	237.31
510.103	228.31
510.319	255.31
510.536	232.31
510.752	233.31
510.968	229.31
511.184	222.31
511.401	233.31
511.617	247.31
511.833	224.31
512.049	218.31
512.265	251.31
512.481	229.31
512.698	249.31
512.914	229.31
513.13	232.31
513.346	240.31
513.562	231.31
513.778	249.31
513.994	231.31
514.21	231.31
514.426	223.31
514.642	226.31
514.858	223.31
515.074	238.31
515.29	232.31
515.506	251.31
515.721	244.31
515.937	258.31
516.153	267.31
516.369	260.31
516.585	262.31
516.801	267.31
517.016	286.31
517.232	313.31
517.448	299.31
517.664	314.31
517.879	323.31
518.095	320.31
518.311	309.31
518.527	304.31
518.742	286.31
518.958	268.31
519.173	276.31
519.389	264.31
519.605	248.31
519.82	248.31
520.036	241.31
520.251	239.31
520.467	233.31
520.682	233.31
520.898	230.31
521.113	229.31
521.329	218.31
521.544	216.31
521.76	236.31
521.975	245.31
522.19	221.31
522.406	221.31
522.621	226.31
522.836	235.31
523.052	216.31
523.267	215.31
523.482	247.31
523.698	234.31
523.913	214.31
524.128	221.31
524.343	242.31
524.559	221.31
524.774	231.31
524.989	226.31
525.204	231.31
525.419	216.31
525.634	219.31
525.849	215.31
526.064	215.31
526.28	229.31
526.495	224.31
526.71	221.31
526.925	226.31
527.14	236.31
527.355	214.31
527.57	234.31
527.785	218.31
527.999	228.31
528.214	215.31
528.429	219.31
528.644	214.31
528.859	217.31
529.074	246.31
529.289	242.31
529.503	246.31
529.718	221.31
529.933	222.31
530.148	229.31
530.363	216.31
530.577	213.31
530.792	225.31
531.007	211.31
531.221	222.31
531.436	220.31
531.651	232.31
531.865	220.31
532.08	231.31
532.295	217.31
532.509	218.31
532.724	223.31
532.938	238.31
533.153	216.31
533.367	220.31
533.582	228.31
533.796	225.31
534.011	220.31
534.225	227.31
534.44	222.31
534.654	222.31
534.868	219.31
535.083	221.31
535.297	228.31
535.511	222.31
535.726	228.31
535.94	219.31
536.154	207.31
536.369	232.31
536.583	224.31
536.797	221.31
537.011	222.31
537.225	215.31
537.44	215.31
537.654	239.31
537.868	217.31
538.082	219.31
538.296	228.31
538.51	236.31
538.724	204.31
538.938	199.31
539.153	211.31
539.367	223.31
539.581	224.31
539.795	212.31
540.009	218.31
540.222	237.31
540.436	230.31
540.65	206.31
540.864	203.31
541.078	206.31
541.292	209.31
541.506	217.31
541.72	221.31
541.934	204.31
542.147	207.31
542.361	225.31
542.575	201.31
542.789	225.31
543.002	200.31
543.216	182.31
543.43	208.31
543.644	227.31
543.857	203.31
544.071	205.31
544.285	220.31
544.498	205.31
544.712	200.31
544.925	207.31
545.139	238.31
545.352	211.31
545.566	223.31
545.779	219.31
545.993	227.31
546.206	233.31
546.42	226.31
546.633	219.31
546.847	220.31
547.06	214.31
547.274	216.31
547.487	216.31
547.7	203.31
547.914	224.31
548.127	220.31
548.34	225.31
548.554	212.31
548.767	206.31
548.98	209.31
549.193	218.31
549.407	218.31
549.62	221.31
549.833	212.31
550.046	212.31
550.259	202.31
550.473	212.31
550.686	233.31
550.899	225.31
551.112	226.31
551.325	216.31
551.538	225.31
551.751	209.31
551.964	213.31
552.177	207.31
552.39	208.31
552.603	230.31
552.816	238.31
553.029	230.31
553.242	243.31
553.455	231.31
553.667	240.31
553.88	242.31
554.093	224.31
554.306	221.31
554.519	214.31
554.732	227.31
554.944	220.31
555.157	214.31
555.37	216.31
555.583	204.31
555.795	201.31
556.008	210.31
556.221	206.31
556.433	204.31
556.646	198.31
556.859	192.31
557.071	207.31
557.284	201.31
557.496	189.31
557.709	199.31
557.921	204.31
558.134	188.31
558.346	205.31
558.559	203.31
558.771	210.31
558.984	192.31
559.196	205.31
559.409	171.31
559.621	196.31
559.833	201.31
560.046	191.31
560.258	185.31
560.47	193.31
560.683	188.31
560.895	186.31
561.107	181.31
561.32	189.31
561.532	181.31
561.744	179.31
561.956	200.31
562.168	200.31
562.381	201.31
562.593	192.31
562.805	200.31
563.017	201.31
563.229	185.31
563.441	204.31
563.653	217.31
563.865	204.31
564.077	202.31
564.289	208.31
564.501	178.31
564.713	194.31
564.925	199.31
565.137	193.31
565.349	209.31
565.561	213.31
565.773	218.31
565.985	243.31
566.197	222.31
566.408	259.31
566.62	266.31
566.832	283.31
567.044	266.31
567.255	282.31
567.467	295.31
567.679	305.31
567.891	320.31
568.102	342.31
568.314	311.31
568.526	300.31
568.737	270.31
568.949	243.31
569.161	219.31
569.372	213.31
569.584	197.31
569.795	198.31
570.007	204.31
570.218	210.31
570.43	208.31
570.641	195.31
570.853	200.31
571.064	198.31
571.276	202.31
571.487	193.31
571.698	200.31
571.91	198.31
572.121	186.31
572.333	178.31
572.544	190.31
572.755	181.31
572.966	177.31
573.178	182.31
573.389	188.31
573.6	176.31
573.811	149.31
574.023	169.31
574.234	180.31
574.445	177.31
574.656	169.31
574.867	170.31
575.078	191.31
575.289	184.31
575.501	157.31
575.712	178.31
575.923	151.31
576.134	183.31
576.345	161.31
576.556	173.31
576.767	152.31
576.978	162.31
577.188	183.31
577.399	181.31
577.61	166.31
577.821	182.31
578.032	160.31
578.243	147.31
578.454	165.31
578.665	150.31
578.875	154.31
579.086	164.31
579.297	140.31
579.508	181.31
579.718	167.31
579.929	156.31
580.14	169.31
580.35	179.31
580.561	164.31
580.772	161.31
580.982	153.31
581.193	163.31
581.403	178.31
581.614	154.31
581.825	148.31
582.035	152.31
582.246	161.31
582.456	162.31
582.667	178.31
582.877	168.31
583.087	166.31
583.298	164.31
583.508	143.31
583.719	156.31
583.929	157.31
584.139	163.31
584.35	172.31
584.56	170.31
584.77	164.31
584.981	177.31
585.191	167.31
585.401	162.31
585.611	151.31
585.821	156.31
586.032	150.31
586.242	152.31
586.452	166.31
586.662	155.31
586.872	154.31
587.082	153.31
587.292	167.31
587.502	154.31
587.713	160.31
587.923	154.31
588.133	150.31
588.343	162.31
588.553	160.31
588.762	160.31
588.972	167.31
589.182	161.31
589.392	148.31
589.602	172.31
589.812	160.31
590.022	157.31
590.232	164.31
590.441	167.31
590.651	140.31
590.861	157.31
591.071	164.31
591.281	152.31
591.49	158.31
591.7	161.31
591.91	168.31
592.119	156.31
592.329	178.31
592.539	178.31
592.748	176.31
592.958	197.31
593.167	179.31
593.377	189.31
593.587	209.31
593.796	186.31
594.006	196.31
594.215	205.31
594.424	196.31
594.634	191.31
594.843	180.31
595.053	172.31
595.262	168.31
595.472	158.31
595.681	173.31
595.89	153.31
596.1	166.31
596.309	152.31
596.518	154.31
596.727	155.31
596.937	145.31
597.146	150.31
597.355	140.31
597.564	140.31
597.774	151.31
597.983	143.31
598.192	160.31
598.401	153.31
598.61	155.31
598.819	146.31
599.028	156.31
599.237	146.31
599.446	146.31
599.655	152.31
599.864	152.31
600.073	149.31
600.282	147.31
600.491	141.31
600.7	157.31
600.909	138.31
601.118	141.31
601.327	150.31
601.536	152.31
601.745	148.31
601.953	145.31
602.162	146.31
602.371	144.31
602.58	143.31
602.789	145.31
602.997	153.31
603.206	134.31
603.415	168.31
603.623	165.31
603.832	129.31
604.041	147.31
604.249	143.31
604.458	154.31
604.666	146.31
604.875	139.31
605.084	140.31
605.292	134.31
605.501	137.31
605.709	151.31
605.918	143.31
606.126	136.31
606.334	137.31
606.543	141.31
606.751	148.31
606.96	158.31
607.168	143.31
607.376	137.31
607.585	138.31
607.793	148.31
608.001	139.31
608.21	135.31
608.418	132.31
608.626	158.31
608.834	146.31
609.043	128.31
609.251	141.31
609.459	142.31
609.667	131.31
609.875	131.31
610.083	134.31
610.291	134.31
610.499	141.31
610.707	125.31
610.916	128.31
611.124	148.31
611.332	133.31
611.54	134.31
611.748	134.31
611.955	133.31
612.163	130.31
612.371	139.31
612.579	138.31
612.787	133.31
612.995	144.31
613.203	162.31
613.411	132.31
613.618	136.31
613.826	150.31
614.034	137.31
614.242	132.31
614.449	130.31
614.657	162.31
614.865	135.31
615.072	135.31
615.28	136.31
615.488	130.31
615.695	140.31
615.903	125.31
616.111	132.31
616.318	131.31
616.526	146.31
616.733	145.31
616.941	153.31
617.148	129.31
617.356	147.31
617.563	146.31
617.771	147.31
617.978	141.31
618.185	148.31
618.393	133.31
618.6	138.31
618.807	128.31
619.015	139.31
619.222	133.31
619.429	134.31
619.637	137.31
619.844	126.31
620.051	137.31
620.258	131.31
620.466	132.31
620.673	126.31
620.88	144.31
621.087	124.31
621.294	132.31
621.501	132.31
621.708	120.31
621.915	133.31
622.122	136.31
622.329	126.31
622.536	146.31
622.743	150.31
622.95	135.31
623.157	118.31
623.364	120.31
623.571	144.31
623.778	117.31
623.985	129.31
624.192	136.31
624.399	114.31
624.606	129.31
624.812	117.31
625.019	134.31
625.226	124.31
625.433	124.31
625.639	117.31
625.846	127.31
626.053	131.31
626.259	125.31
626.466	110.31
626.673	124.31
626.879	120.31
627.086	142.31
627.293	130.31
627.499	128.31
627.706	122.31
627.912	135.31
628.119	121.31
628.325	122.31
628.532	108.31
628.738	118.31
628.945	110.31
629.151	107.31
629.357	110.31
629.564	113.31
629.77	127.31
629.976	121.31
630.183	124.31
630.389	120.31
630.595	126.31
630.802	111.31
631.008	123.31
631.214	127.31
631.42	120.31
631.627	131.31
631.833	122.31
632.039	121.31
632.245	98.31
632.451	122.31
632.657	99.31
632.863	96.31
633.069	114.31
633.275	128.31
633.481	133.31
633.688	114.31
633.893	110.31
634.099	115.31
634.305	122.31
634.511	121.31
634.717	108.31
634.923	128.31
635.129	115.31
635.335	128.31
635.541	116.31
635.747	110.31
635.952	124.31
636.158	106.31
636.364	115.31
636.57	114.31
636.775	124.31
636.981	114.31
637.187	102.31
637.392	112.31
637.598	123.31
637.804	121.31
638.009	105.31
638.215	112.31
638.421	116.31
638.626	117.31
638.832	116.31
639.037	105.31
639.243	116.31
639.448	117.31
639.654	116.31
639.859	112.31
640.065	124.31
640.27	125.31
640.475	125.31
640.681	109.31
640.886	120.31
641.091	128.31
641.297	124.31
641.502	114.31
641.707	115.31
641.913	117.31
642.118	120.31
642.323	122.31
642.528	118.31
642.733	104.31
642.939	113.31
643.144	104.31
643.349	122.31
643.554	111.31
643.759	108.31
643.964	102.31
644.169	124.31
644.374	126.31
644.579	112.31
644.784	124.31
644.989	104.31
645.194	117.31
645.399	114.31
645.604	118.31
645.809	125.31
646.014	103.31
646.219	117.31
646.423	106.31
646.628	103.31
646.833	98.31
647.038	121.31
647.243	129.31
647.447	116.31
647.652	128.31
647.857	121.31
648.062	126.31
648.266	118.31
648.471	124.31
648.676	112.31
648.88	113.31
649.085	119.31
649.289	117.31
649.494	117.31
649.698	118.31
649.903	106.31
650.107	98.31
650.312	120.31
650.516	110.31
650.721	106.31
650.925	106.31
651.13	115.31
651.334	112.31
651.539	106.31
651.743	108.31
651.947	101.31
652.152	114.31
652.356	112.31
652.56	121.31
652.764	107.31
652.969	100.31
653.173	110.31
653.377	102.31
653.581	99.31
653.785	93.31
653.99	102.31
654.194	95.31
654.398	103.31
654.602	87.31
654.806	93.31
655.01	105.31
655.214	111.31
655.418	105.31
655.622	112.31
655.826	102.31
656.03	105.31
656.234	110.31
656.438	121.31
656.642	116.31
656.846	113.31
657.049	94.31
657.253	86.31
657.457	106.31
657.661	95.31
657.865	97.31
658.068	91.31
658.272	96.31
658.476	101.31
658.68	76.31
658.883	89.31
659.087	90.31
659.291	97.31
659.494	101.31
659.698	96.31
659.901	98.31
660.105	87.31
660.309	95.31
660.512	97.31
660.716	98.31
660.919	85.31
661.123	91.31
661.326	91.31
661.53	81.31
661.733	93.31
661.936	94.31
662.14	83.31
662.343	84.31
662.546	84.31
662.75	77.31
662.953	83.31
663.156	99.31
663.36	98.31
663.563	88.31
663.766	81.31
663.969	73.31
664.173	70.31
664.376	87.31
664.579	83.31
664.782	91.31
664.985	85.31
665.188	81.31
665.391	82.31
665.594	88.31
665.797	74.31
666	93.31
666.203	86.31
666.406	90.31
666.609	84.31
666.812	80.31
667.015	79.31
667.218	83.31
667.421	78.31
667.624	83.31
667.827	97.31
668.03	85.31
668.232	60.31
668.435	94.31
668.638	67.31
668.841	88.31
669.043	88.31
669.246	86.31
669.449	86.31
669.651	86.31
669.854	86.31
670.057	96.31
670.259	72.31
670.462	85.31
670.665	74.31
670.867	92.31
671.07	70.31
671.272	91.31
671.475	91.31
671.677	85.31
671.88	81.31
672.082	78.31
672.284	87.31
672.487	69.31
672.689	78.31
672.892	71.31
