Data from 0.5MCu(NO3)2.Standard.Lamp.E10.CV._HRD10591_16-04-05-753.txt Node
Date: Mon Jul 22 16:04:05 EDT 2019
User: cochatt
Spectrometer: HR+D1059
Trigger mode: 1
Integration Time (sec): 1.000000E-1
Scans to average: 1
Electric dark correction enabled: true
Nonlinearity correction enabled: false
Boxcar width: 0
XAxis mode: Wavelengths
Number of Pixels in Spectrum: 2048
>>>>>Begin Spectral Data<<<<<
223.165	-25
223.4	-25
223.635	-25
223.869	-27
224.104	-13
224.338	-7
224.573	-24
224.808	-20
225.042	-12
225.277	-3
225.511	-7
225.746	6
225.98	24
226.215	5
226.449	21
226.683	22
226.918	28
227.152	32
227.387	41
227.621	36
227.856	54
228.09	58
228.324	62
228.559	59
228.793	61
229.027	72
229.262	83
229.496	78
229.73	89
229.964	86
230.199	79
230.433	79
230.667	84
230.901	84
231.136	93
231.37	83
231.604	91
231.838	73
232.072	102
232.306	106
232.541	79
232.775	88
233.009	90
233.243	97
233.477	97
233.711	100
233.945	77
234.179	92
234.413	107
234.647	85
234.881	94
235.115	84
235.349	93
235.583	96
235.817	94
236.051	82
236.285	98
236.519	106
236.753	91
236.987	83
237.221	95
237.455	90
237.689	78
237.922	90
238.156	92
238.39	91
238.624	87
238.858	90
239.091	76
239.325	76
239.559	91
239.793	92
240.027	93
240.26	84
240.494	93
240.728	92
240.961	92
241.195	87
241.429	93
241.662	86
241.896	89
242.13	92
242.363	78
242.597	97
242.83	91
243.064	97
243.298	84
243.531	92
243.765	90
243.998	108
244.232	96
244.465	78
244.699	94
244.932	89
245.166	104
245.399	108
245.633	105
245.866	95
246.099	103
246.333	101
246.566	96
246.8	98
247.033	104
247.266	94
247.5	109
247.733	107
247.966	95
248.2	89
248.433	100
248.666	92
248.899	105
249.133	98
249.366	115
249.599	98
249.832	107
250.066	114
250.299	88
250.532	96
250.765	115
250.998	101
251.231	112
251.465	118
251.698	110
251.931	114
252.164	107
252.397	114
252.63	108
252.863	105
253.096	110
253.329	115
253.562	100
253.795	98
254.028	112
254.261	112
254.494	127
254.727	118
254.96	119
255.193	104
255.426	105
255.659	103
255.892	102
256.124	102
256.357	101
256.59	120
256.823	112
257.056	109
257.289	114
257.521	114
257.754	117
257.987	103
258.22	119
258.452	121
258.685	116
258.918	125
259.151	114
259.383	109
259.616	108
259.849	128
260.081	116
260.314	115
260.547	117
260.779	124
261.012	114
261.244	130
261.477	112
261.71	120
261.942	113
262.175	122
262.407	124
262.64	94
262.872	123
263.105	112
263.337	124
263.57	109
263.802	129
264.035	121
264.267	114
264.499	121
264.732	123
264.964	134
265.197	115
265.429	131
265.661	128
265.894	125
266.126	120
266.358	128
266.591	123
266.823	124
267.055	126
267.287	129
267.52	114
267.752	118
267.984	138
268.216	125
268.448	132
268.681	114
268.913	131
269.145	126
269.377	138
269.609	137
269.841	136
270.073	125
270.306	128
270.538	122
270.77	118
271.002	141
271.234	130
271.466	123
271.698	133
271.93	137
272.162	126
272.394	119
272.626	115
272.858	132
273.09	127
273.322	137
273.553	137
273.785	135
274.017	139
274.249	147
274.481	127
274.713	122
274.945	129
275.176	132
275.408	132
275.64	136
275.872	144
276.104	138
276.335	146
276.567	123
276.799	137
277.031	132
277.262	129
277.494	152
277.726	148
277.957	149
278.189	132
278.421	138
278.652	144
278.884	136
279.115	142
279.347	148
279.579	134
279.81	124
280.042	151
280.273	141
280.505	145
280.736	132
280.968	168
281.199	134
281.431	147
281.662	148
281.894	139
282.125	162
282.356	161
282.588	141
282.819	142
283.051	143
283.282	151
283.513	165
283.745	156
283.976	156
284.207	161
284.439	154
284.67	148
284.901	138
285.132	150
285.364	160
285.595	152
285.826	146
286.057	138
286.288	162
286.52	153
286.751	144
286.982	155
287.213	150
287.444	156
287.675	139
287.906	160
288.138	158
288.369	154
288.6	162
288.831	153
289.062	152
289.293	161
289.524	155
289.755	179
289.986	157
290.217	149
290.448	165
290.679	158
290.91	181
291.141	160
291.371	155
291.602	153
291.833	164
292.064	171
292.295	168
292.526	160
292.757	164
292.987	161
293.218	165
293.449	171
293.68	151
293.91	162
294.141	168
294.372	153
294.603	154
294.833	173
295.064	156
295.295	152
295.525	158
295.756	166
295.987	169
296.217	145
296.448	159
296.679	184
296.909	165
297.14	158
297.37	185
297.601	162
297.831	167
298.062	169
298.292	179
298.523	186
298.753	181
298.984	183
299.214	183
299.445	170
299.675	171
299.905	170
300.136	182
300.366	171
300.597	161
300.827	170
301.057	178
301.288	197
301.518	194
301.748	179
301.979	185
302.209	172
302.439	194
302.669	186
302.9	178
303.13	171
303.36	177
303.59	158
303.82	195
304.051	182
304.281	181
304.511	177
304.741	162
304.971	179
305.201	176
305.431	176
305.661	175
305.891	188
306.121	176
306.352	182
306.582	166
306.812	182
307.042	168
307.272	182
307.502	167
307.731	176
307.961	176
308.191	170
308.421	174
308.651	184
308.881	157
309.111	170
309.341	181
309.571	175
309.8	187
310.03	168
310.26	171
310.49	187
310.72	189
310.949	182
311.179	151
311.409	179
311.639	158
311.868	170
312.098	171
312.328	175
312.557	181
312.787	185
313.017	168
313.246	184
313.476	176
313.706	189
313.935	182
314.165	190
314.394	173
314.624	176
314.853	192
315.083	183
315.312	186
315.542	183
315.771	195
316.001	193
316.23	172
316.46	173
316.689	187
316.919	172
317.148	185
317.377	177
317.607	167
317.836	176
318.065	177
318.295	189
318.524	182
318.753	183
318.983	157
319.212	176
319.441	161
319.67	191
319.9	193
320.129	182
320.358	193
320.587	183
320.816	195
321.046	193
321.275	197
321.504	168
321.733	185
321.962	182
322.191	176
322.42	186
322.649	191
322.878	203
323.108	176
323.337	197
323.566	178
323.795	192
324.024	197
324.253	189
324.482	186
324.71	170
324.939	193
325.168	189
325.397	188
325.626	181
325.855	182
326.084	170
326.313	188
326.542	193
326.77	193
326.999	186
327.228	187
327.457	191
327.686	181
327.914	198
328.143	201
328.372	192
328.6	192
328.829	200
329.058	209
329.287	195
329.515	201
329.744	191
329.972	201
330.201	209
330.43	198
330.658	189
330.887	207
331.115	191
331.344	200
331.572	209
331.801	194
332.03	205
332.258	199
332.486	224
332.715	225
332.943	209
333.172	242
333.4	236
333.629	247
333.857	246
334.085	254
334.314	235
334.542	249
334.771	230
334.999	238
335.227	244
335.455	244
335.684	237
335.912	214
336.14	219
336.369	240
336.597	225
336.825	217
337.053	226
337.281	210
337.51	196
337.738	217
337.966	202
338.194	194
338.422	210
338.65	182
338.878	193
339.106	206
339.334	196
339.562	213
339.79	210
340.018	209
340.246	193
340.474	196
340.702	183
340.93	221
341.158	196
341.386	211
341.614	204
341.842	184
342.07	197
342.298	187
342.526	179
342.754	207
342.981	220
343.209	202
343.437	204
343.665	213
343.893	229
344.12	235
344.348	206
344.576	217
344.804	213
345.031	194
345.259	206
345.487	199
345.714	200
345.942	200
346.17	209
346.397	195
346.625	196
346.853	197
347.08	199
347.308	212
347.535	207
347.763	205
347.99	216
348.218	200
348.445	199
348.673	196
348.9	195
349.128	179
349.355	194
349.583	205
349.81	190
350.037	180
350.265	196
350.492	176
350.72	204
350.947	199
351.174	209
351.402	195
351.629	188
351.856	167
352.083	185
352.311	203
352.538	182
352.765	203
352.992	195
353.22	178
353.447	191
353.674	201
353.901	185
354.128	185
354.355	199
354.583	184
354.81	192
355.037	203
355.264	198
355.491	205
355.718	201
355.945	161
356.172	191
356.399	184
356.626	200
356.853	196
357.08	185
357.307	202
357.534	192
357.761	194
357.988	183
358.215	192
358.441	183
358.668	198
358.895	194
359.122	198
359.349	184
359.576	195
359.802	199
360.029	182
360.256	194
360.483	195
360.709	178
360.936	196
361.163	195
361.39	209
361.616	198
361.843	196
362.07	202
362.296	180
362.523	175
362.749	195
362.976	183
363.203	192
363.429	174
363.656	194
363.882	194
364.109	180
364.335	201
364.562	181
364.788	179
365.015	173
365.241	193
365.468	208
365.694	183
365.92	205
366.147	186
366.373	196
366.599	197
366.826	184
367.052	182
367.278	180
367.505	193
367.731	201
367.957	194
368.184	175
368.41	200
368.636	190
368.862	186
369.089	169
369.315	187
369.541	184
369.767	200
369.993	201
370.219	213
370.445	206
370.672	198
370.898	198
371.124	205
371.35	201
371.576	184
371.802	182
372.028	203
372.254	192
372.48	197
372.706	203
372.932	186
373.158	211
373.384	200
373.61	213
373.835	204
374.061	190
374.287	205
374.513	198
374.739	214
374.965	199
375.191	232
375.416	212
375.642	229
375.868	213
376.094	210
376.319	195
376.545	204
376.771	210
376.997	206
377.222	192
377.448	213
377.674	205
377.899	204
378.125	195
378.35	184
378.576	200
378.802	204
379.027	183
379.253	199
379.478	205
379.704	179
379.929	182
380.155	184
380.38	184
380.606	186
380.831	199
381.057	198
381.282	194
381.507	208
381.733	198
381.958	196
382.184	222
382.409	197
382.634	215
382.86	213
383.085	206
383.31	194
383.535	224
383.761	227
383.986	231
384.211	204
384.436	223
384.662	206
384.887	228
385.112	234
385.337	231
385.562	234
385.787	228
386.013	219
386.238	229
386.463	228
386.688	237
386.913	233
387.138	228
387.363	227
387.588	219
387.813	228
388.038	226
388.263	233
388.488	219
388.713	234
388.938	224
389.163	205
389.387	205
389.612	216
389.837	214
390.062	223
390.287	223
390.512	225
390.736	197
390.961	236
391.186	241
391.411	235
391.636	232
391.86	251
392.085	245
392.31	242
392.534	236
392.759	233
392.984	235
393.208	240
393.433	245
393.658	240
393.882	221
394.107	223
394.331	226
394.556	222
394.78	244
395.005	237
395.229	220
395.454	232
395.678	252
395.903	247
396.127	229
396.352	242
396.576	243
396.801	240
397.025	254
397.249	240
397.474	226
397.698	260
397.922	262
398.147	237
398.371	231
398.595	239
398.82	278
399.044	280
399.268	300
399.492	339
399.717	384
399.941	384
400.165	337
400.389	312
400.613	283
400.837	255
401.062	274
401.286	266
401.51	280
401.734	251
401.958	265
402.182	276
402.406	274
402.63	270
402.854	280
403.078	274
403.302	290
403.526	295
403.75	298
403.974	308
404.198	289
404.422	304
404.645	295
404.869	292
405.093	293
405.317	288
405.541	281
405.765	279
405.988	288
406.212	267
406.436	290
406.66	298
406.883	282
407.107	302
407.331	330
407.555	344
407.778	326
408.002	312
408.226	308
408.449	322
408.673	294
408.896	273
409.12	264
409.344	286
409.567	310
409.791	292
410.014	289
410.238	275
410.461	313
410.685	292
410.908	285
411.132	285
411.355	266
411.578	270
411.802	244
412.025	277
412.249	267
412.472	266
412.695	267
412.919	252
413.142	262
413.365	265
413.589	244
413.812	246
414.035	250
414.258	258
414.482	266
414.705	270
414.928	280
415.151	274
415.374	262
415.597	249
415.821	228
416.044	262
416.267	250
416.49	266
416.713	260
416.936	274
417.159	262
417.382	260
417.605	257
417.828	261
418.051	257
418.274	278
418.497	253
418.72	279
418.943	270
419.166	276
419.389	311
419.611	278
419.834	275
420.057	272
420.28	261
420.503	271
420.726	251
420.948	263
421.171	260
421.394	269
421.617	256
421.839	252
422.062	259
422.285	267
422.507	265
422.73	265
422.953	260
423.175	270
423.398	271
423.621	282
423.843	276
424.066	271
424.288	284
424.511	264
424.733	289
424.956	273
425.178	252
425.401	254
425.623	259
425.846	256
426.068	260
426.291	254
426.513	253
426.735	238
426.958	245
427.18	260
427.402	254
427.625	245
427.847	238
428.069	237
428.292	243
428.514	250
428.736	233
428.958	242
429.181	246
429.403	243
429.625	240
429.847	224
430.069	243
430.292	240
430.514	240
430.736	233
430.958	232
431.18	240
431.402	234
431.624	238
431.846	227
432.068	230
432.29	242
432.512	237
432.734	241
432.956	245
433.178	240
433.4	226
433.622	245
433.844	244
434.066	235
434.287	248
434.509	256
434.731	266
434.953	264
435.175	275
435.397	248
435.618	252
435.84	242
436.062	262
436.284	245
436.505	228
436.727	247
436.949	244
437.17	230
437.392	208
437.614	227
437.835	243
438.057	224
438.278	228
438.5	240
438.721	237
438.943	238
439.165	231
439.386	230
439.608	241
439.829	230
440.05	242
440.272	243
440.493	242
440.715	247
440.936	250
441.158	248
441.379	245
441.6	276
441.822	275
442.043	268
442.264	248
442.486	258
442.707	248
442.928	259
443.149	262
443.371	254
443.592	263
443.813	258
444.034	293
444.255	277
444.476	285
444.698	301
444.919	310
445.14	436
445.361	347
445.582	275
445.803	260
446.024	250
446.245	240
446.466	245
446.687	232
446.908	244
447.129	233
447.35	242
447.571	226
447.792	224
448.013	225
448.234	232
448.455	218
448.675	233
448.896	218
449.117	209
449.338	216
449.559	218
449.779	215
450	211
450.221	215
450.442	222
450.662	229
450.883	223
451.104	214
451.324	222
451.545	209
451.766	235
451.986	208
452.207	232
452.428	227
452.648	217
452.869	210
453.089	202
453.31	215
453.53	229
453.751	219
453.971	228
454.192	209
454.412	213
454.633	207
454.853	217
455.073	216
455.294	221
455.514	217
455.734	208
455.955	208
456.175	206
456.395	212
456.616	221
456.836	207
457.056	220
457.276	197
457.497	200
457.717	204
457.937	211
458.157	219
458.377	224
458.598	211
458.818	220
459.038	246
459.258	238
459.478	224
459.698	245
459.918	256
460.138	262
460.358	283
460.578	290
460.798	270
461.018	276
461.238	296
461.458	283
461.678	268
461.898	268
462.118	293
462.338	286
462.558	283
462.777	324
462.997	319
463.217	340
463.437	338
463.657	323
463.876	318
464.096	312
464.316	315
464.536	313
464.755	274
464.975	288
465.195	277
465.414	263
465.634	252
465.854	249
466.073	251
466.293	237
466.512	240
466.732	244
466.951	225
467.171	221
467.391	234
467.61	237
467.829	228
468.049	235
468.268	230
468.488	221
468.707	226
468.927	236
469.146	216
469.365	222
469.585	240
469.804	228
470.023	230
470.243	228
470.462	246
470.681	236
470.901	238
471.12	247
471.339	258
471.558	247
471.777	229
471.997	249
472.216	228
472.435	233
472.654	225
472.873	231
473.092	240
473.311	223
473.53	214
473.749	226
473.968	241
474.187	234
474.406	213
474.625	227
474.844	220
475.063	221
475.282	224
475.501	238
475.72	222
475.939	216
476.158	225
476.377	226
476.596	228
476.814	219
477.033	223
477.252	228
477.471	231
477.69	259
477.908	250
478.127	265
478.346	269
478.564	280
478.783	262
479.002	273
479.22	274
479.439	282
479.658	268
479.876	258
480.095	267
480.313	267
480.532	265
480.751	281
480.969	273
481.188	256
481.406	268
481.624	269
481.843	238
482.061	234
482.28	249
482.498	251
482.717	256
482.935	260
483.153	254
483.372	259
483.59	256
483.808	240
484.027	242
484.245	241
484.463	259
484.681	268
484.9	251
485.118	266
485.336	278
485.554	263
485.772	275
485.99	277
486.209	270
486.427	262
486.645	282
486.863	277
487.081	266
487.299	266
487.517	273
487.735	276
487.953	271
488.171	280
488.389	261
488.607	277
488.825	253
489.043	254
489.261	250
489.479	273
489.696	256
489.914	263
490.132	259
490.35	270
490.568	272
490.786	252
491.003	250
491.221	253
491.439	277
491.657	281
491.874	269
492.092	265
492.31	268
492.527	244
492.745	280
492.963	270
493.18	288
493.398	283
493.615	268
493.833	299
494.05	275
494.268	290
494.485	262
494.703	277
494.92	268
495.138	280
495.355	282
495.573	276
495.79	274
496.008	282
496.225	260
496.442	288
496.66	294
496.877	291
497.094	284
497.312	304
497.529	298
497.746	306
497.963	312
498.181	307
498.398	350
498.615	361
498.832	373
499.049	398
499.267	426
499.484	435
499.701	492
499.918	542
500.135	619
500.352	723
500.569	778
500.786	747
501.003	700
501.22	629
501.437	564
501.654	486
501.871	457
502.088	410
502.305	382
502.522	370
502.739	378
502.956	357
503.172	346
503.389	316
503.606	305
503.823	316
504.04	307
504.256	310
504.473	316
504.69	326
504.907	327
505.123	293
505.34	283
505.557	279
505.773	284
505.99	250
506.207	271
506.423	253
506.64	266
506.856	240
507.073	256
507.289	244
507.506	244
507.722	246
507.939	262
508.155	260
508.372	242
508.588	258
508.805	236
509.021	229
509.238	242
509.454	233
509.67	241
509.887	247
510.103	245
510.319	229
510.536	254
510.752	233
510.968	230
511.184	222
511.401	219
511.617	232
511.833	240
512.049	228
512.265	236
512.481	234
512.698	247
512.914	234
513.13	245
513.346	213
513.562	229
513.778	230
513.994	240
514.21	228
514.426	246
514.642	261
514.858	240
515.074	220
515.29	233
515.506	227
515.721	255
515.937	233
516.153	258
516.369	288
516.585	271
516.801	283
517.016	292
517.232	281
517.448	307
517.664	316
517.879	332
518.095	328
518.311	309
518.527	308
518.742	308
518.958	278
519.173	266
519.389	264
519.605	269
519.82	232
520.036	258
520.251	244
520.467	241
520.682	234
520.898	240
521.113	229
521.329	223
521.544	255
521.76	222
521.975	227
522.19	231
522.406	234
522.621	222
522.836	249
523.052	232
523.267	240
523.482	205
523.698	235
523.913	215
524.128	247
524.343	227
524.559	226
524.774	235
524.989	237
525.204	237
525.419	207
525.634	214
525.849	224
526.064	222
526.28	221
526.495	217
526.71	226
526.925	223
527.14	220
527.355	242
527.57	216
527.785	218
527.999	206
528.214	207
528.429	225
528.644	229
528.859	224
529.074	236
529.289	235
529.503	225
529.718	220
529.933	235
530.148	228
530.363	219
530.577	222
530.792	197
531.007	227
531.221	225
531.436	230
531.651	227
531.865	216
532.08	229
532.295	233
532.509	224
532.724	223
532.938	229
533.153	219
533.367	226
533.582	230
533.796	232
534.011	224
534.225	214
534.44	236
534.654	231
534.868	226
535.083	213
535.297	237
535.511	219
535.726	222
535.94	212
536.154	224
536.369	212
536.583	225
536.797	186
537.011	210
537.225	218
537.44	201
537.654	226
537.868	224
538.082	216
538.296	211
538.51	200
538.724	206
538.938	221
539.153	234
539.367	223
539.581	207
539.795	196
540.009	207
540.222	214
540.436	193
540.65	210
540.864	202
541.078	210
541.292	209
541.506	203
541.72	209
541.934	214
542.147	206
542.361	217
542.575	220
542.789	215
543.002	214
543.216	206
543.43	218
543.644	228
543.857	189
544.071	211
544.285	211
544.498	212
544.712	208
544.925	219
545.139	199
545.352	216
545.566	225
545.779	222
545.993	216
546.206	233
546.42	221
546.633	232
546.847	215
547.06	209
547.274	210
547.487	224
547.7	214
547.914	220
548.127	216
548.34	212
548.554	231
548.767	229
548.98	210
549.193	221
549.407	207
549.62	223
549.833	227
550.046	219
550.259	226
550.473	202
550.686	229
550.899	230
551.112	228
551.325	222
551.538	221
551.751	202
551.964	223
552.177	196
552.39	207
552.603	226
552.816	229
553.029	257
553.242	237
553.455	244
553.667	256
553.88	248
554.093	232
554.306	228
554.519	206
554.732	233
554.944	215
555.157	203
555.37	208
555.583	206
555.795	202
556.008	223
556.221	203
556.433	210
556.646	193
556.859	187
557.071	221
557.284	193
557.496	213
557.709	212
557.921	203
558.134	196
558.346	211
558.559	209
558.771	196
558.984	182
559.196	184
559.409	185
559.621	212
559.833	189
560.046	180
560.258	195
560.47	206
560.683	195
560.895	197
561.107	191
561.32	202
561.532	196
561.744	190
561.956	198
562.168	208
562.381	195
562.593	194
562.805	202
563.017	190
563.229	198
563.441	186
563.653	193
563.865	202
564.077	185
564.289	200
564.501	212
564.713	202
564.925	198
565.137	216
565.349	217
565.561	230
565.773	213
565.985	229
566.197	231
566.408	241
566.62	260
566.832	284
567.044	295
567.255	288
567.467	299
567.679	305
567.891	345
568.102	347
568.314	318
568.526	285
568.737	265
568.949	259
569.161	224
569.372	214
569.584	206
569.795	199
570.007	218
570.218	204
570.43	204
570.641	179
570.853	193
571.064	221
571.276	216
571.487	192
571.698	186
571.91	197
572.121	168
572.333	192
572.544	190
572.755	193
572.966	185
573.178	185
573.389	174
573.6	188
573.811	180
574.023	181
574.234	179
574.445	189
574.656	177
574.867	156
575.078	172
575.289	156
575.501	173
575.712	175
575.923	171
576.134	164
576.345	153
576.556	176
576.767	170
576.978	169
577.188	172
577.399	160
577.61	163
577.821	173
578.032	172
578.243	176
578.454	174
578.665	174
578.875	170
579.086	171
579.297	155
579.508	172
579.718	177
579.929	180
580.14	163
580.35	166
580.561	169
580.772	175
580.982	168
581.193	157
581.403	174
581.614	145
581.825	168
582.035	166
582.246	162
582.456	170
582.667	167
582.877	168
583.087	157
583.298	141
583.508	149
583.719	165
583.929	168
584.139	157
584.35	150
584.56	162
584.77	161
584.981	164
585.191	160
585.401	161
585.611	159
585.821	160
586.032	176
586.242	157
586.452	160
586.662	157
586.872	166
587.082	150
587.292	155
587.502	166
587.713	147
587.923	159
588.133	167
588.343	162
588.553	158
588.762	157
588.972	149
589.182	168
589.392	169
589.602	156
589.812	173
590.022	178
590.232	174
590.441	166
590.651	168
590.861	168
591.071	156
591.281	155
591.49	160
591.7	157
591.91	171
592.119	173
592.329	182
592.539	171
592.748	172
592.958	179
593.167	186
593.377	213
593.587	192
593.796	188
594.006	183
594.215	190
594.424	190
594.634	178
594.843	188
595.053	166
595.262	171
595.472	181
595.681	166
595.89	156
596.1	147
596.309	156
596.518	139
596.727	165
596.937	148
597.146	157
597.355	141
597.564	147
597.774	142
597.983	144
598.192	128
598.401	140
598.61	147
598.819	142
599.028	142
599.237	141
599.446	156
599.655	158
599.864	149
600.073	143
600.282	150
600.491	154
600.7	139
600.909	148
601.118	143
601.327	150
601.536	151
601.745	152
601.953	156
602.162	149
602.371	130
602.58	152
602.789	138
602.997	150
603.206	151
603.415	162
603.623	147
603.832	132
604.041	140
604.249	150
604.458	135
604.666	147
604.875	154
605.084	146
605.292	136
605.501	144
605.709	136
605.918	139
606.126	137
606.334	136
606.543	152
606.751	151
606.96	139
607.168	134
607.376	140
607.585	127
607.793	145
608.001	138
608.21	142
608.418	141
608.626	141
608.834	145
609.043	132
609.251	133
609.459	129
609.667	146
609.875	136
610.083	135
610.291	133
610.499	134
610.707	145
610.916	141
611.124	139
611.332	136
611.54	132
611.748	140
611.955	146
612.163	118
612.371	151
612.579	134
612.787	134
612.995	138
613.203	131
613.411	137
613.618	133
613.826	129
614.034	115
614.242	139
614.449	133
614.657	133
614.865	136
615.072	142
615.28	139
615.488	127
615.695	125
615.903	138
616.111	145
616.318	145
616.526	138
616.733	139
616.941	131
617.148	153
617.356	153
617.563	132
617.771	134
617.978	136
618.185	132
618.393	139
618.6	134
618.807	143
619.015	151
619.222	130
619.429	132
619.637	130
619.844	143
620.051	141
620.258	126
620.466	139
620.673	124
620.88	123
621.087	147
621.294	133
621.501	138
621.708	147
621.915	144
622.122	142
622.329	143
622.536	148
622.743	137
622.95	132
623.157	130
623.364	133
623.571	131
623.778	138
623.985	122
624.192	129
624.399	126
624.606	136
624.812	125
625.019	121
625.226	120
625.433	138
625.639	129
625.846	116
626.053	128
626.259	116
626.466	134
626.673	132
626.879	117
627.086	127
627.293	128
627.499	124
627.706	129
627.912	137
628.119	130
628.325	127
628.532	132
628.738	132
628.945	129
629.151	123
629.357	123
629.564	125
629.77	121
629.976	117
630.183	117
630.389	130
630.595	126
630.802	118
631.008	129
631.214	124
631.42	126
631.627	124
631.833	117
632.039	118
632.245	117
632.451	120
632.657	126
632.863	108
633.069	110
633.275	120
633.481	114
633.688	105
633.893	126
634.099	112
634.305	126
634.511	126
634.717	117
634.923	117
635.129	110
635.335	123
635.541	111
635.747	138
635.952	121
636.158	128
636.364	108
636.57	106
636.775	110
636.981	117
637.187	112
637.392	117
637.598	124
637.804	126
638.009	127
638.215	115
638.421	102
638.626	103
638.832	120
639.037	118
639.243	117
639.448	124
639.654	120
639.859	108
640.065	118
640.27	132
640.475	124
640.681	108
640.886	106
641.091	113
641.297	114
641.502	115
641.707	120
641.913	120
642.118	108
642.323	128
642.528	136
642.733	110
642.939	135
643.144	118
643.349	123
643.554	119
643.759	98
643.964	114
644.169	104
644.374	113
644.579	120
644.784	118
644.989	112
645.194	109
645.399	128
645.604	118
645.809	119
646.014	110
646.219	134
646.423	118
646.628	125
646.833	121
647.038	130
647.243	114
647.447	125
647.652	117
647.857	122
648.062	120
648.266	125
648.471	128
648.676	121
648.88	112
649.085	110
649.289	107
649.494	122
649.698	107
649.903	105
650.107	113
650.312	124
650.516	116
650.721	114
650.925	119
651.13	114
651.334	97
651.539	109
651.743	101
651.947	109
652.152	100
652.356	98
652.56	85
652.764	117
652.969	106
653.173	107
653.377	95
653.581	100
653.785	114
653.99	95
654.194	95
654.398	99
654.602	109
654.806	102
655.01	99
655.214	107
655.418	108
655.622	116
655.826	107
656.03	99
656.234	98
656.438	95
656.642	100
656.846	97
657.049	99
657.253	105
657.457	109
657.661	105
657.865	87
658.068	94
658.272	93
658.476	99
658.68	86
658.883	94
659.087	99
659.291	92
659.494	98
659.698	91
659.901	93
660.105	102
660.309	99
660.512	82
660.716	90
660.919	89
661.123	100
661.326	97
661.53	91
661.733	93
661.936	93
662.14	73
662.343	70
662.546	66
662.75	77
662.953	88
663.156	81
663.36	87
663.563	84
663.766	79
663.969	92
664.173	86
664.376	71
664.579	68
664.782	90
664.985	96
665.188	65
665.391	85
665.594	73
665.797	76
666	68
666.203	85
666.406	76
666.609	90
666.812	100
667.015	73
667.218	69
667.421	92
667.624	87
667.827	89
668.03	76
668.232	97
668.435	88
668.638	77
668.841	80
669.043	75
669.246	85
669.449	89
669.651	76
669.854	98
670.057	94
670.259	81
670.462	82
670.665	78
670.867	93
671.07	90
671.272	91
671.475	99
671.677	86
671.88	76
672.082	86
672.284	74
672.487	76
672.689	74
672.892	73
