Data from 0.5MCu(NO3)2.Standard.Lamp.E10.CV._HRD10591_16-04-22-752.txt Node
Date: Mon Jul 22 16:04:22 EDT 2019
User: cochatt
Spectrometer: HR+D1059
Trigger mode: 1
Integration Time (sec): 1.000000E-1
Scans to average: 1
Electric dark correction enabled: true
Nonlinearity correction enabled: false
Boxcar width: 0
XAxis mode: Wavelengths
Number of Pixels in Spectrum: 2048
>>>>>Begin Spectral Data<<<<<
223.165	-17.81
223.4	-17.81
223.635	-17.81
223.869	-2.81
224.104	-8.81
224.338	-16.81
224.573	-17.81
224.808	1.19
225.042	0.19
225.277	4.19
225.511	-10.81
225.746	-5.81
225.98	0.19
226.215	10.19
226.449	3.19
226.683	11.19
226.918	32.19
227.152	18.19
227.387	22.19
227.621	34.19
227.856	40.19
228.09	34.19
228.324	60.19
228.559	58.19
228.793	57.19
229.027	57.19
229.262	65.19
229.496	79.19
229.73	71.19
229.964	75.19
230.199	82.19
230.433	83.19
230.667	85.19
230.901	94.19
231.136	86.19
231.37	85.19
231.604	88.19
231.838	88.19
232.072	87.19
232.306	96.19
232.541	76.19
232.775	85.19
233.009	82.19
233.243	99.19
233.477	91.19
233.711	82.19
233.945	97.19
234.179	91.19
234.413	83.19
234.647	93.19
234.881	77.19
235.115	84.19
235.349	89.19
235.583	92.19
235.817	79.19
236.051	77.19
236.285	89.19
236.519	80.19
236.753	74.19
236.987	92.19
237.221	83.19
237.455	82.19
237.689	91.19
237.922	89.19
238.156	73.19
238.39	93.19
238.624	90.19
238.858	96.19
239.091	73.19
239.325	84.19
239.559	88.19
239.793	83.19
240.027	88.19
240.26	80.19
240.494	91.19
240.728	88.19
240.961	94.19
241.195	88.19
241.429	89.19
241.662	80.19
241.896	88.19
242.13	92.19
242.363	85.19
242.597	99.19
242.83	88.19
243.064	82.19
243.298	82.19
243.531	90.19
243.765	79.19
243.998	98.19
244.232	86.19
244.465	84.19
244.699	91.19
244.932	112.19
245.166	97.19
245.399	100.19
245.633	92.19
245.866	92.19
246.099	99.19
246.333	94.19
246.566	103.19
246.8	83.19
247.033	108.19
247.266	95.19
247.5	95.19
247.733	91.19
247.966	95.19
248.2	111.19
248.433	96.19
248.666	100.19
248.899	102.19
249.133	108.19
249.366	98.19
249.599	100.19
249.832	95.19
250.066	109.19
250.299	104.19
250.532	98.19
250.765	107.19
250.998	87.19
251.231	101.19
251.465	97.19
251.698	88.19
251.931	106.19
252.164	98.19
252.397	112.19
252.63	116.19
252.863	116.19
253.096	110.19
253.329	107.19
253.562	118.19
253.795	105.19
254.028	110.19
254.261	101.19
254.494	100.19
254.727	112.19
254.96	100.19
255.193	117.19
255.426	99.19
255.659	112.19
255.892	113.19
256.124	110.19
256.357	112.19
256.59	101.19
256.823	110.19
257.056	102.19
257.289	114.19
257.521	114.19
257.754	108.19
257.987	110.19
258.22	113.19
258.452	107.19
258.685	114.19
258.918	114.19
259.151	114.19
259.383	112.19
259.616	127.19
259.849	123.19
260.081	108.19
260.314	121.19
260.547	120.19
260.779	110.19
261.012	114.19
261.244	108.19
261.477	105.19
261.71	112.19
261.942	122.19
262.175	118.19
262.407	122.19
262.64	122.19
262.872	112.19
263.105	105.19
263.337	114.19
263.57	122.19
263.802	131.19
264.035	126.19
264.267	116.19
264.499	128.19
264.732	130.19
264.964	119.19
265.197	126.19
265.429	125.19
265.661	111.19
265.894	134.19
266.126	137.19
266.358	131.19
266.591	120.19
266.823	126.19
267.055	114.19
267.287	106.19
267.52	136.19
267.752	130.19
267.984	115.19
268.216	103.19
268.448	125.19
268.681	119.19
268.913	129.19
269.145	125.19
269.377	138.19
269.609	131.19
269.841	128.19
270.073	110.19
270.306	130.19
270.538	102.19
270.77	119.19
271.002	126.19
271.234	132.19
271.466	138.19
271.698	137.19
271.93	119.19
272.162	125.19
272.394	118.19
272.626	122.19
272.858	124.19
273.09	117.19
273.322	134.19
273.553	137.19
273.785	129.19
274.017	111.19
274.249	119.19
274.481	134.19
274.713	115.19
274.945	134.19
275.176	134.19
275.408	148.19
275.64	132.19
275.872	137.19
276.104	139.19
276.335	123.19
276.567	129.19
276.799	143.19
277.031	130.19
277.262	140.19
277.494	138.19
277.726	123.19
277.957	131.19
278.189	140.19
278.421	126.19
278.652	124.19
278.884	132.19
279.115	144.19
279.347	150.19
279.579	135.19
279.81	145.19
280.042	154.19
280.273	139.19
280.505	144.19
280.736	136.19
280.968	143.19
281.199	146.19
281.431	140.19
281.662	123.19
281.894	144.19
282.125	144.19
282.356	142.19
282.588	126.19
282.819	150.19
283.051	144.19
283.282	140.19
283.513	146.19
283.745	151.19
283.976	150.19
284.207	147.19
284.439	145.19
284.67	138.19
284.901	154.19
285.132	146.19
285.364	127.19
285.595	142.19
285.826	152.19
286.057	149.19
286.288	145.19
286.52	142.19
286.751	132.19
286.982	150.19
287.213	164.19
287.444	153.19
287.675	142.19
287.906	154.19
288.138	161.19
288.369	165.19
288.6	148.19
288.831	152.19
289.062	170.19
289.293	153.19
289.524	153.19
289.755	171.19
289.986	150.19
290.217	155.19
290.448	150.19
290.679	151.19
290.91	150.19
291.141	147.19
291.371	147.19
291.602	162.19
291.833	156.19
292.064	152.19
292.295	171.19
292.526	148.19
292.757	153.19
292.987	138.19
293.218	166.19
293.449	157.19
293.68	158.19
293.91	155.19
294.141	168.19
294.372	171.19
294.603	163.19
294.833	166.19
295.064	156.19
295.295	169.19
295.525	167.19
295.756	153.19
295.987	158.19
296.217	165.19
296.448	169.19
296.679	157.19
296.909	171.19
297.14	165.19
297.37	160.19
297.601	164.19
297.831	185.19
298.062	171.19
298.292	178.19
298.523	174.19
298.753	163.19
298.984	180.19
299.214	172.19
299.445	173.19
299.675	182.19
299.905	171.19
300.136	177.19
300.366	176.19
300.597	185.19
300.827	171.19
301.057	174.19
301.288	181.19
301.518	178.19
301.748	184.19
301.979	178.19
302.209	172.19
302.439	169.19
302.669	162.19
302.9	174.19
303.13	167.19
303.36	176.19
303.59	165.19
303.82	184.19
304.051	181.19
304.281	174.19
304.511	170.19
304.741	166.19
304.971	176.19
305.201	162.19
305.431	171.19
305.661	166.19
305.891	176.19
306.121	176.19
306.352	175.19
306.582	166.19
306.812	162.19
307.042	167.19
307.272	178.19
307.502	168.19
307.731	176.19
307.961	160.19
308.191	170.19
308.421	181.19
308.651	155.19
308.881	174.19
309.111	177.19
309.341	184.19
309.571	159.19
309.8	171.19
310.03	187.19
310.26	159.19
310.49	154.19
310.72	182.19
310.949	176.19
311.179	171.19
311.409	167.19
311.639	171.19
311.868	175.19
312.098	170.19
312.328	184.19
312.557	174.19
312.787	184.19
313.017	182.19
313.246	159.19
313.476	179.19
313.706	185.19
313.935	183.19
314.165	179.19
314.394	171.19
314.624	182.19
314.853	182.19
315.083	187.19
315.312	171.19
315.542	163.19
315.771	179.19
316.001	183.19
316.23	179.19
316.46	172.19
316.689	188.19
316.919	188.19
317.148	183.19
317.377	191.19
317.607	162.19
317.836	165.19
318.065	178.19
318.295	177.19
318.524	183.19
318.753	178.19
318.983	179.19
319.212	169.19
319.441	170.19
319.67	167.19
319.9	183.19
320.129	182.19
320.358	179.19
320.587	175.19
320.816	169.19
321.046	183.19
321.275	176.19
321.504	181.19
321.733	171.19
321.962	156.19
322.191	175.19
322.42	184.19
322.649	188.19
322.878	182.19
323.108	178.19
323.337	174.19
323.566	173.19
323.795	182.19
324.024	180.19
324.253	176.19
324.482	179.19
324.71	181.19
324.939	187.19
325.168	170.19
325.397	186.19
325.626	182.19
325.855	192.19
326.084	177.19
326.313	174.19
326.542	200.19
326.77	211.19
326.999	182.19
327.228	188.19
327.457	185.19
327.686	175.19
327.914	194.19
328.143	193.19
328.372	209.19
328.6	170.19
328.829	193.19
329.058	188.19
329.287	185.19
329.515	182.19
329.744	180.19
329.972	179.19
330.201	196.19
330.43	178.19
330.658	209.19
330.887	194.19
331.115	186.19
331.344	205.19
331.572	200.19
331.801	196.19
332.03	196.19
332.258	192.19
332.486	198.19
332.715	216.19
332.943	216.19
333.172	233.19
333.4	219.19
333.629	246.19
333.857	242.19
334.085	246.19
334.314	224.19
334.542	225.19
334.771	232.19
334.999	237.19
335.227	214.19
335.455	227.19
335.684	212.19
335.912	220.19
336.14	220.19
336.369	215.19
336.597	215.19
336.825	199.19
337.053	225.19
337.281	216.19
337.51	215.19
337.738	204.19
337.966	198.19
338.194	200.19
338.422	188.19
338.65	190.19
338.878	206.19
339.106	192.19
339.334	204.19
339.562	199.19
339.79	190.19
340.018	180.19
340.246	192.19
340.474	184.19
340.702	205.19
340.93	200.19
341.158	202.19
341.386	178.19
341.614	184.19
341.842	178.19
342.07	171.19
342.298	184.19
342.526	192.19
342.754	186.19
342.981	182.19
343.209	196.19
343.437	201.19
343.665	213.19
343.893	239.19
344.12	233.19
344.348	218.19
344.576	219.19
344.804	200.19
345.031	202.19
345.259	194.19
345.487	198.19
345.714	199.19
345.942	202.19
346.17	179.19
346.397	184.19
346.625	180.19
346.853	186.19
347.08	175.19
347.308	204.19
347.535	211.19
347.763	185.19
347.99	199.19
348.218	199.19
348.445	202.19
348.673	183.19
348.9	198.19
349.128	192.19
349.355	203.19
349.583	182.19
349.81	186.19
350.037	185.19
350.265	167.19
350.492	189.19
350.72	184.19
350.947	180.19
351.174	190.19
351.402	180.19
351.629	186.19
351.856	197.19
352.083	195.19
352.311	189.19
352.538	183.19
352.765	188.19
352.992	170.19
353.22	180.19
353.447	190.19
353.674	181.19
353.901	171.19
354.128	187.19
354.355	180.19
354.583	187.19
354.81	185.19
355.037	186.19
355.264	181.19
355.491	196.19
355.718	174.19
355.945	179.19
356.172	172.19
356.399	189.19
356.626	189.19
356.853	179.19
357.08	176.19
357.307	190.19
357.534	180.19
357.761	179.19
357.988	197.19
358.215	199.19
358.441	179.19
358.668	185.19
358.895	179.19
359.122	191.19
359.349	165.19
359.576	180.19
359.802	176.19
360.029	176.19
360.256	186.19
360.483	178.19
360.709	180.19
360.936	173.19
361.163	191.19
361.39	181.19
361.616	171.19
361.843	193.19
362.07	182.19
362.296	186.19
362.523	168.19
362.749	167.19
362.976	178.19
363.203	178.19
363.429	184.19
363.656	185.19
363.882	179.19
364.109	175.19
364.335	178.19
364.562	181.19
364.788	200.19
365.015	189.19
365.241	165.19
365.468	174.19
365.694	191.19
365.92	190.19
366.147	188.19
366.373	184.19
366.599	172.19
366.826	192.19
367.052	194.19
367.278	180.19
367.505	191.19
367.731	194.19
367.957	187.19
368.184	174.19
368.41	174.19
368.636	171.19
368.862	178.19
369.089	168.19
369.315	189.19
369.541	195.19
369.767	181.19
369.993	187.19
370.219	199.19
370.445	188.19
370.672	192.19
370.898	186.19
371.124	196.19
371.35	197.19
371.576	199.19
371.802	174.19
372.028	180.19
372.254	190.19
372.48	198.19
372.706	199.19
372.932	203.19
373.158	195.19
373.384	191.19
373.61	182.19
373.835	196.19
374.061	210.19
374.287	187.19
374.513	203.19
374.739	177.19
374.965	214.19
375.191	212.19
375.416	222.19
375.642	191.19
375.868	195.19
376.094	195.19
376.319	202.19
376.545	189.19
376.771	192.19
376.997	178.19
377.222	200.19
377.448	186.19
377.674	179.19
377.899	188.19
378.125	186.19
378.35	187.19
378.576	189.19
378.802	201.19
379.027	191.19
379.253	188.19
379.478	183.19
379.704	199.19
379.929	203.19
380.155	207.19
380.38	181.19
380.606	188.19
380.831	183.19
381.057	193.19
381.282	192.19
381.507	181.19
381.733	195.19
381.958	184.19
382.184	193.19
382.409	203.19
382.634	196.19
382.86	193.19
383.085	203.19
383.31	209.19
383.535	229.19
383.761	213.19
383.986	210.19
384.211	224.19
384.436	203.19
384.662	219.19
384.887	216.19
385.112	216.19
385.337	210.19
385.562	215.19
385.787	213.19
386.013	222.19
386.238	206.19
386.463	201.19
386.688	225.19
386.913	226.19
387.138	232.19
387.363	199.19
387.588	195.19
387.813	226.19
388.038	222.19
388.263	219.19
388.488	216.19
388.713	222.19
388.938	217.19
389.163	198.19
389.387	202.19
389.612	213.19
389.837	220.19
390.062	222.19
390.287	203.19
390.512	203.19
390.736	204.19
390.961	216.19
391.186	217.19
391.411	231.19
391.636	218.19
391.86	226.19
392.085	232.19
392.31	231.19
392.534	218.19
392.759	220.19
392.984	209.19
393.208	215.19
393.433	223.19
393.658	230.19
393.882	225.19
394.107	212.19
394.331	225.19
394.556	223.19
394.78	233.19
395.005	218.19
395.229	223.19
395.454	238.19
395.678	234.19
395.903	243.19
396.127	232.19
396.352	234.19
396.576	215.19
396.801	229.19
397.025	220.19
397.249	215.19
397.474	226.19
397.698	231.19
397.922	226.19
398.147	235.19
398.371	233.19
398.595	225.19
398.82	236.19
399.044	256.19
399.268	263.19
399.492	325.19
399.717	362.19
399.941	337.19
400.165	290.19
400.389	253.19
400.613	257.19
400.837	258.19
401.062	263.19
401.286	254.19
401.51	243.19
401.734	242.19
401.958	258.19
402.182	268.19
402.406	265.19
402.63	259.19
402.854	286.19
403.078	270.19
403.302	286.19
403.526	280.19
403.75	287.19
403.974	286.19
404.198	283.19
404.422	305.19
404.645	293.19
404.869	266.19
405.093	274.19
405.317	291.19
405.541	278.19
405.765	294.19
405.988	278.19
406.212	264.19
406.436	258.19
406.66	283.19
406.883	292.19
407.107	313.19
407.331	295.19
407.555	300.19
407.778	310.19
408.002	306.19
408.226	268.19
408.449	284.19
408.673	286.19
408.896	289.19
409.12	267.19
409.344	278.19
409.567	273.19
409.791	269.19
410.014	286.19
410.238	288.19
410.461	282.19
410.685	278.19
410.908	258.19
411.132	266.19
411.355	251.19
411.578	248.19
411.802	240.19
412.025	263.19
412.249	250.19
412.472	260.19
412.695	252.19
412.919	233.19
413.142	231.19
413.365	253.19
413.589	258.19
413.812	230.19
414.035	230.19
414.258	240.19
414.482	240.19
414.705	246.19
414.928	245.19
415.151	239.19
415.374	264.19
415.597	242.19
415.821	231.19
416.044	262.19
416.267	231.19
416.49	233.19
416.713	239.19
416.936	236.19
417.159	260.19
417.382	247.19
417.605	255.19
417.828	245.19
418.051	244.19
418.274	248.19
418.497	247.19
418.72	279.19
418.943	262.19
419.166	268.19
419.389	284.19
419.611	284.19
419.834	258.19
420.057	259.19
420.28	244.19
420.503	251.19
420.726	252.19
420.948	239.19
421.171	243.19
421.394	256.19
421.617	235.19
421.839	260.19
422.062	243.19
422.285	247.19
422.507	247.19
422.73	254.19
422.953	263.19
423.175	269.19
423.398	267.19
423.621	258.19
423.843	263.19
424.066	275.19
424.288	272.19
424.511	258.19
424.733	258.19
424.956	248.19
425.178	255.19
425.401	259.19
425.623	256.19
425.846	251.19
426.068	252.19
426.291	241.19
426.513	244.19
426.735	221.19
426.958	234.19
427.18	214.19
427.402	232.19
427.625	226.19
427.847	223.19
428.069	227.19
428.292	242.19
428.514	241.19
428.736	220.19
428.958	219.19
429.181	209.19
429.403	228.19
429.625	226.19
429.847	207.19
430.069	208.19
430.292	232.19
430.514	219.19
430.736	227.19
430.958	218.19
431.18	231.19
431.402	236.19
431.624	243.19
431.846	215.19
432.068	244.19
432.29	240.19
432.512	215.19
432.734	225.19
432.956	225.19
433.178	228.19
433.4	219.19
433.622	223.19
433.844	218.19
434.066	229.19
434.287	225.19
434.509	228.19
434.731	238.19
434.953	242.19
435.175	243.19
435.397	240.19
435.618	254.19
435.84	227.19
436.062	222.19
436.284	231.19
436.505	234.19
436.727	225.19
436.949	225.19
437.17	212.19
437.392	211.19
437.614	229.19
437.835	215.19
438.057	208.19
438.278	211.19
438.5	222.19
438.721	220.19
438.943	224.19
439.165	237.19
439.386	233.19
439.608	230.19
439.829	215.19
440.05	226.19
440.272	232.19
440.493	239.19
440.715	242.19
440.936	246.19
441.158	236.19
441.379	230.19
441.6	260.19
441.822	256.19
442.043	246.19
442.264	258.19
442.486	246.19
442.707	243.19
442.928	240.19
443.149	252.19
443.371	258.19
443.592	242.19
443.813	250.19
444.034	235.19
444.255	280.19
444.476	256.19
444.698	267.19
444.919	297.19
445.14	398.19
445.361	316.19
445.582	245.19
445.803	232.19
446.024	240.19
446.245	208.19
446.466	226.19
446.687	230.19
446.908	238.19
447.129	243.19
447.35	220.19
447.571	216.19
447.792	214.19
448.013	205.19
448.234	230.19
448.455	224.19
448.675	219.19
448.896	192.19
449.117	210.19
449.338	195.19
449.559	216.19
449.779	196.19
450	207.19
450.221	210.19
450.442	210.19
450.662	230.19
450.883	223.19
451.104	230.19
451.324	231.19
451.545	217.19
451.766	210.19
451.986	218.19
452.207	219.19
452.428	224.19
452.648	226.19
452.869	224.19
453.089	213.19
453.31	222.19
453.53	202.19
453.751	212.19
453.971	209.19
454.192	203.19
454.412	211.19
454.633	189.19
454.853	208.19
455.073	218.19
455.294	210.19
455.514	210.19
455.734	207.19
455.955	213.19
456.175	203.19
456.395	200.19
456.616	195.19
456.836	214.19
457.056	187.19
457.276	201.19
457.497	187.19
457.717	202.19
457.937	197.19
458.157	207.19
458.377	207.19
458.598	215.19
458.818	230.19
459.038	221.19
459.258	212.19
459.478	219.19
459.698	226.19
459.918	240.19
460.138	247.19
460.358	263.19
460.578	255.19
460.798	254.19
461.018	251.19
461.238	263.19
461.458	257.19
461.678	251.19
461.898	262.19
462.118	263.19
462.338	283.19
462.558	290.19
462.777	292.19
462.997	302.19
463.217	335.19
463.437	347.19
463.657	302.19
463.876	293.19
464.096	310.19
464.316	286.19
464.536	300.19
464.755	299.19
464.975	280.19
465.195	288.19
465.414	271.19
465.634	248.19
465.854	217.19
466.073	238.19
466.293	236.19
466.512	234.19
466.732	224.19
466.951	216.19
467.171	211.19
467.391	230.19
467.61	227.19
467.829	238.19
468.049	230.19
468.268	226.19
468.488	221.19
468.707	217.19
468.927	229.19
469.146	216.19
469.365	226.19
469.585	222.19
469.804	235.19
470.023	235.19
470.243	249.19
470.462	233.19
470.681	234.19
470.901	242.19
471.12	220.19
471.339	244.19
471.558	222.19
471.777	220.19
471.997	232.19
472.216	227.19
472.435	228.19
472.654	219.19
472.873	215.19
473.092	200.19
473.311	209.19
473.53	195.19
473.749	207.19
473.968	215.19
474.187	224.19
474.406	210.19
474.625	203.19
474.844	210.19
475.063	207.19
475.282	205.19
475.501	190.19
475.72	242.19
475.939	225.19
476.158	214.19
476.377	229.19
476.596	216.19
476.814	220.19
477.033	215.19
477.252	216.19
477.471	245.19
477.69	236.19
477.908	259.19
478.127	236.19
478.346	250.19
478.564	244.19
478.783	253.19
479.002	246.19
479.22	244.19
479.439	275.19
479.658	256.19
479.876	257.19
480.095	259.19
480.313	273.19
480.532	285.19
480.751	280.19
480.969	279.19
481.188	258.19
481.406	260.19
481.624	250.19
481.843	246.19
482.061	237.19
482.28	233.19
482.498	235.19
482.717	245.19
482.935	233.19
483.153	238.19
483.372	226.19
483.59	262.19
483.808	253.19
484.027	264.19
484.245	242.19
484.463	235.19
484.681	262.19
484.9	270.19
485.118	259.19
485.336	261.19
485.554	280.19
485.772	247.19
485.99	248.19
486.209	268.19
486.427	261.19
486.645	262.19
486.863	264.19
487.081	248.19
487.299	258.19
487.517	274.19
487.735	270.19
487.953	273.19
488.171	272.19
488.389	263.19
488.607	260.19
488.825	265.19
489.043	262.19
489.261	262.19
489.479	255.19
489.696	257.19
489.914	263.19
490.132	266.19
490.35	241.19
490.568	274.19
490.786	243.19
491.003	259.19
491.221	257.19
491.439	266.19
491.657	270.19
491.874	269.19
492.092	268.19
492.31	261.19
492.527	271.19
492.745	268.19
492.963	273.19
493.18	257.19
493.398	253.19
493.615	275.19
493.833	273.19
494.05	268.19
494.268	264.19
494.485	259.19
494.703	280.19
494.92	267.19
495.138	265.19
495.355	268.19
495.573	271.19
495.79	280.19
496.008	274.19
496.225	268.19
496.442	264.19
496.66	270.19
496.877	261.19
497.094	284.19
497.312	279.19
497.529	275.19
497.746	294.19
497.963	307.19
498.181	310.19
498.398	325.19
498.615	342.19
498.832	342.19
499.049	374.19
499.267	378.19
499.484	443.19
499.701	489.19
499.918	508.19
500.135	615.19
500.352	669.19
500.569	713.19
500.786	698.19
501.003	659.19
501.22	592.19
501.437	512.19
501.654	465.19
501.871	432.19
502.088	394.19
502.305	364.19
502.522	355.19
502.739	336.19
502.956	327.19
503.172	318.19
503.389	309.19
503.606	299.19
503.823	312.19
504.04	293.19
504.256	278.19
504.473	287.19
504.69	295.19
504.907	295.19
505.123	295.19
505.34	280.19
505.557	250.19
505.773	273.19
505.99	262.19
506.207	233.19
506.423	230.19
506.64	260.19
506.856	259.19
507.073	243.19
507.289	248.19
507.506	255.19
507.722	261.19
507.939	241.19
508.155	243.19
508.372	242.19
508.588	239.19
508.805	232.19
509.021	231.19
509.238	247.19
509.454	232.19
509.67	240.19
509.887	235.19
510.103	220.19
510.319	228.19
510.536	220.19
510.752	238.19
510.968	247.19
511.184	245.19
511.401	218.19
511.617	226.19
511.833	226.19
512.049	241.19
512.265	219.19
512.481	215.19
512.698	258.19
512.914	233.19
513.13	243.19
513.346	228.19
513.562	219.19
513.778	235.19
513.994	229.19
514.21	226.19
514.426	227.19
514.642	241.19
514.858	242.19
515.074	246.19
515.29	236.19
515.506	249.19
515.721	261.19
515.937	251.19
516.153	254.19
516.369	274.19
516.585	254.19
516.801	264.19
517.016	272.19
517.232	274.19
517.448	298.19
517.664	298.19
517.879	315.19
518.095	299.19
518.311	289.19
518.527	293.19
518.742	278.19
518.958	268.19
519.173	260.19
519.389	254.19
519.605	251.19
519.82	260.19
520.036	254.19
520.251	256.19
520.467	233.19
520.682	231.19
520.898	225.19
521.113	232.19
521.329	228.19
521.544	215.19
521.76	224.19
521.975	229.19
522.19	208.19
522.406	226.19
522.621	241.19
522.836	234.19
523.052	210.19
523.267	216.19
523.482	221.19
523.698	211.19
523.913	223.19
524.128	247.19
524.343	229.19
524.559	238.19
524.774	219.19
524.989	222.19
525.204	219.19
525.419	226.19
525.634	214.19
525.849	216.19
526.064	219.19
526.28	222.19
526.495	200.19
526.71	222.19
526.925	221.19
527.14	197.19
527.355	213.19
527.57	224.19
527.785	214.19
527.999	227.19
528.214	221.19
528.429	211.19
528.644	208.19
528.859	212.19
529.074	222.19
529.289	223.19
529.503	218.19
529.718	220.19
529.933	227.19
530.148	211.19
530.363	217.19
530.577	223.19
530.792	202.19
531.007	205.19
531.221	230.19
531.436	225.19
531.651	228.19
531.865	230.19
532.08	214.19
532.295	210.19
532.509	222.19
532.724	207.19
532.938	215.19
533.153	223.19
533.367	201.19
533.582	212.19
533.796	232.19
534.011	219.19
534.225	214.19
534.44	201.19
534.654	224.19
534.868	220.19
535.083	211.19
535.297	217.19
535.511	214.19
535.726	200.19
535.94	217.19
536.154	197.19
536.369	208.19
536.583	194.19
536.797	215.19
537.011	221.19
537.225	222.19
537.44	210.19
537.654	211.19
537.868	210.19
538.082	197.19
538.296	206.19
538.51	202.19
538.724	223.19
538.938	233.19
539.153	222.19
539.367	211.19
539.581	205.19
539.795	208.19
540.009	201.19
540.222	208.19
540.436	205.19
540.65	195.19
540.864	223.19
541.078	209.19
541.292	212.19
541.506	203.19
541.72	210.19
541.934	215.19
542.147	215.19
542.361	210.19
542.575	210.19
542.789	228.19
543.002	205.19
543.216	203.19
543.43	205.19
543.644	212.19
543.857	222.19
544.071	207.19
544.285	200.19
544.498	208.19
544.712	197.19
544.925	231.19
545.139	234.19
545.352	211.19
545.566	211.19
545.779	215.19
545.993	224.19
546.206	210.19
546.42	227.19
546.633	219.19
546.847	210.19
547.06	204.19
547.274	208.19
547.487	227.19
547.7	216.19
547.914	226.19
548.127	194.19
548.34	223.19
548.554	216.19
548.767	209.19
548.98	211.19
549.193	207.19
549.407	208.19
549.62	203.19
549.833	217.19
550.046	220.19
550.259	210.19
550.473	220.19
550.686	213.19
550.899	217.19
551.112	214.19
551.325	203.19
551.538	210.19
551.751	217.19
551.964	186.19
552.177	210.19
552.39	206.19
552.603	198.19
552.816	209.19
553.029	219.19
553.242	214.19
553.455	219.19
553.667	238.19
553.88	218.19
554.093	222.19
554.306	222.19
554.519	219.19
554.732	226.19
554.944	211.19
555.157	220.19
555.37	210.19
555.583	216.19
555.795	213.19
556.008	205.19
556.221	193.19
556.433	196.19
556.646	214.19
556.859	198.19
557.071	191.19
557.284	194.19
557.496	181.19
557.709	207.19
557.921	186.19
558.134	201.19
558.346	196.19
558.559	182.19
558.771	206.19
558.984	191.19
559.196	188.19
559.409	196.19
559.621	202.19
559.833	181.19
560.046	187.19
560.258	186.19
560.47	188.19
560.683	207.19
560.895	162.19
561.107	178.19
561.32	205.19
561.532	191.19
561.744	182.19
561.956	176.19
562.168	176.19
562.381	186.19
562.593	201.19
562.805	185.19
563.017	185.19
563.229	197.19
563.441	186.19
563.653	206.19
563.865	197.19
564.077	195.19
564.289	180.19
564.501	184.19
564.713	200.19
564.925	207.19
565.137	207.19
565.349	213.19
565.561	202.19
565.773	207.19
565.985	224.19
566.197	225.19
566.408	224.19
566.62	268.19
566.832	276.19
567.044	270.19
567.255	296.19
567.467	267.19
567.679	288.19
567.891	311.19
568.102	324.19
568.314	313.19
568.526	288.19
568.737	274.19
568.949	247.19
569.161	215.19
569.372	202.19
569.584	195.19
569.795	178.19
570.007	187.19
570.218	198.19
570.43	188.19
570.641	204.19
570.853	197.19
571.064	199.19
571.276	201.19
571.487	206.19
571.698	181.19
571.91	177.19
572.121	166.19
572.333	179.19
572.544	172.19
572.755	172.19
572.966	161.19
573.178	172.19
573.389	177.19
573.6	172.19
573.811	172.19
574.023	161.19
574.234	184.19
574.445	164.19
574.656	170.19
574.867	173.19
575.078	158.19
575.289	175.19
575.501	167.19
575.712	155.19
575.923	184.19
576.134	159.19
576.345	152.19
576.556	155.19
576.767	168.19
576.978	162.19
577.188	170.19
577.399	168.19
577.61	162.19
577.821	158.19
578.032	165.19
578.243	152.19
578.454	145.19
578.665	152.19
578.875	164.19
579.086	162.19
579.297	177.19
579.508	167.19
579.718	169.19
579.929	168.19
580.14	144.19
580.35	153.19
580.561	162.19
580.772	168.19
580.982	166.19
581.193	150.19
581.403	159.19
581.614	150.19
581.825	145.19
582.035	139.19
582.246	157.19
582.456	169.19
582.667	156.19
582.877	162.19
583.087	160.19
583.298	155.19
583.508	140.19
583.719	151.19
583.929	154.19
584.139	141.19
584.35	142.19
584.56	168.19
584.77	139.19
584.981	160.19
585.191	155.19
585.401	150.19
585.611	151.19
585.821	161.19
586.032	167.19
586.242	155.19
586.452	135.19
586.662	173.19
586.872	144.19
587.082	144.19
587.292	162.19
587.502	172.19
587.713	150.19
587.923	140.19
588.133	164.19
588.343	156.19
588.553	144.19
588.762	149.19
588.972	150.19
589.182	158.19
589.392	145.19
589.602	174.19
589.812	176.19
590.022	148.19
590.232	169.19
590.441	148.19
590.651	145.19
590.861	154.19
591.071	164.19
591.281	149.19
591.49	155.19
591.7	159.19
591.91	156.19
592.119	156.19
592.329	163.19
592.539	182.19
592.748	170.19
592.958	172.19
593.167	190.19
593.377	177.19
593.587	179.19
593.796	181.19
594.006	183.19
594.215	197.19
594.424	181.19
594.634	183.19
594.843	188.19
595.053	152.19
595.262	162.19
595.472	166.19
595.681	170.19
595.89	166.19
596.1	175.19
596.309	150.19
596.518	148.19
596.727	154.19
596.937	147.19
597.146	152.19
597.355	157.19
597.564	149.19
597.774	138.19
597.983	152.19
598.192	152.19
598.401	145.19
598.61	132.19
598.819	140.19
599.028	166.19
599.237	135.19
599.446	144.19
599.655	153.19
599.864	158.19
600.073	133.19
600.282	149.19
600.491	145.19
600.7	149.19
600.909	158.19
601.118	145.19
601.327	149.19
601.536	154.19
601.745	144.19
601.953	138.19
602.162	141.19
602.371	146.19
602.58	143.19
602.789	144.19
602.997	136.19
603.206	134.19
603.415	125.19
603.623	138.19
603.832	142.19
604.041	150.19
604.249	132.19
604.458	133.19
604.666	135.19
604.875	123.19
605.084	146.19
605.292	137.19
605.501	153.19
605.709	134.19
605.918	134.19
606.126	135.19
606.334	136.19
606.543	134.19
606.751	139.19
606.96	132.19
607.168	129.19
607.376	133.19
607.585	123.19
607.793	125.19
608.001	131.19
608.21	138.19
608.418	144.19
608.626	138.19
608.834	133.19
609.043	146.19
609.251	122.19
609.459	122.19
609.667	138.19
609.875	139.19
610.083	148.19
610.291	143.19
610.499	147.19
610.707	122.19
610.916	152.19
611.124	131.19
611.332	127.19
611.54	141.19
611.748	130.19
611.955	131.19
612.163	138.19
612.371	157.19
612.579	135.19
612.787	123.19
612.995	146.19
613.203	144.19
613.411	138.19
613.618	131.19
613.826	137.19
614.034	131.19
614.242	131.19
614.449	143.19
614.657	125.19
614.865	130.19
615.072	121.19
615.28	144.19
615.488	138.19
615.695	140.19
615.903	146.19
616.111	137.19
616.318	148.19
616.526	135.19
616.733	140.19
616.941	146.19
617.148	141.19
617.356	128.19
617.563	138.19
617.771	148.19
617.978	117.19
618.185	133.19
618.393	129.19
618.6	136.19
618.807	135.19
619.015	138.19
619.222	129.19
619.429	118.19
619.637	140.19
619.844	135.19
620.051	130.19
620.258	123.19
620.466	138.19
620.673	119.19
620.88	132.19
621.087	123.19
621.294	126.19
621.501	128.19
621.708	122.19
621.915	119.19
622.122	122.19
622.329	136.19
622.536	128.19
622.743	141.19
622.95	121.19
623.157	123.19
623.364	119.19
623.571	130.19
623.778	122.19
623.985	129.19
624.192	131.19
624.399	133.19
624.606	124.19
624.812	139.19
625.019	132.19
625.226	116.19
625.433	127.19
625.639	119.19
625.846	118.19
626.053	128.19
626.259	126.19
626.466	116.19
626.673	122.19
626.879	137.19
627.086	125.19
627.293	120.19
627.499	131.19
627.706	134.19
627.912	126.19
628.119	110.19
628.325	128.19
628.532	117.19
628.738	117.19
628.945	144.19
629.151	121.19
629.357	126.19
629.564	123.19
629.77	128.19
629.976	123.19
630.183	112.19
630.389	119.19
630.595	123.19
630.802	112.19
631.008	132.19
631.214	123.19
631.42	126.19
631.627	118.19
631.833	108.19
632.039	118.19
632.245	119.19
632.451	115.19
632.657	126.19
632.863	118.19
633.069	112.19
633.275	119.19
633.481	111.19
633.688	111.19
633.893	123.19
634.099	99.19
634.305	112.19
634.511	109.19
634.717	111.19
634.923	107.19
635.129	119.19
635.335	114.19
635.541	124.19
635.747	122.19
635.952	113.19
636.158	108.19
636.364	128.19
636.57	107.19
636.775	110.19
636.981	111.19
637.187	120.19
637.392	112.19
637.598	114.19
637.804	108.19
638.009	122.19
638.215	111.19
638.421	110.19
638.626	123.19
638.832	122.19
639.037	113.19
639.243	115.19
639.448	116.19
639.654	112.19
639.859	109.19
640.065	104.19
640.27	106.19
640.475	123.19
640.681	114.19
640.886	110.19
641.091	114.19
641.297	120.19
641.502	124.19
641.707	110.19
641.913	116.19
642.118	114.19
642.323	112.19
642.528	127.19
642.733	108.19
642.939	107.19
643.144	114.19
643.349	110.19
643.554	119.19
643.759	102.19
643.964	119.19
644.169	107.19
644.374	103.19
644.579	111.19
644.784	122.19
644.989	115.19
645.194	106.19
645.399	130.19
645.604	92.19
645.809	114.19
646.014	105.19
646.219	114.19
646.423	110.19
646.628	102.19
646.833	120.19
647.038	111.19
647.243	133.19
647.447	107.19
647.652	117.19
647.857	124.19
648.062	121.19
648.266	115.19
648.471	122.19
648.676	113.19
648.88	112.19
649.085	102.19
649.289	113.19
649.494	116.19
649.698	115.19
649.903	108.19
650.107	105.19
650.312	113.19
650.516	102.19
650.721	116.19
650.925	107.19
651.13	106.19
651.334	98.19
651.539	96.19
651.743	99.19
651.947	107.19
652.152	95.19
652.356	97.19
652.56	114.19
652.764	110.19
652.969	100.19
653.173	90.19
653.377	96.19
653.581	103.19
653.785	90.19
653.99	84.19
654.194	91.19
654.398	96.19
654.602	100.19
654.806	98.19
655.01	99.19
655.214	100.19
655.418	105.19
655.622	95.19
655.826	85.19
656.03	101.19
656.234	107.19
656.438	109.19
656.642	108.19
656.846	82.19
657.049	100.19
657.253	89.19
657.457	107.19
657.661	95.19
657.865	94.19
658.068	87.19
658.272	90.19
658.476	85.19
658.68	94.19
658.883	96.19
659.087	79.19
659.291	86.19
659.494	101.19
659.698	87.19
659.901	77.19
660.105	78.19
660.309	86.19
660.512	81.19
660.716	74.19
660.919	87.19
661.123	86.19
661.326	84.19
661.53	80.19
661.733	92.19
661.936	81.19
662.14	99.19
662.343	85.19
662.546	81.19
662.75	85.19
662.953	72.19
663.156	66.19
663.36	85.19
663.563	77.19
663.766	80.19
663.969	66.19
664.173	78.19
664.376	76.19
664.579	85.19
664.782	87.19
664.985	93.19
665.188	76.19
665.391	77.19
665.594	91.19
665.797	77.19
666	78.19
666.203	90.19
666.406	76.19
666.609	83.19
666.812	71.19
667.015	77.19
667.218	87.19
667.421	74.19
667.624	63.19
667.827	95.19
668.03	89.19
668.232	89.19
668.435	74.19
668.638	95.19
668.841	83.19
669.043	73.19
669.246	72.19
669.449	84.19
669.651	74.19
669.854	87.19
670.057	79.19
670.259	82.19
670.462	98.19
670.665	74.19
670.867	76.19
671.07	79.19
671.272	83.19
671.475	76.19
671.677	72.19
671.88	96.19
672.082	87.19
672.284	81.19
672.487	85.19
672.689	64.19
672.892	74.19
