Data from 0.5MCu(NO3)2.Standard.Lamp.E10.CV._HRD10591_16-04-44-753.txt Node
Date: Mon Jul 22 16:04:44 EDT 2019
User: cochatt
Spectrometer: HR+D1059
Trigger mode: 1
Integration Time (sec): 1.000000E-1
Scans to average: 1
Electric dark correction enabled: true
Nonlinearity correction enabled: false
Boxcar width: 0
XAxis mode: Wavelengths
Number of Pixels in Spectrum: 2048
>>>>>Begin Spectral Data<<<<<
223.165	-19.19
223.4	-19.19
223.635	-19.19
223.869	-26.19
224.104	-11.19
224.338	-2.19
224.573	-14.19
224.808	-10.19
225.042	-5.19
225.277	-7.19
225.511	1.81
225.746	-7.19
225.98	-3.19
226.215	17.81
226.449	13.81
226.683	18.81
226.918	23.81
227.152	29.81
227.387	38.81
227.621	29.81
227.856	52.81
228.09	37.81
228.324	49.81
228.559	56.81
228.793	63.81
229.027	56.81
229.262	75.81
229.496	67.81
229.73	77.81
229.964	64.81
230.199	91.81
230.433	86.81
230.667	100.81
230.901	69.81
231.136	89.81
231.37	83.81
231.604	94.81
231.838	88.81
232.072	87.81
232.306	104.81
232.541	88.81
232.775	91.81
233.009	79.81
233.243	91.81
233.477	104.81
233.711	86.81
233.945	86.81
234.179	85.81
234.413	90.81
234.647	89.81
234.881	90.81
235.115	89.81
235.349	98.81
235.583	93.81
235.817	86.81
236.051	93.81
236.285	84.81
236.519	87.81
236.753	93.81
236.987	85.81
237.221	86.81
237.455	96.81
237.689	99.81
237.922	89.81
238.156	84.81
238.39	84.81
238.624	82.81
238.858	97.81
239.091	105.81
239.325	81.81
239.559	101.81
239.793	93.81
240.027	85.81
240.26	87.81
240.494	101.81
240.728	104.81
240.961	93.81
241.195	112.81
241.429	82.81
241.662	106.81
241.896	98.81
242.13	91.81
242.363	82.81
242.597	90.81
242.83	92.81
243.064	88.81
243.298	97.81
243.531	104.81
243.765	89.81
243.998	101.81
244.232	92.81
244.465	85.81
244.699	97.81
244.932	86.81
245.166	93.81
245.399	105.81
245.633	108.81
245.866	90.81
246.099	95.81
246.333	104.81
246.566	89.81
246.8	100.81
247.033	91.81
247.266	115.81
247.5	98.81
247.733	94.81
247.966	100.81
248.2	106.81
248.433	110.81
248.666	113.81
248.899	110.81
249.133	116.81
249.366	105.81
249.599	109.81
249.832	93.81
250.066	104.81
250.299	106.81
250.532	108.81
250.765	114.81
250.998	106.81
251.231	105.81
251.465	112.81
251.698	99.81
251.931	103.81
252.164	108.81
252.397	105.81
252.63	93.81
252.863	93.81
253.096	102.81
253.329	109.81
253.562	98.81
253.795	108.81
254.028	112.81
254.261	106.81
254.494	129.81
254.727	98.81
254.96	109.81
255.193	113.81
255.426	106.81
255.659	94.81
255.892	113.81
256.124	105.81
256.357	116.81
256.59	115.81
256.823	101.81
257.056	104.81
257.289	104.81
257.521	112.81
257.754	98.81
257.987	105.81
258.22	108.81
258.452	108.81
258.685	105.81
258.918	106.81
259.151	113.81
259.383	112.81
259.616	126.81
259.849	130.81
260.081	124.81
260.314	110.81
260.547	104.81
260.779	105.81
261.012	123.81
261.244	124.81
261.477	101.81
261.71	105.81
261.942	120.81
262.175	124.81
262.407	114.81
262.64	109.81
262.872	114.81
263.105	128.81
263.337	112.81
263.57	118.81
263.802	117.81
264.035	108.81
264.267	120.81
264.499	120.81
264.732	127.81
264.964	113.81
265.197	122.81
265.429	122.81
265.661	137.81
265.894	112.81
266.126	116.81
266.358	119.81
266.591	112.81
266.823	110.81
267.055	123.81
267.287	138.81
267.52	141.81
267.752	124.81
267.984	117.81
268.216	126.81
268.448	132.81
268.681	124.81
268.913	129.81
269.145	126.81
269.377	116.81
269.609	122.81
269.841	137.81
270.073	121.81
270.306	110.81
270.538	127.81
270.77	129.81
271.002	107.81
271.234	124.81
271.466	112.81
271.698	133.81
271.93	124.81
272.162	124.81
272.394	131.81
272.626	116.81
272.858	116.81
273.09	134.81
273.322	126.81
273.553	121.81
273.785	133.81
274.017	112.81
274.249	130.81
274.481	116.81
274.713	122.81
274.945	152.81
275.176	140.81
275.408	136.81
275.64	138.81
275.872	135.81
276.104	133.81
276.335	137.81
276.567	127.81
276.799	120.81
277.031	132.81
277.262	129.81
277.494	152.81
277.726	143.81
277.957	135.81
278.189	135.81
278.421	130.81
278.652	139.81
278.884	143.81
279.115	130.81
279.347	136.81
279.579	141.81
279.81	125.81
280.042	146.81
280.273	135.81
280.505	154.81
280.736	146.81
280.968	139.81
281.199	142.81
281.431	130.81
281.662	137.81
281.894	151.81
282.125	146.81
282.356	148.81
282.588	148.81
282.819	141.81
283.051	132.81
283.282	133.81
283.513	148.81
283.745	146.81
283.976	140.81
284.207	144.81
284.439	142.81
284.67	134.81
284.901	148.81
285.132	154.81
285.364	156.81
285.595	143.81
285.826	145.81
286.057	151.81
286.288	161.81
286.52	156.81
286.751	141.81
286.982	139.81
287.213	166.81
287.444	156.81
287.675	140.81
287.906	141.81
288.138	150.81
288.369	150.81
288.6	145.81
288.831	147.81
289.062	160.81
289.293	148.81
289.524	147.81
289.755	154.81
289.986	148.81
290.217	139.81
290.448	158.81
290.679	168.81
290.91	159.81
291.141	150.81
291.371	147.81
291.602	152.81
291.833	149.81
292.064	167.81
292.295	148.81
292.526	162.81
292.757	144.81
292.987	163.81
293.218	138.81
293.449	146.81
293.68	178.81
293.91	143.81
294.141	142.81
294.372	152.81
294.603	170.81
294.833	160.81
295.064	165.81
295.295	164.81
295.525	137.81
295.756	160.81
295.987	165.81
296.217	163.81
296.448	154.81
296.679	161.81
296.909	182.81
297.14	164.81
297.37	165.81
297.601	155.81
297.831	173.81
298.062	177.81
298.292	179.81
298.523	178.81
298.753	172.81
298.984	168.81
299.214	180.81
299.445	181.81
299.675	168.81
299.905	178.81
300.136	180.81
300.366	163.81
300.597	162.81
300.827	190.81
301.057	164.81
301.288	160.81
301.518	187.81
301.748	162.81
301.979	171.81
302.209	173.81
302.439	176.81
302.669	157.81
302.9	174.81
303.13	179.81
303.36	163.81
303.59	157.81
303.82	162.81
304.051	174.81
304.281	181.81
304.511	184.81
304.741	175.81
304.971	178.81
305.201	166.81
305.431	174.81
305.661	152.81
305.891	158.81
306.121	173.81
306.352	178.81
306.582	166.81
306.812	179.81
307.042	174.81
307.272	180.81
307.502	156.81
307.731	166.81
307.961	171.81
308.191	158.81
308.421	148.81
308.651	167.81
308.881	156.81
309.111	176.81
309.341	159.81
309.571	159.81
309.8	158.81
310.03	164.81
310.26	153.81
310.49	154.81
310.72	169.81
310.949	159.81
311.179	159.81
311.409	179.81
311.639	166.81
311.868	170.81
312.098	169.81
312.328	171.81
312.557	160.81
312.787	186.81
313.017	176.81
313.246	172.81
313.476	187.81
313.706	162.81
313.935	171.81
314.165	176.81
314.394	176.81
314.624	173.81
314.853	165.81
315.083	172.81
315.312	182.81
315.542	180.81
315.771	162.81
316.001	169.81
316.23	160.81
316.46	177.81
316.689	160.81
316.919	173.81
317.148	167.81
317.377	181.81
317.607	180.81
317.836	166.81
318.065	177.81
318.295	171.81
318.524	178.81
318.753	178.81
318.983	168.81
319.212	173.81
319.441	169.81
319.67	169.81
319.9	177.81
320.129	173.81
320.358	171.81
320.587	170.81
320.816	183.81
321.046	173.81
321.275	180.81
321.504	173.81
321.733	152.81
321.962	173.81
322.191	170.81
322.42	172.81
322.649	162.81
322.878	184.81
323.108	173.81
323.337	178.81
323.566	170.81
323.795	174.81
324.024	186.81
324.253	173.81
324.482	172.81
324.71	188.81
324.939	185.81
325.168	193.81
325.397	187.81
325.626	187.81
325.855	169.81
326.084	180.81
326.313	180.81
326.542	181.81
326.77	188.81
326.999	185.81
327.228	187.81
327.457	180.81
327.686	171.81
327.914	178.81
328.143	188.81
328.372	188.81
328.6	188.81
328.829	188.81
329.058	170.81
329.287	191.81
329.515	203.81
329.744	194.81
329.972	184.81
330.201	186.81
330.43	188.81
330.658	188.81
330.887	182.81
331.115	194.81
331.344	168.81
331.572	190.81
331.801	200.81
332.03	197.81
332.258	212.81
332.486	192.81
332.715	191.81
332.943	221.81
333.172	222.81
333.4	217.81
333.629	240.81
333.857	227.81
334.085	222.81
334.314	219.81
334.542	215.81
334.771	206.81
334.999	213.81
335.227	208.81
335.455	207.81
335.684	213.81
335.912	218.81
336.14	214.81
336.369	215.81
336.597	210.81
336.825	227.81
337.053	214.81
337.281	206.81
337.51	203.81
337.738	202.81
337.966	197.81
338.194	206.81
338.422	202.81
338.65	194.81
338.878	190.81
339.106	172.81
339.334	198.81
339.562	193.81
339.79	179.81
340.018	180.81
340.246	180.81
340.474	179.81
340.702	176.81
340.93	185.81
341.158	200.81
341.386	196.81
341.614	199.81
341.842	199.81
342.07	194.81
342.298	193.81
342.526	178.81
342.754	163.81
342.981	187.81
343.209	197.81
343.437	193.81
343.665	207.81
343.893	217.81
344.12	216.81
344.348	218.81
344.576	190.81
344.804	175.81
345.031	185.81
345.259	189.81
345.487	181.81
345.714	186.81
345.942	189.81
346.17	181.81
346.397	187.81
346.625	191.81
346.853	196.81
347.08	195.81
347.308	159.81
347.535	205.81
347.763	188.81
347.99	181.81
348.218	189.81
348.445	181.81
348.673	186.81
348.9	172.81
349.128	205.81
349.355	184.81
349.583	190.81
349.81	192.81
350.037	179.81
350.265	177.81
350.492	187.81
350.72	181.81
350.947	191.81
351.174	188.81
351.402	169.81
351.629	175.81
351.856	180.81
352.083	189.81
352.311	166.81
352.538	186.81
352.765	165.81
352.992	184.81
353.22	195.81
353.447	172.81
353.674	180.81
353.901	176.81
354.128	183.81
354.355	166.81
354.583	168.81
354.81	169.81
355.037	173.81
355.264	189.81
355.491	192.81
355.718	191.81
355.945	173.81
356.172	186.81
356.399	179.81
356.626	174.81
356.853	194.81
357.08	186.81
357.307	181.81
357.534	188.81
357.761	157.81
357.988	188.81
358.215	186.81
358.441	182.81
358.668	184.81
358.895	180.81
359.122	186.81
359.349	177.81
359.576	196.81
359.802	188.81
360.029	182.81
360.256	186.81
360.483	160.81
360.709	166.81
360.936	186.81
361.163	202.81
361.39	170.81
361.616	178.81
361.843	180.81
362.07	183.81
362.296	192.81
362.523	185.81
362.749	180.81
362.976	187.81
363.203	178.81
363.429	164.81
363.656	178.81
363.882	180.81
364.109	187.81
364.335	197.81
364.562	176.81
364.788	165.81
365.015	170.81
365.241	178.81
365.468	166.81
365.694	170.81
365.92	183.81
366.147	193.81
366.373	176.81
366.599	165.81
366.826	168.81
367.052	172.81
367.278	170.81
367.505	171.81
367.731	186.81
367.957	182.81
368.184	187.81
368.41	187.81
368.636	176.81
368.862	168.81
369.089	168.81
369.315	179.81
369.541	192.81
369.767	172.81
369.993	158.81
370.219	184.81
370.445	183.81
370.672	188.81
370.898	185.81
371.124	194.81
371.35	190.81
371.576	194.81
371.802	195.81
372.028	192.81
372.254	201.81
372.48	181.81
372.706	200.81
372.932	200.81
373.158	185.81
373.384	198.81
373.61	202.81
373.835	206.81
374.061	181.81
374.287	182.81
374.513	178.81
374.739	200.81
374.965	208.81
375.191	194.81
375.416	213.81
375.642	192.81
375.868	211.81
376.094	188.81
376.319	200.81
376.545	197.81
376.771	196.81
376.997	190.81
377.222	186.81
377.448	178.81
377.674	189.81
377.899	196.81
378.125	193.81
378.35	181.81
378.576	169.81
378.802	166.81
379.027	187.81
379.253	202.81
379.478	178.81
379.704	184.81
379.929	193.81
380.155	190.81
380.38	192.81
380.606	190.81
380.831	195.81
381.057	184.81
381.282	181.81
381.507	182.81
381.733	198.81
381.958	184.81
382.184	184.81
382.409	181.81
382.634	199.81
382.86	197.81
383.085	190.81
383.31	203.81
383.535	201.81
383.761	204.81
383.986	204.81
384.211	193.81
384.436	192.81
384.662	198.81
384.887	202.81
385.112	218.81
385.337	212.81
385.562	215.81
385.787	233.81
386.013	211.81
386.238	214.81
386.463	214.81
386.688	225.81
386.913	220.81
387.138	189.81
387.363	198.81
387.588	222.81
387.813	202.81
388.038	214.81
388.263	223.81
388.488	224.81
388.713	193.81
388.938	200.81
389.163	206.81
389.387	197.81
389.612	201.81
389.837	211.81
390.062	218.81
390.287	201.81
390.512	200.81
390.736	213.81
390.961	208.81
391.186	223.81
391.411	215.81
391.636	214.81
391.86	231.81
392.085	226.81
392.31	227.81
392.534	232.81
392.759	229.81
392.984	233.81
393.208	218.81
393.433	233.81
393.658	217.81
393.882	209.81
394.107	223.81
394.331	217.81
394.556	212.81
394.78	216.81
395.005	215.81
395.229	214.81
395.454	222.81
395.678	227.81
395.903	231.81
396.127	231.81
396.352	214.81
396.576	218.81
396.801	222.81
397.025	210.81
397.249	220.81
397.474	240.81
397.698	221.81
397.922	224.81
398.147	222.81
398.371	218.81
398.595	224.81
398.82	236.81
399.044	248.81
399.268	251.81
399.492	306.81
399.717	338.81
399.941	343.81
400.165	313.81
400.389	276.81
400.613	257.81
400.837	247.81
401.062	243.81
401.286	247.81
401.51	241.81
401.734	243.81
401.958	248.81
402.182	229.81
402.406	244.81
402.63	242.81
402.854	248.81
403.078	267.81
403.302	272.81
403.526	271.81
403.75	275.81
403.974	260.81
404.198	275.81
404.422	270.81
404.645	258.81
404.869	256.81
405.093	273.81
405.317	264.81
405.541	257.81
405.765	269.81
405.988	268.81
406.212	249.81
406.436	252.81
406.66	261.81
406.883	270.81
407.107	293.81
407.331	284.81
407.555	322.81
407.778	322.81
408.002	299.81
408.226	297.81
408.449	292.81
408.673	272.81
408.896	268.81
409.12	276.81
409.344	269.81
409.567	262.81
409.791	267.81
410.014	281.81
410.238	279.81
410.461	271.81
410.685	278.81
410.908	268.81
411.132	268.81
411.355	241.81
411.578	253.81
411.802	237.81
412.025	257.81
412.249	236.81
412.472	244.81
412.695	240.81
412.919	238.81
413.142	233.81
413.365	225.81
413.589	249.81
413.812	251.81
414.035	232.81
414.258	215.81
414.482	252.81
414.705	244.81
414.928	238.81
415.151	262.81
415.374	245.81
415.597	231.81
415.821	234.81
416.044	225.81
416.267	233.81
416.49	229.81
416.713	249.81
416.936	236.81
417.159	236.81
417.382	252.81
417.605	233.81
417.828	235.81
418.051	244.81
418.274	248.81
418.497	230.81
418.72	266.81
418.943	248.81
419.166	255.81
419.389	258.81
419.611	271.81
419.834	253.81
420.057	260.81
420.28	227.81
420.503	245.81
420.726	260.81
420.948	229.81
421.171	227.81
421.394	236.81
421.617	238.81
421.839	242.81
422.062	240.81
422.285	241.81
422.507	257.81
422.73	253.81
422.953	263.81
423.175	245.81
423.398	245.81
423.621	263.81
423.843	252.81
424.066	254.81
424.288	256.81
424.511	248.81
424.733	259.81
424.956	253.81
425.178	246.81
425.401	241.81
425.623	227.81
425.846	235.81
426.068	225.81
426.291	233.81
426.513	221.81
426.735	226.81
426.958	225.81
427.18	207.81
427.402	244.81
427.625	232.81
427.847	216.81
428.069	215.81
428.292	235.81
428.514	213.81
428.736	229.81
428.958	213.81
429.181	218.81
429.403	234.81
429.625	217.81
429.847	232.81
430.069	210.81
430.292	220.81
430.514	212.81
430.736	202.81
430.958	217.81
431.18	220.81
431.402	214.81
431.624	203.81
431.846	214.81
432.068	235.81
432.29	212.81
432.512	208.81
432.734	210.81
432.956	230.81
433.178	216.81
433.4	226.81
433.622	224.81
433.844	227.81
434.066	224.81
434.287	240.81
434.509	227.81
434.731	246.81
434.953	236.81
435.175	245.81
435.397	235.81
435.618	250.81
435.84	241.81
436.062	226.81
436.284	210.81
436.505	203.81
436.727	235.81
436.949	241.81
437.17	198.81
437.392	197.81
437.614	204.81
437.835	200.81
438.057	217.81
438.278	213.81
438.5	199.81
438.721	221.81
438.943	217.81
439.165	213.81
439.386	227.81
439.608	222.81
439.829	221.81
440.05	210.81
440.272	224.81
440.493	205.81
440.715	223.81
440.936	215.81
441.158	227.81
441.379	236.81
441.6	263.81
441.822	242.81
442.043	243.81
442.264	243.81
442.486	243.81
442.707	240.81
442.928	249.81
443.149	244.81
443.371	244.81
443.592	233.81
443.813	241.81
444.034	232.81
444.255	250.81
444.476	257.81
444.698	264.81
444.919	290.81
445.14	400.81
445.361	327.81
445.582	233.81
445.803	237.81
446.024	223.81
446.245	233.81
446.466	210.81
446.687	223.81
446.908	224.81
447.129	226.81
447.35	219.81
447.571	208.81
447.792	203.81
448.013	196.81
448.234	202.81
448.455	215.81
448.675	209.81
448.896	218.81
449.117	209.81
449.338	212.81
449.559	211.81
449.779	199.81
450	206.81
450.221	217.81
450.442	223.81
450.662	229.81
450.883	208.81
451.104	212.81
451.324	220.81
451.545	217.81
451.766	221.81
451.986	208.81
452.207	216.81
452.428	209.81
452.648	218.81
452.869	221.81
453.089	211.81
453.31	200.81
453.53	191.81
453.751	204.81
453.971	203.81
454.192	204.81
454.412	193.81
454.633	197.81
454.853	211.81
455.073	198.81
455.294	203.81
455.514	200.81
455.734	203.81
455.955	194.81
456.175	211.81
456.395	197.81
456.616	194.81
456.836	210.81
457.056	198.81
457.276	193.81
457.497	183.81
457.717	183.81
457.937	190.81
458.157	198.81
458.377	203.81
458.598	217.81
458.818	202.81
459.038	206.81
459.258	220.81
459.478	211.81
459.698	228.81
459.918	234.81
460.138	239.81
460.358	245.81
460.578	244.81
460.798	258.81
461.018	266.81
461.238	260.81
461.458	249.81
461.678	245.81
461.898	246.81
462.118	269.81
462.338	261.81
462.558	277.81
462.777	279.81
462.997	285.81
463.217	307.81
463.437	345.81
463.657	306.81
463.876	286.81
464.096	298.81
464.316	290.81
464.536	305.81
464.755	273.81
464.975	275.81
465.195	262.81
465.414	256.81
465.634	237.81
465.854	212.81
466.073	233.81
466.293	223.81
466.512	234.81
466.732	237.81
466.951	226.81
467.171	232.81
467.391	228.81
467.61	213.81
467.829	223.81
468.049	222.81
468.268	234.81
468.488	232.81
468.707	194.81
468.927	198.81
469.146	206.81
469.365	209.81
469.585	230.81
469.804	224.81
470.023	232.81
470.243	216.81
470.462	240.81
470.681	229.81
470.901	237.81
471.12	214.81
471.339	235.81
471.558	215.81
471.777	228.81
471.997	223.81
472.216	229.81
472.435	216.81
472.654	186.81
472.873	203.81
473.092	208.81
473.311	212.81
473.53	200.81
473.749	201.81
473.968	220.81
474.187	220.81
474.406	200.81
474.625	228.81
474.844	215.81
475.063	212.81
475.282	205.81
475.501	214.81
475.72	217.81
475.939	229.81
476.158	223.81
476.377	226.81
476.596	200.81
476.814	226.81
477.033	205.81
477.252	216.81
477.471	238.81
477.69	223.81
477.908	243.81
478.127	238.81
478.346	242.81
478.564	252.81
478.783	268.81
479.002	237.81
479.22	252.81
479.439	244.81
479.658	248.81
479.876	243.81
480.095	254.81
480.313	270.81
480.532	257.81
480.751	252.81
480.969	247.81
481.188	253.81
481.406	237.81
481.624	239.81
481.843	227.81
482.061	244.81
482.28	234.81
482.498	231.81
482.717	222.81
482.935	233.81
483.153	228.81
483.372	228.81
483.59	226.81
483.808	228.81
484.027	242.81
484.245	214.81
484.463	242.81
484.681	248.81
484.9	257.81
485.118	253.81
485.336	253.81
485.554	246.81
485.772	263.81
485.99	247.81
486.209	260.81
486.427	278.81
486.645	258.81
486.863	238.81
487.081	260.81
487.299	247.81
487.517	257.81
487.735	250.81
487.953	247.81
488.171	270.81
488.389	260.81
488.607	240.81
488.825	257.81
489.043	236.81
489.261	247.81
489.479	256.81
489.696	250.81
489.914	252.81
490.132	258.81
490.35	237.81
490.568	237.81
490.786	241.81
491.003	225.81
491.221	242.81
491.439	255.81
491.657	244.81
491.874	246.81
492.092	260.81
492.31	264.81
492.527	258.81
492.745	249.81
492.963	260.81
493.18	267.81
493.398	268.81
493.615	261.81
493.833	269.81
494.05	262.81
494.268	244.81
494.485	270.81
494.703	275.81
494.92	264.81
495.138	264.81
495.355	234.81
495.573	268.81
495.79	266.81
496.008	255.81
496.225	258.81
496.442	276.81
496.66	273.81
496.877	260.81
497.094	277.81
497.312	274.81
497.529	292.81
497.746	283.81
497.963	284.81
498.181	293.81
498.398	315.81
498.615	318.81
498.832	339.81
499.049	374.81
499.267	380.81
499.484	420.81
499.701	459.81
499.918	498.81
500.135	548.81
500.352	640.81
500.569	668.81
500.786	669.81
501.003	611.81
501.22	550.81
501.437	483.81
501.654	434.81
501.871	397.81
502.088	366.81
502.305	354.81
502.522	352.81
502.739	318.81
502.956	309.81
503.172	305.81
503.389	291.81
503.606	291.81
503.823	272.81
504.04	269.81
504.256	292.81
504.473	290.81
504.69	311.81
504.907	306.81
505.123	277.81
505.34	262.81
505.557	263.81
505.773	272.81
505.99	258.81
506.207	244.81
506.423	235.81
506.64	240.81
506.856	230.81
507.073	214.81
507.289	237.81
507.506	250.81
507.722	235.81
507.939	225.81
508.155	231.81
508.372	227.81
508.588	235.81
508.805	244.81
509.021	232.81
509.238	230.81
509.454	235.81
509.67	221.81
509.887	216.81
510.103	214.81
510.319	216.81
510.536	223.81
510.752	231.81
510.968	224.81
511.184	219.81
511.401	222.81
511.617	217.81
511.833	217.81
512.049	224.81
512.265	227.81
512.481	225.81
512.698	222.81
512.914	227.81
513.13	213.81
513.346	223.81
513.562	229.81
513.778	221.81
513.994	232.81
514.21	226.81
514.426	233.81
514.642	236.81
514.858	238.81
515.074	245.81
515.29	213.81
515.506	233.81
515.721	224.81
515.937	226.81
516.153	225.81
516.369	250.81
516.585	263.81
516.801	258.81
517.016	269.81
517.232	275.81
517.448	280.81
517.664	322.81
517.879	300.81
518.095	289.81
518.311	284.81
518.527	283.81
518.742	280.81
518.958	258.81
519.173	256.81
519.389	226.81
519.605	218.81
519.82	220.81
520.036	217.81
520.251	232.81
520.467	231.81
520.682	217.81
520.898	215.81
521.113	230.81
521.329	208.81
521.544	216.81
521.76	225.81
521.975	214.81
522.19	229.81
522.406	201.81
522.621	216.81
522.836	226.81
523.052	218.81
523.267	222.81
523.482	216.81
523.698	220.81
523.913	215.81
524.128	206.81
524.343	226.81
524.559	226.81
524.774	202.81
524.989	213.81
525.204	215.81
525.419	204.81
525.634	222.81
525.849	213.81
526.064	197.81
526.28	218.81
526.495	212.81
526.71	226.81
526.925	210.81
527.14	211.81
527.355	214.81
527.57	219.81
527.785	208.81
527.999	215.81
528.214	211.81
528.429	210.81
528.644	203.81
528.859	211.81
529.074	217.81
529.289	209.81
529.503	215.81
529.718	217.81
529.933	211.81
530.148	197.81
530.363	211.81
530.577	228.81
530.792	204.81
531.007	208.81
531.221	211.81
531.436	219.81
531.651	215.81
531.865	220.81
532.08	227.81
532.295	220.81
532.509	212.81
532.724	218.81
532.938	211.81
533.153	216.81
533.367	211.81
533.582	211.81
533.796	219.81
534.011	204.81
534.225	212.81
534.44	202.81
534.654	220.81
534.868	202.81
535.083	204.81
535.297	215.81
535.511	209.81
535.726	214.81
535.94	204.81
536.154	201.81
536.369	204.81
536.583	197.81
536.797	181.81
537.011	210.81
537.225	193.81
537.44	196.81
537.654	192.81
537.868	201.81
538.082	212.81
538.296	208.81
538.51	192.81
538.724	215.81
538.938	197.81
539.153	196.81
539.367	202.81
539.581	204.81
539.795	201.81
540.009	212.81
540.222	206.81
540.436	191.81
540.65	194.81
540.864	205.81
541.078	191.81
541.292	205.81
541.506	214.81
541.72	206.81
541.934	216.81
542.147	200.81
542.361	203.81
542.575	203.81
542.789	200.81
543.002	208.81
543.216	203.81
543.43	192.81
543.644	188.81
543.857	200.81
544.071	201.81
544.285	193.81
544.498	205.81
544.712	196.81
544.925	217.81
545.139	204.81
545.352	213.81
545.566	216.81
545.779	209.81
545.993	212.81
546.206	206.81
546.42	212.81
546.633	219.81
546.847	216.81
547.06	215.81
547.274	206.81
547.487	222.81
547.7	194.81
547.914	195.81
548.127	196.81
548.34	225.81
548.554	208.81
548.767	215.81
548.98	220.81
549.193	209.81
549.407	200.81
549.62	220.81
549.833	216.81
550.046	207.81
550.259	203.81
550.473	209.81
550.686	214.81
550.899	200.81
551.112	192.81
551.325	196.81
551.538	186.81
551.751	189.81
551.964	203.81
552.177	209.81
552.39	200.81
552.603	204.81
552.816	203.81
553.029	225.81
553.242	206.81
553.455	218.81
553.667	225.81
553.88	225.81
554.093	204.81
554.306	204.81
554.519	220.81
554.732	212.81
554.944	213.81
555.157	212.81
555.37	205.81
555.583	198.81
555.795	208.81
556.008	198.81
556.221	195.81
556.433	175.81
556.646	187.81
556.859	182.81
557.071	184.81
557.284	199.81
557.496	192.81
557.709	192.81
557.921	181.81
558.134	183.81
558.346	201.81
558.559	183.81
558.771	197.81
558.984	203.81
559.196	178.81
559.409	171.81
559.621	175.81
559.833	170.81
560.046	192.81
560.258	196.81
560.47	182.81
560.683	186.81
560.895	188.81
561.107	184.81
561.32	184.81
561.532	172.81
561.744	196.81
561.956	182.81
562.168	187.81
562.381	192.81
562.593	185.81
562.805	200.81
563.017	190.81
563.229	183.81
563.441	200.81
563.653	187.81
563.865	198.81
564.077	193.81
564.289	178.81
564.501	190.81
564.713	199.81
564.925	179.81
565.137	194.81
565.349	180.81
565.561	201.81
565.773	196.81
565.985	196.81
566.197	226.81
566.408	229.81
566.62	246.81
566.832	266.81
567.044	267.81
567.255	258.81
567.467	262.81
567.679	269.81
567.891	304.81
568.102	322.81
568.314	300.81
568.526	267.81
568.737	249.81
568.949	242.81
569.161	213.81
569.372	205.81
569.584	206.81
569.795	199.81
570.007	189.81
570.218	183.81
570.43	198.81
570.641	184.81
570.853	182.81
571.064	178.81
571.276	191.81
571.487	191.81
571.698	194.81
571.91	189.81
572.121	179.81
572.333	166.81
572.544	168.81
572.755	170.81
572.966	176.81
573.178	178.81
573.389	178.81
573.6	163.81
573.811	176.81
574.023	178.81
574.234	152.81
574.445	173.81
574.656	170.81
574.867	161.81
575.078	165.81
575.289	179.81
575.501	171.81
575.712	181.81
575.923	171.81
576.134	160.81
576.345	163.81
576.556	163.81
576.767	166.81
576.978	160.81
577.188	183.81
577.399	150.81
577.61	158.81
577.821	152.81
578.032	169.81
578.243	148.81
578.454	164.81
578.665	172.81
578.875	131.81
579.086	140.81
579.297	152.81
579.508	166.81
579.718	144.81
579.929	149.81
580.14	148.81
580.35	156.81
580.561	137.81
580.772	162.81
580.982	161.81
581.193	144.81
581.403	150.81
581.614	142.81
581.825	157.81
582.035	155.81
582.246	153.81
582.456	159.81
582.667	152.81
582.877	165.81
583.087	150.81
583.298	160.81
583.508	146.81
583.719	163.81
583.929	141.81
584.139	149.81
584.35	142.81
584.56	169.81
584.77	137.81
584.981	166.81
585.191	149.81
585.401	150.81
585.611	151.81
585.821	151.81
586.032	140.81
586.242	146.81
586.452	148.81
586.662	157.81
586.872	149.81
587.082	162.81
587.292	142.81
587.502	144.81
587.713	165.81
587.923	162.81
588.133	156.81
588.343	160.81
588.553	152.81
588.762	156.81
588.972	155.81
589.182	151.81
589.392	166.81
589.602	148.81
589.812	150.81
590.022	164.81
590.232	152.81
590.441	160.81
590.651	150.81
590.861	141.81
591.071	165.81
591.281	156.81
591.49	150.81
591.7	159.81
591.91	156.81
592.119	143.81
592.329	168.81
592.539	156.81
592.748	166.81
592.958	169.81
593.167	170.81
593.377	163.81
593.587	192.81
593.796	186.81
594.006	174.81
594.215	187.81
594.424	170.81
594.634	183.81
594.843	150.81
595.053	173.81
595.262	143.81
595.472	161.81
595.681	143.81
595.89	148.81
596.1	169.81
596.309	155.81
596.518	158.81
596.727	150.81
596.937	153.81
597.146	128.81
597.355	156.81
597.564	154.81
597.774	145.81
597.983	148.81
598.192	144.81
598.401	143.81
598.61	144.81
598.819	158.81
599.028	128.81
599.237	152.81
599.446	135.81
599.655	141.81
599.864	138.81
600.073	157.81
600.282	128.81
600.491	133.81
600.7	129.81
600.909	126.81
601.118	135.81
601.327	138.81
601.536	150.81
601.745	146.81
601.953	155.81
602.162	131.81
602.371	137.81
602.58	142.81
602.789	134.81
602.997	142.81
603.206	152.81
603.415	131.81
603.623	126.81
603.832	156.81
604.041	132.81
604.249	128.81
604.458	129.81
604.666	129.81
604.875	138.81
605.084	145.81
605.292	140.81
605.501	126.81
605.709	128.81
605.918	131.81
606.126	141.81
606.334	137.81
606.543	138.81
606.751	142.81
606.96	141.81
607.168	126.81
607.376	134.81
607.585	138.81
607.793	128.81
608.001	129.81
608.21	135.81
608.418	132.81
608.626	132.81
608.834	137.81
609.043	138.81
609.251	134.81
609.459	136.81
609.667	142.81
609.875	134.81
610.083	138.81
610.291	128.81
610.499	138.81
610.707	133.81
610.916	135.81
611.124	137.81
611.332	135.81
611.54	128.81
611.748	113.81
611.955	131.81
612.163	126.81
612.371	132.81
612.579	139.81
612.787	128.81
612.995	123.81
613.203	134.81
613.411	128.81
613.618	140.81
613.826	137.81
614.034	130.81
614.242	147.81
614.449	134.81
614.657	124.81
614.865	137.81
615.072	134.81
615.28	133.81
615.488	115.81
615.695	138.81
615.903	129.81
616.111	130.81
616.318	146.81
616.526	145.81
616.733	125.81
616.941	148.81
617.148	155.81
617.356	139.81
617.563	135.81
617.771	132.81
617.978	144.81
618.185	126.81
618.393	132.81
618.6	128.81
618.807	146.81
619.015	133.81
619.222	126.81
619.429	138.81
619.637	125.81
619.844	124.81
620.051	129.81
620.258	137.81
620.466	121.81
620.673	121.81
620.88	129.81
621.087	125.81
621.294	122.81
621.501	128.81
621.708	126.81
621.915	128.81
622.122	138.81
622.329	145.81
622.536	134.81
622.743	137.81
622.95	129.81
623.157	123.81
623.364	117.81
623.571	129.81
623.778	127.81
623.985	136.81
624.192	118.81
624.399	118.81
624.606	118.81
624.812	120.81
625.019	120.81
625.226	128.81
625.433	129.81
625.639	122.81
625.846	125.81
626.053	121.81
626.259	112.81
626.466	118.81
626.673	112.81
626.879	131.81
627.086	119.81
627.293	114.81
627.499	124.81
627.706	115.81
627.912	151.81
628.119	130.81
628.325	119.81
628.532	134.81
628.738	118.81
628.945	119.81
629.151	105.81
629.357	113.81
629.564	134.81
629.77	129.81
629.976	98.81
630.183	117.81
630.389	105.81
630.595	115.81
630.802	126.81
631.008	112.81
631.214	112.81
631.42	114.81
631.627	118.81
631.833	117.81
632.039	121.81
632.245	113.81
632.451	130.81
632.657	133.81
632.863	118.81
633.069	128.81
633.275	130.81
633.481	115.81
633.688	132.81
633.893	127.81
634.099	124.81
634.305	127.81
634.511	122.81
634.717	108.81
634.923	116.81
635.129	113.81
635.335	123.81
635.541	110.81
635.747	113.81
635.952	112.81
636.158	122.81
636.364	112.81
636.57	117.81
636.775	119.81
636.981	120.81
637.187	117.81
637.392	122.81
637.598	124.81
637.804	130.81
638.009	94.81
638.215	122.81
638.421	114.81
638.626	116.81
638.832	118.81
639.037	120.81
639.243	108.81
639.448	112.81
639.654	110.81
639.859	111.81
640.065	105.81
640.27	129.81
640.475	116.81
640.681	102.81
640.886	131.81
641.091	101.81
641.297	114.81
641.502	118.81
641.707	115.81
641.913	116.81
642.118	108.81
642.323	105.81
642.528	114.81
642.733	123.81
642.939	110.81
643.144	108.81
643.349	112.81
643.554	120.81
643.759	141.81
643.964	121.81
644.169	107.81
644.374	99.81
644.579	111.81
644.784	109.81
644.989	112.81
645.194	115.81
645.399	101.81
645.604	102.81
645.809	126.81
646.014	109.81
646.219	112.81
646.423	100.81
646.628	101.81
646.833	120.81
647.038	112.81
647.243	118.81
647.447	117.81
647.652	108.81
647.857	109.81
648.062	117.81
648.266	126.81
648.471	129.81
648.676	118.81
648.88	126.81
649.085	109.81
649.289	128.81
649.494	112.81
649.698	111.81
649.903	112.81
650.107	102.81
650.312	95.81
650.516	119.81
650.721	118.81
650.925	113.81
651.13	119.81
651.334	116.81
651.539	100.81
651.743	102.81
651.947	117.81
652.152	112.81
652.356	108.81
652.56	122.81
652.764	104.81
652.969	106.81
653.173	98.81
653.377	100.81
653.581	129.81
653.785	99.81
653.99	107.81
654.194	84.81
654.398	97.81
654.602	94.81
654.806	105.81
655.01	117.81
655.214	114.81
655.418	106.81
655.622	107.81
655.826	101.81
656.03	109.81
656.234	108.81
656.438	107.81
656.642	94.81
656.846	107.81
657.049	101.81
657.253	107.81
657.457	101.81
657.661	94.81
657.865	88.81
658.068	90.81
658.272	85.81
658.476	103.81
658.68	105.81
658.883	104.81
659.087	86.81
659.291	87.81
659.494	107.81
659.698	91.81
659.901	92.81
660.105	85.81
660.309	84.81
660.512	113.81
660.716	80.81
660.919	82.81
661.123	97.81
661.326	99.81
661.53	81.81
661.733	96.81
661.936	91.81
662.14	94.81
662.343	95.81
662.546	85.81
662.75	88.81
662.953	79.81
663.156	78.81
663.36	94.81
663.563	78.81
663.766	89.81
663.969	71.81
664.173	100.81
664.376	80.81
664.579	81.81
664.782	91.81
664.985	78.81
665.188	83.81
665.391	101.81
665.594	94.81
665.797	90.81
666	96.81
666.203	95.81
666.406	73.81
666.609	69.81
666.812	81.81
667.015	81.81
667.218	85.81
667.421	91.81
667.624	64.81
667.827	92.81
668.03	82.81
668.232	75.81
668.435	91.81
668.638	71.81
668.841	82.81
669.043	80.81
669.246	86.81
669.449	78.81
669.651	85.81
669.854	99.81
670.057	69.81
670.259	91.81
670.462	81.81
670.665	99.81
670.867	73.81
671.07	66.81
671.272	88.81
671.475	95.81
671.677	88.81
671.88	99.81
672.082	71.81
672.284	94.81
672.487	78.81
672.689	80.81
672.892	96.81
