Data from 0.5MCu(NO3)2.Standard.Lamp.E10.CV._HRD10591_16-05-45-754.txt Node
Date: Mon Jul 22 16:05:45 EDT 2019
User: cochatt
Spectrometer: HR+D1059
Trigger mode: 1
Integration Time (sec): 1.000000E-1
Scans to average: 1
Electric dark correction enabled: true
Nonlinearity correction enabled: false
Boxcar width: 0
XAxis mode: Wavelengths
Number of Pixels in Spectrum: 2048
>>>>>Begin Spectral Data<<<<<
223.165	-18.69
223.4	-18.69
223.635	-18.69
223.869	-24.69
224.104	-19.69
224.338	1.31
224.573	-16.69
224.808	-25.69
225.042	3.31
225.277	-8.69
225.511	-18.69
225.746	10.31
225.98	20.31
226.215	13.31
226.449	12.31
226.683	18.31
226.918	25.31
227.152	28.31
227.387	39.31
227.621	37.31
227.856	44.31
228.09	51.31
228.324	42.31
228.559	51.31
228.793	52.31
229.027	86.31
229.262	71.31
229.496	73.31
229.73	86.31
229.964	87.31
230.199	87.31
230.433	77.31
230.667	97.31
230.901	90.31
231.136	77.31
231.37	91.31
231.604	99.31
231.838	101.31
232.072	96.31
232.306	96.31
232.541	96.31
232.775	80.31
233.009	90.31
233.243	76.31
233.477	101.31
233.711	94.31
233.945	97.31
234.179	85.31
234.413	86.31
234.647	105.31
234.881	98.31
235.115	98.31
235.349	92.31
235.583	105.31
235.817	99.31
236.051	102.31
236.285	95.31
236.519	91.31
236.753	91.31
236.987	78.31
237.221	106.31
237.455	109.31
237.689	85.31
237.922	74.31
238.156	81.31
238.39	89.31
238.624	98.31
238.858	91.31
239.091	87.31
239.325	104.31
239.559	103.31
239.793	104.31
240.027	114.31
240.26	89.31
240.494	98.31
240.728	85.31
240.961	89.31
241.195	88.31
241.429	101.31
241.662	106.31
241.896	99.31
242.13	100.31
242.363	104.31
242.597	108.31
242.83	106.31
243.064	99.31
243.298	98.31
243.531	87.31
243.765	101.31
243.998	99.31
244.232	106.31
244.465	107.31
244.699	103.31
244.932	125.31
245.166	96.31
245.399	105.31
245.633	107.31
245.866	110.31
246.099	97.31
246.333	107.31
246.566	100.31
246.8	106.31
247.033	112.31
247.266	115.31
247.5	95.31
247.733	111.31
247.966	110.31
248.2	116.31
248.433	116.31
248.666	119.31
248.899	124.31
249.133	104.31
249.366	119.31
249.599	111.31
249.832	116.31
250.066	105.31
250.299	121.31
250.532	124.31
250.765	101.31
250.998	117.31
251.231	106.31
251.465	118.31
251.698	116.31
251.931	116.31
252.164	131.31
252.397	112.31
252.63	114.31
252.863	112.31
253.096	118.31
253.329	124.31
253.562	107.31
253.795	115.31
254.028	140.31
254.261	137.31
254.494	120.31
254.727	132.31
254.96	127.31
255.193	106.31
255.426	137.31
255.659	122.31
255.892	113.31
256.124	128.31
256.357	116.31
256.59	123.31
256.823	135.31
257.056	132.31
257.289	117.31
257.521	128.31
257.754	131.31
257.987	123.31
258.22	132.31
258.452	133.31
258.685	138.31
258.918	141.31
259.151	147.31
259.383	122.31
259.616	120.31
259.849	127.31
260.081	125.31
260.314	142.31
260.547	127.31
260.779	121.31
261.012	120.31
261.244	129.31
261.477	143.31
261.71	132.31
261.942	131.31
262.175	140.31
262.407	130.31
262.64	144.31
262.872	146.31
263.105	134.31
263.337	145.31
263.57	141.31
263.802	142.31
264.035	144.31
264.267	138.31
264.499	157.31
264.732	139.31
264.964	141.31
265.197	143.31
265.429	156.31
265.661	147.31
265.894	154.31
266.126	153.31
266.358	150.31
266.591	144.31
266.823	147.31
267.055	144.31
267.287	152.31
267.52	135.31
267.752	157.31
267.984	137.31
268.216	141.31
268.448	151.31
268.681	149.31
268.913	149.31
269.145	144.31
269.377	144.31
269.609	154.31
269.841	140.31
270.073	148.31
270.306	162.31
270.538	149.31
270.77	165.31
271.002	153.31
271.234	163.31
271.466	147.31
271.698	161.31
271.93	145.31
272.162	154.31
272.394	148.31
272.626	155.31
272.858	165.31
273.09	169.31
273.322	136.31
273.553	154.31
273.785	149.31
274.017	152.31
274.249	153.31
274.481	155.31
274.713	150.31
274.945	152.31
275.176	171.31
275.408	177.31
275.64	165.31
275.872	153.31
276.104	140.31
276.335	152.31
276.567	151.31
276.799	154.31
277.031	161.31
277.262	175.31
277.494	178.31
277.726	158.31
277.957	172.31
278.189	161.31
278.421	168.31
278.652	164.31
278.884	175.31
279.115	167.31
279.347	164.31
279.579	159.31
279.81	168.31
280.042	175.31
280.273	167.31
280.505	170.31
280.736	169.31
280.968	157.31
281.199	193.31
281.431	191.31
281.662	180.31
281.894	171.31
282.125	172.31
282.356	176.31
282.588	195.31
282.819	171.31
283.051	171.31
283.282	187.31
283.513	190.31
283.745	200.31
283.976	193.31
284.207	168.31
284.439	177.31
284.67	176.31
284.901	171.31
285.132	183.31
285.364	179.31
285.595	170.31
285.826	183.31
286.057	188.31
286.288	179.31
286.52	189.31
286.751	178.31
286.982	167.31
287.213	194.31
287.444	188.31
287.675	195.31
287.906	191.31
288.138	184.31
288.369	191.31
288.6	207.31
288.831	209.31
289.062	194.31
289.293	191.31
289.524	187.31
289.755	184.31
289.986	196.31
290.217	168.31
290.448	191.31
290.679	187.31
290.91	200.31
291.141	202.31
291.371	207.31
291.602	189.31
291.833	202.31
292.064	207.31
292.295	204.31
292.526	216.31
292.757	195.31
292.987	201.31
293.218	188.31
293.449	188.31
293.68	211.31
293.91	196.31
294.141	211.31
294.372	204.31
294.603	204.31
294.833	207.31
295.064	204.31
295.295	210.31
295.525	191.31
295.756	205.31
295.987	194.31
296.217	208.31
296.448	198.31
296.679	212.31
296.909	209.31
297.14	196.31
297.37	213.31
297.601	215.31
297.831	222.31
298.062	211.31
298.292	219.31
298.523	229.31
298.753	227.31
298.984	210.31
299.214	224.31
299.445	205.31
299.675	218.31
299.905	226.31
300.136	219.31
300.366	209.31
300.597	224.31
300.827	226.31
301.057	215.31
301.288	211.31
301.518	210.31
301.748	222.31
301.979	235.31
302.209	225.31
302.439	221.31
302.669	217.31
302.9	218.31
303.13	233.31
303.36	216.31
303.59	232.31
303.82	219.31
304.051	215.31
304.281	227.31
304.511	218.31
304.741	216.31
304.971	228.31
305.201	227.31
305.431	226.31
305.661	232.31
305.891	208.31
306.121	216.31
306.352	221.31
306.582	216.31
306.812	207.31
307.042	209.31
307.272	205.31
307.502	206.31
307.731	204.31
307.961	224.31
308.191	203.31
308.421	213.31
308.651	215.31
308.881	198.31
309.111	211.31
309.341	230.31
309.571	221.31
309.8	201.31
310.03	216.31
310.26	223.31
310.49	220.31
310.72	221.31
310.949	204.31
311.179	211.31
311.409	222.31
311.639	234.31
311.868	229.31
312.098	222.31
312.328	233.31
312.557	235.31
312.787	220.31
313.017	204.31
313.246	240.31
313.476	232.31
313.706	247.31
313.935	219.31
314.165	228.31
314.394	223.31
314.624	233.31
314.853	233.31
315.083	214.31
315.312	225.31
315.542	218.31
315.771	234.31
316.001	215.31
316.23	226.31
316.46	221.31
316.689	228.31
316.919	218.31
317.148	222.31
317.377	225.31
317.607	235.31
317.836	226.31
318.065	226.31
318.295	226.31
318.524	226.31
318.753	207.31
318.983	219.31
319.212	219.31
319.441	225.31
319.67	231.31
319.9	224.31
320.129	230.31
320.358	211.31
320.587	231.31
320.816	230.31
321.046	225.31
321.275	235.31
321.504	219.31
321.733	222.31
321.962	225.31
322.191	238.31
322.42	223.31
322.649	242.31
322.878	235.31
323.108	227.31
323.337	223.31
323.566	231.31
323.795	235.31
324.024	227.31
324.253	231.31
324.482	236.31
324.71	240.31
324.939	221.31
325.168	241.31
325.397	231.31
325.626	254.31
325.855	239.31
326.084	265.31
326.313	248.31
326.542	240.31
326.77	239.31
326.999	234.31
327.228	262.31
327.457	257.31
327.686	257.31
327.914	250.31
328.143	259.31
328.372	253.31
328.6	241.31
328.829	243.31
329.058	243.31
329.287	247.31
329.515	243.31
329.744	256.31
329.972	240.31
330.201	238.31
330.43	231.31
330.658	248.31
330.887	259.31
331.115	249.31
331.344	243.31
331.572	259.31
331.801	258.31
332.03	275.31
332.258	288.31
332.486	274.31
332.715	283.31
332.943	285.31
333.172	284.31
333.4	316.31
333.629	317.31
333.857	331.31
334.085	311.31
334.314	305.31
334.542	303.31
334.771	297.31
334.999	292.31
335.227	285.31
335.455	304.31
335.684	279.31
335.912	283.31
336.14	286.31
336.369	287.31
336.597	270.31
336.825	275.31
337.053	269.31
337.281	269.31
337.51	276.31
337.738	287.31
337.966	251.31
338.194	255.31
338.422	260.31
338.65	253.31
338.878	257.31
339.106	248.31
339.334	256.31
339.562	251.31
339.79	271.31
340.018	271.31
340.246	261.31
340.474	256.31
340.702	274.31
340.93	263.31
341.158	265.31
341.386	258.31
341.614	245.31
341.842	238.31
342.07	243.31
342.298	253.31
342.526	260.31
342.754	245.31
342.981	257.31
343.209	244.31
343.437	265.31
343.665	275.31
343.893	292.31
344.12	298.31
344.348	282.31
344.576	253.31
344.804	277.31
345.031	247.31
345.259	263.31
345.487	265.31
345.714	256.31
345.942	253.31
346.17	242.31
346.397	240.31
346.625	247.31
346.853	242.31
347.08	249.31
347.308	265.31
347.535	240.31
347.763	261.31
347.99	245.31
348.218	259.31
348.445	254.31
348.673	258.31
348.9	244.31
349.128	250.31
349.355	244.31
349.583	247.31
349.81	267.31
350.037	232.31
350.265	239.31
350.492	234.31
350.72	250.31
350.947	241.31
351.174	236.31
351.402	225.31
351.629	234.31
351.856	236.31
352.083	229.31
352.311	235.31
352.538	229.31
352.765	240.31
352.992	241.31
353.22	226.31
353.447	228.31
353.674	247.31
353.901	241.31
354.128	232.31
354.355	235.31
354.583	230.31
354.81	245.31
355.037	231.31
355.264	226.31
355.491	231.31
355.718	233.31
355.945	250.31
356.172	239.31
356.399	243.31
356.626	253.31
356.853	232.31
357.08	228.31
357.307	244.31
357.534	223.31
357.761	255.31
357.988	249.31
358.215	231.31
358.441	251.31
358.668	213.31
358.895	219.31
359.122	228.31
359.349	228.31
359.576	216.31
359.802	239.31
360.029	221.31
360.256	241.31
360.483	246.31
360.709	243.31
360.936	234.31
361.163	247.31
361.39	237.31
361.616	247.31
361.843	221.31
362.07	258.31
362.296	260.31
362.523	251.31
362.749	243.31
362.976	253.31
363.203	237.31
363.429	218.31
363.656	227.31
363.882	231.31
364.109	222.31
364.335	220.31
364.562	230.31
364.788	234.31
365.015	234.31
365.241	232.31
365.468	216.31
365.694	229.31
365.92	228.31
366.147	233.31
366.373	214.31
366.599	230.31
366.826	246.31
367.052	232.31
367.278	239.31
367.505	231.31
367.731	239.31
367.957	225.31
368.184	235.31
368.41	236.31
368.636	227.31
368.862	241.31
369.089	221.31
369.315	229.31
369.541	234.31
369.767	224.31
369.993	239.31
370.219	260.31
370.445	241.31
370.672	247.31
370.898	260.31
371.124	251.31
371.35	236.31
371.576	244.31
371.802	243.31
372.028	254.31
372.254	243.31
372.48	248.31
372.706	246.31
372.932	277.31
373.158	271.31
373.384	252.31
373.61	232.31
373.835	233.31
374.061	244.31
374.287	251.31
374.513	263.31
374.739	267.31
374.965	272.31
375.191	264.31
375.416	285.31
375.642	263.31
375.868	247.31
376.094	272.31
376.319	260.31
376.545	239.31
376.771	242.31
376.997	250.31
377.222	248.31
377.448	245.31
377.674	250.31
377.899	257.31
378.125	243.31
378.35	232.31
378.576	259.31
378.802	247.31
379.027	234.31
379.253	240.31
379.478	255.31
379.704	255.31
379.929	228.31
380.155	255.31
380.38	264.31
380.606	260.31
380.831	248.31
381.057	261.31
381.282	258.31
381.507	252.31
381.733	255.31
381.958	258.31
382.184	254.31
382.409	254.31
382.634	241.31
382.86	248.31
383.085	260.31
383.31	265.31
383.535	272.31
383.761	277.31
383.986	267.31
384.211	281.31
384.436	272.31
384.662	289.31
384.887	297.31
385.112	284.31
385.337	289.31
385.562	285.31
385.787	282.31
386.013	294.31
386.238	274.31
386.463	283.31
386.688	289.31
386.913	281.31
387.138	268.31
387.363	277.31
387.588	282.31
387.813	293.31
388.038	277.31
388.263	285.31
388.488	290.31
388.713	293.31
388.938	282.31
389.163	268.31
389.387	280.31
389.612	280.31
389.837	269.31
390.062	271.31
390.287	289.31
390.512	277.31
390.736	276.31
390.961	287.31
391.186	290.31
391.411	288.31
391.636	303.31
391.86	305.31
392.085	315.31
392.31	312.31
392.534	303.31
392.759	307.31
392.984	292.31
393.208	289.31
393.433	309.31
393.658	300.31
393.882	304.31
394.107	318.31
394.331	316.31
394.556	305.31
394.78	319.31
395.005	297.31
395.229	312.31
395.454	316.31
395.678	314.31
395.903	311.31
396.127	312.31
396.352	304.31
396.576	293.31
396.801	306.31
397.025	297.31
397.249	291.31
397.474	295.31
397.698	303.31
397.922	323.31
398.147	310.31
398.371	320.31
398.595	316.31
398.82	331.31
399.044	367.31
399.268	388.31
399.492	440.31
399.717	517.31
399.941	497.31
400.165	458.31
400.389	391.31
400.613	361.31
400.837	335.31
401.062	344.31
401.286	313.31
401.51	342.31
401.734	338.31
401.958	326.31
402.182	322.31
402.406	348.31
402.63	377.31
402.854	383.31
403.078	356.31
403.302	377.31
403.526	379.31
403.75	383.31
403.974	402.31
404.198	389.31
404.422	388.31
404.645	398.31
404.869	399.31
405.093	381.31
405.317	359.31
405.541	356.31
405.765	371.31
405.988	371.31
406.212	377.31
406.436	365.31
406.66	363.31
406.883	365.31
407.107	397.31
407.331	415.31
407.555	427.31
407.778	423.31
408.002	400.31
408.226	392.31
408.449	386.31
408.673	387.31
408.896	394.31
409.12	392.31
409.344	370.31
409.567	377.31
409.791	387.31
410.014	387.31
410.238	377.31
410.461	363.31
410.685	378.31
410.908	369.31
411.132	361.31
411.355	354.31
411.578	337.31
411.802	341.31
412.025	340.31
412.249	359.31
412.472	341.31
412.695	347.31
412.919	324.31
413.142	317.31
413.365	311.31
413.589	344.31
413.812	327.31
414.035	334.31
414.258	330.31
414.482	344.31
414.705	329.31
414.928	343.31
415.151	338.31
415.374	327.31
415.597	319.31
415.821	357.31
416.044	317.31
416.267	315.31
416.49	332.31
416.713	328.31
416.936	326.31
417.159	320.31
417.382	346.31
417.605	333.31
417.828	332.31
418.051	332.31
418.274	343.31
418.497	349.31
418.72	343.31
418.943	335.31
419.166	348.31
419.389	359.31
419.611	354.31
419.834	351.31
420.057	334.31
420.28	340.31
420.503	328.31
420.726	355.31
420.948	330.31
421.171	340.31
421.394	331.31
421.617	324.31
421.839	346.31
422.062	353.31
422.285	320.31
422.507	356.31
422.73	336.31
422.953	338.31
423.175	344.31
423.398	348.31
423.621	341.31
423.843	377.31
424.066	352.31
424.288	358.31
424.511	344.31
424.733	351.31
424.956	343.31
425.178	343.31
425.401	332.31
425.623	356.31
425.846	332.31
426.068	329.31
426.291	329.31
426.513	311.31
426.735	316.31
426.958	319.31
427.18	289.31
427.402	331.31
427.625	300.31
427.847	285.31
428.069	303.31
428.292	306.31
428.514	292.31
428.736	305.31
428.958	294.31
429.181	300.31
429.403	295.31
429.625	297.31
429.847	306.31
430.069	289.31
430.292	285.31
430.514	282.31
430.736	307.31
430.958	305.31
431.18	293.31
431.402	301.31
431.624	310.31
431.846	314.31
432.068	313.31
432.29	319.31
432.512	312.31
432.734	319.31
432.956	299.31
433.178	297.31
433.4	295.31
433.622	313.31
433.844	314.31
434.066	336.31
434.287	295.31
434.509	304.31
434.731	314.31
434.953	360.31
435.175	349.31
435.397	340.31
435.618	317.31
435.84	305.31
436.062	289.31
436.284	297.31
436.505	293.31
436.727	300.31
436.949	283.31
437.17	285.31
437.392	304.31
437.614	304.31
437.835	294.31
438.057	291.31
438.278	287.31
438.5	299.31
438.721	284.31
438.943	276.31
439.165	288.31
439.386	290.31
439.608	307.31
439.829	291.31
440.05	313.31
440.272	299.31
440.493	314.31
440.715	311.31
440.936	310.31
441.158	299.31
441.379	307.31
441.6	336.31
441.822	334.31
442.043	332.31
442.264	324.31
442.486	308.31
442.707	319.31
442.928	334.31
443.149	328.31
443.371	323.31
443.592	358.31
443.813	356.31
444.034	344.31
444.255	339.31
444.476	354.31
444.698	377.31
444.919	381.31
445.14	521.31
445.361	410.31
445.582	337.31
445.803	329.31
446.024	308.31
446.245	318.31
446.466	287.31
446.687	294.31
446.908	299.31
447.129	292.31
447.35	298.31
447.571	291.31
447.792	298.31
448.013	291.31
448.234	287.31
448.455	305.31
448.675	280.31
448.896	293.31
449.117	275.31
449.338	286.31
449.559	293.31
449.779	289.31
450	284.31
450.221	293.31
450.442	284.31
450.662	284.31
450.883	280.31
451.104	288.31
451.324	290.31
451.545	287.31
451.766	291.31
451.986	290.31
452.207	288.31
452.428	272.31
452.648	272.31
452.869	247.31
453.089	259.31
453.31	288.31
453.53	288.31
453.751	279.31
453.971	279.31
454.192	265.31
454.412	266.31
454.633	245.31
454.853	274.31
455.073	269.31
455.294	261.31
455.514	279.31
455.734	280.31
455.955	273.31
456.175	264.31
456.395	257.31
456.616	260.31
456.836	265.31
457.056	269.31
457.276	252.31
457.497	277.31
457.717	270.31
457.937	276.31
458.157	274.31
458.377	269.31
458.598	287.31
458.818	269.31
459.038	268.31
459.258	296.31
459.478	325.31
459.698	301.31
459.918	305.31
460.138	320.31
460.358	344.31
460.578	352.31
460.798	355.31
461.018	351.31
461.238	343.31
461.458	343.31
461.678	356.31
461.898	346.31
462.118	354.31
462.338	387.31
462.558	371.31
462.777	411.31
462.997	442.31
463.217	465.31
463.437	478.31
463.657	426.31
463.876	393.31
464.096	402.31
464.316	411.31
464.536	392.31
464.755	411.31
464.975	355.31
465.195	363.31
465.414	341.31
465.634	314.31
465.854	291.31
466.073	308.31
466.293	313.31
466.512	305.31
466.732	304.31
466.951	279.31
467.171	287.31
467.391	299.31
467.61	281.31
467.829	301.31
468.049	296.31
468.268	279.31
468.488	294.31
468.707	288.31
468.927	267.31
469.146	288.31
469.365	296.31
469.585	290.31
469.804	289.31
470.023	296.31
470.243	277.31
470.462	308.31
470.681	327.31
470.901	303.31
471.12	298.31
471.339	314.31
471.558	307.31
471.777	283.31
471.997	304.31
472.216	298.31
472.435	281.31
472.654	290.31
472.873	281.31
473.092	284.31
473.311	282.31
473.53	290.31
473.749	295.31
473.968	286.31
474.187	288.31
474.406	269.31
474.625	280.31
474.844	285.31
475.063	296.31
475.282	293.31
475.501	302.31
475.72	262.31
475.939	281.31
476.158	275.31
476.377	288.31
476.596	282.31
476.814	292.31
477.033	287.31
477.252	295.31
477.471	302.31
477.69	319.31
477.908	305.31
478.127	322.31
478.346	343.31
478.564	324.31
478.783	333.31
479.002	337.31
479.22	344.31
479.439	340.31
479.658	345.31
479.876	342.31
480.095	363.31
480.313	360.31
480.532	381.31
480.751	387.31
480.969	343.31
481.188	348.31
481.406	332.31
481.624	342.31
481.843	330.31
482.061	312.31
482.28	317.31
482.498	327.31
482.717	310.31
482.935	313.31
483.153	312.31
483.372	342.31
483.59	316.31
483.808	326.31
484.027	323.31
484.245	330.31
484.463	336.31
484.681	339.31
484.9	332.31
485.118	353.31
485.336	340.31
485.554	343.31
485.772	350.31
485.99	327.31
486.209	363.31
486.427	340.31
486.645	360.31
486.863	343.31
487.081	337.31
487.299	337.31
487.517	361.31
487.735	357.31
487.953	353.31
488.171	346.31
488.389	344.31
488.607	353.31
488.825	336.31
489.043	334.31
489.261	335.31
489.479	345.31
489.696	330.31
489.914	344.31
490.132	323.31
490.35	340.31
490.568	339.31
490.786	321.31
491.003	338.31
491.221	322.31
491.439	343.31
491.657	336.31
491.874	344.31
492.092	353.31
492.31	358.31
492.527	341.31
492.745	367.31
492.963	344.31
493.18	348.31
493.398	346.31
493.615	359.31
493.833	346.31
494.05	370.31
494.268	360.31
494.485	371.31
494.703	361.31
494.92	356.31
495.138	365.31
495.355	355.31
495.573	334.31
495.79	361.31
496.008	363.31
496.225	366.31
496.442	355.31
496.66	373.31
496.877	360.31
497.094	372.31
497.312	384.31
497.529	387.31
497.746	393.31
497.963	400.31
498.181	426.31
498.398	435.31
498.615	463.31
498.832	495.31
499.049	496.31
499.267	543.31
499.484	600.31
499.701	693.31
499.918	755.31
500.135	844.31
500.352	968.31
500.569	1044.31
500.786	1034.31
501.003	949.31
501.22	826.31
501.437	735.31
501.654	667.31
501.871	593.31
502.088	546.31
502.305	501.31
502.522	503.31
502.739	469.31
502.956	459.31
503.172	448.31
503.389	410.31
503.606	419.31
503.823	398.31
504.04	415.31
504.256	408.31
504.473	413.31
504.69	435.31
504.907	422.31
505.123	388.31
505.34	374.31
505.557	350.31
505.773	374.31
505.99	321.31
506.207	327.31
506.423	347.31
506.64	346.31
506.856	344.31
507.073	340.31
507.289	332.31
507.506	325.31
507.722	313.31
507.939	327.31
508.155	314.31
508.372	316.31
508.588	319.31
508.805	315.31
509.021	304.31
509.238	305.31
509.454	308.31
509.67	301.31
509.887	313.31
510.103	325.31
510.319	312.31
510.536	313.31
510.752	306.31
510.968	307.31
511.184	300.31
511.401	301.31
511.617	304.31
511.833	293.31
512.049	305.31
512.265	310.31
512.481	300.31
512.698	291.31
512.914	291.31
513.13	300.31
513.346	307.31
513.562	303.31
513.778	320.31
513.994	294.31
514.21	319.31
514.426	307.31
514.642	303.31
514.858	290.31
515.074	314.31
515.29	318.31
515.506	310.31
515.721	315.31
515.937	324.31
516.153	335.31
516.369	335.31
516.585	345.31
516.801	348.31
517.016	366.31
517.232	381.31
517.448	397.31
517.664	448.31
517.879	425.31
518.095	418.31
518.311	413.31
518.527	380.31
518.742	392.31
518.958	386.31
519.173	359.31
519.389	352.31
519.605	336.31
519.82	319.31
520.036	319.31
520.251	320.31
520.467	311.31
520.682	312.31
520.898	319.31
521.113	296.31
521.329	313.31
521.544	295.31
521.76	298.31
521.975	284.31
522.19	290.31
522.406	293.31
522.621	284.31
522.836	289.31
523.052	287.31
523.267	297.31
523.482	288.31
523.698	288.31
523.913	288.31
524.128	279.31
524.343	304.31
524.559	302.31
524.774	282.31
524.989	294.31
525.204	266.31
525.419	291.31
525.634	269.31
525.849	279.31
526.064	287.31
526.28	287.31
526.495	306.31
526.71	288.31
526.925	286.31
527.14	272.31
527.355	278.31
527.57	269.31
527.785	272.31
527.999	281.31
528.214	290.31
528.429	291.31
528.644	290.31
528.859	277.31
529.074	261.31
529.289	289.31
529.503	292.31
529.718	304.31
529.933	292.31
530.148	289.31
530.363	277.31
530.577	287.31
530.792	291.31
531.007	266.31
531.221	273.31
531.436	284.31
531.651	300.31
531.865	292.31
532.08	290.31
532.295	289.31
532.509	304.31
532.724	296.31
532.938	288.31
533.153	292.31
533.367	276.31
533.582	296.31
533.796	288.31
534.011	288.31
534.225	307.31
534.44	287.31
534.654	290.31
534.868	276.31
535.083	281.31
535.297	283.31
535.511	272.31
535.726	267.31
535.94	275.31
536.154	269.31
536.369	260.31
536.583	291.31
536.797	265.31
537.011	259.31
537.225	271.31
537.44	266.31
537.654	270.31
537.868	269.31
538.082	271.31
538.296	265.31
538.51	258.31
538.724	265.31
538.938	291.31
539.153	275.31
539.367	276.31
539.581	273.31
539.795	262.31
540.009	267.31
540.222	256.31
540.436	279.31
540.65	277.31
540.864	279.31
541.078	271.31
541.292	275.31
541.506	249.31
541.72	273.31
541.934	268.31
542.147	251.31
542.361	273.31
542.575	282.31
542.789	279.31
543.002	269.31
543.216	233.31
543.43	251.31
543.644	263.31
543.857	261.31
544.071	272.31
544.285	261.31
544.498	246.31
544.712	272.31
544.925	268.31
545.139	270.31
545.352	270.31
545.566	276.31
545.779	256.31
545.993	272.31
546.206	264.31
546.42	281.31
546.633	266.31
546.847	265.31
547.06	276.31
547.274	276.31
547.487	288.31
547.7	283.31
547.914	269.31
548.127	276.31
548.34	279.31
548.554	283.31
548.767	278.31
548.98	261.31
549.193	263.31
549.407	270.31
549.62	286.31
549.833	277.31
550.046	283.31
550.259	279.31
550.473	287.31
550.686	264.31
550.899	251.31
551.112	275.31
551.325	264.31
551.538	285.31
551.751	255.31
551.964	288.31
552.177	274.31
552.39	272.31
552.603	267.31
552.816	288.31
553.029	294.31
553.242	295.31
553.455	299.31
553.667	300.31
553.88	307.31
554.093	303.31
554.306	294.31
554.519	293.31
554.732	279.31
554.944	277.31
555.157	268.31
555.37	258.31
555.583	255.31
555.795	265.31
556.008	248.31
556.221	235.31
556.433	253.31
556.646	228.31
556.859	249.31
557.071	258.31
557.284	245.31
557.496	248.31
557.709	244.31
557.921	230.31
558.134	233.31
558.346	267.31
558.559	230.31
558.771	229.31
558.984	215.31
559.196	245.31
559.409	241.31
559.621	237.31
559.833	269.31
560.046	246.31
560.258	246.31
560.47	228.31
560.683	229.31
560.895	252.31
561.107	231.31
561.32	236.31
561.532	237.31
561.744	248.31
561.956	243.31
562.168	225.31
562.381	233.31
562.593	232.31
562.805	226.31
563.017	251.31
563.229	239.31
563.441	239.31
563.653	232.31
563.865	261.31
564.077	232.31
564.289	253.31
564.501	265.31
564.713	259.31
564.925	251.31
565.137	256.31
565.349	273.31
565.561	282.31
565.773	284.31
565.985	297.31
566.197	281.31
566.408	300.31
566.62	360.31
566.832	375.31
567.044	379.31
567.255	370.31
567.467	372.31
567.679	388.31
567.891	428.31
568.102	441.31
568.314	418.31
568.526	381.31
568.737	343.31
568.949	317.31
569.161	306.31
569.372	291.31
569.584	249.31
569.795	277.31
570.007	255.31
570.218	260.31
570.43	243.31
570.641	238.31
570.853	266.31
571.064	269.31
571.276	259.31
571.487	260.31
571.698	229.31
571.91	237.31
572.121	234.31
572.333	232.31
572.544	224.31
572.755	219.31
572.966	211.31
573.178	230.31
573.389	197.31
573.6	205.31
573.811	229.31
574.023	211.31
574.234	213.31
574.445	213.31
574.656	211.31
574.867	214.31
575.078	224.31
575.289	223.31
575.501	229.31
575.712	200.31
575.923	217.31
576.134	210.31
576.345	207.31
576.556	218.31
576.767	209.31
576.978	194.31
577.188	205.31
577.399	209.31
577.61	203.31
577.821	207.31
578.032	200.31
578.243	187.31
578.454	199.31
578.665	205.31
578.875	189.31
579.086	195.31
579.297	195.31
579.508	189.31
579.718	201.31
579.929	188.31
580.14	196.31
580.35	199.31
580.561	192.31
580.772	185.31
580.982	193.31
581.193	188.31
581.403	194.31
581.614	200.31
581.825	193.31
582.035	200.31
582.246	187.31
582.456	200.31
582.667	188.31
582.877	179.31
583.087	183.31
583.298	192.31
583.508	187.31
583.719	172.31
583.929	204.31
584.139	197.31
584.35	194.31
584.56	190.31
584.77	196.31
584.981	178.31
585.191	175.31
585.401	183.31
585.611	170.31
585.821	195.31
586.032	194.31
586.242	186.31
586.452	196.31
586.662	187.31
586.872	185.31
587.082	172.31
587.292	188.31
587.502	198.31
587.713	196.31
587.923	174.31
588.133	177.31
588.343	186.31
588.553	189.31
588.762	190.31
588.972	196.31
589.182	162.31
589.392	178.31
589.602	192.31
589.812	196.31
590.022	196.31
590.232	193.31
590.441	189.31
590.651	191.31
590.861	184.31
591.071	204.31
591.281	179.31
591.49	184.31
591.7	196.31
591.91	200.31
592.119	195.31
592.329	199.31
592.539	193.31
592.748	223.31
592.958	220.31
593.167	221.31
593.377	229.31
593.587	241.31
593.796	239.31
594.006	252.31
594.215	218.31
594.424	242.31
594.634	234.31
594.843	239.31
595.053	233.31
595.262	205.31
595.472	193.31
595.681	201.31
595.89	198.31
596.1	191.31
596.309	195.31
596.518	195.31
596.727	187.31
596.937	180.31
597.146	192.31
597.355	185.31
597.564	181.31
597.774	184.31
597.983	168.31
598.192	168.31
598.401	160.31
598.61	156.31
598.819	165.31
599.028	153.31
599.237	172.31
599.446	177.31
599.655	175.31
599.864	168.31
600.073	164.31
600.282	168.31
600.491	164.31
600.7	172.31
600.909	166.31
601.118	168.31
601.327	158.31
601.536	181.31
601.745	161.31
601.953	177.31
602.162	160.31
602.371	155.31
602.58	169.31
602.789	142.31
602.997	164.31
603.206	172.31
603.415	160.31
603.623	167.31
603.832	165.31
604.041	163.31
604.249	163.31
604.458	172.31
604.666	162.31
604.875	162.31
605.084	156.31
605.292	162.31
605.501	161.31
605.709	156.31
605.918	160.31
606.126	155.31
606.334	171.31
606.543	165.31
606.751	166.31
606.96	164.31
607.168	154.31
607.376	163.31
607.585	163.31
607.793	148.31
608.001	175.31
608.21	157.31
608.418	147.31
608.626	164.31
608.834	156.31
609.043	164.31
609.251	155.31
609.459	149.31
609.667	150.31
609.875	156.31
610.083	156.31
610.291	159.31
610.499	151.31
610.707	147.31
610.916	160.31
611.124	148.31
611.332	169.31
611.54	158.31
611.748	151.31
611.955	141.31
612.163	155.31
612.371	149.31
612.579	150.31
612.787	165.31
612.995	166.31
613.203	156.31
613.411	155.31
613.618	147.31
613.826	164.31
614.034	153.31
614.242	160.31
614.449	154.31
614.657	143.31
614.865	155.31
615.072	157.31
615.28	154.31
615.488	154.31
615.695	152.31
615.903	163.31
616.111	157.31
616.318	152.31
616.526	162.31
616.733	155.31
616.941	151.31
617.148	178.31
617.356	178.31
617.563	159.31
617.771	169.31
617.978	155.31
618.185	168.31
618.393	152.31
618.6	153.31
618.807	161.31
619.015	148.31
619.222	144.31
619.429	152.31
619.637	163.31
619.844	159.31
620.051	158.31
620.258	158.31
620.466	146.31
620.673	150.31
620.88	141.31
621.087	132.31
621.294	152.31
621.501	150.31
621.708	162.31
621.915	149.31
622.122	156.31
622.329	136.31
622.536	153.31
622.743	147.31
622.95	141.31
623.157	127.31
623.364	139.31
623.571	139.31
623.778	146.31
623.985	138.31
624.192	153.31
624.399	141.31
624.606	143.31
624.812	144.31
625.019	145.31
625.226	144.31
625.433	151.31
625.639	144.31
625.846	133.31
626.053	135.31
626.259	145.31
626.466	145.31
626.673	139.31
626.879	131.31
627.086	137.31
627.293	135.31
627.499	130.31
627.706	135.31
627.912	161.31
628.119	132.31
628.325	131.31
628.532	156.31
628.738	129.31
628.945	135.31
629.151	129.31
629.357	132.31
629.564	126.31
629.77	139.31
629.976	140.31
630.183	137.31
630.389	135.31
630.595	152.31
630.802	127.31
631.008	145.31
631.214	127.31
631.42	115.31
631.627	149.31
631.833	132.31
632.039	150.31
632.245	127.31
632.451	132.31
632.657	136.31
632.863	142.31
633.069	119.31
633.275	134.31
633.481	121.31
633.688	128.31
633.893	140.31
634.099	133.31
634.305	139.31
634.511	130.31
634.717	128.31
634.923	112.31
635.129	121.31
635.335	130.31
635.541	143.31
635.747	117.31
635.952	124.31
636.158	135.31
636.364	137.31
636.57	136.31
636.775	132.31
636.981	130.31
637.187	132.31
637.392	133.31
637.598	132.31
637.804	124.31
638.009	134.31
638.215	141.31
638.421	128.31
638.626	119.31
638.832	127.31
639.037	131.31
639.243	121.31
639.448	129.31
639.654	137.31
639.859	136.31
640.065	137.31
640.27	125.31
640.475	122.31
640.681	120.31
640.886	140.31
641.091	125.31
641.297	139.31
641.502	107.31
641.707	129.31
641.913	123.31
642.118	123.31
642.323	121.31
642.528	124.31
642.733	118.31
642.939	116.31
643.144	116.31
643.349	128.31
643.554	148.31
643.759	127.31
643.964	119.31
644.169	127.31
644.374	131.31
644.579	134.31
644.784	126.31
644.989	129.31
645.194	123.31
645.399	104.31
645.604	123.31
645.809	121.31
646.014	131.31
646.219	123.31
646.423	122.31
646.628	121.31
646.833	127.31
647.038	140.31
647.243	133.31
647.447	123.31
647.652	131.31
647.857	127.31
648.062	125.31
648.266	123.31
648.471	123.31
648.676	141.31
648.88	137.31
649.085	148.31
649.289	140.31
649.494	119.31
649.698	132.31
649.903	119.31
650.107	119.31
650.312	126.31
650.516	137.31
650.721	119.31
650.925	118.31
651.13	120.31
651.334	127.31
651.539	126.31
651.743	119.31
651.947	129.31
652.152	131.31
652.356	111.31
652.56	103.31
652.764	98.31
652.969	109.31
653.173	111.31
653.377	121.31
653.581	98.31
653.785	104.31
653.99	101.31
654.194	109.31
654.398	104.31
654.602	115.31
654.806	106.31
655.01	103.31
655.214	105.31
655.418	108.31
655.622	96.31
655.826	114.31
656.03	117.31
656.234	121.31
656.438	134.31
656.642	133.31
656.846	131.31
657.049	105.31
657.253	113.31
657.457	108.31
657.661	109.31
657.865	105.31
658.068	107.31
658.272	103.31
658.476	97.31
658.68	90.31
658.883	111.31
659.087	95.31
659.291	91.31
659.494	105.31
659.698	101.31
659.901	79.31
660.105	97.31
660.309	82.31
660.512	83.31
660.716	100.31
660.919	94.31
661.123	85.31
661.326	80.31
661.53	81.31
661.733	89.31
661.936	89.31
662.14	91.31
662.343	82.31
662.546	67.31
662.75	89.31
662.953	77.31
663.156	84.31
663.36	87.31
663.563	91.31
663.766	96.31
663.969	85.31
664.173	76.31
664.376	75.31
664.579	84.31
664.782	77.31
664.985	80.31
665.188	73.31
665.391	87.31
665.594	73.31
665.797	76.31
666	67.31
666.203	84.31
666.406	73.31
666.609	76.31
666.812	88.31
667.015	81.31
667.218	74.31
667.421	67.31
667.624	84.31
667.827	79.31
668.03	87.31
668.232	95.31
668.435	83.31
668.638	84.31
668.841	73.31
669.043	81.31
669.246	91.31
669.449	81.31
669.651	78.31
669.854	78.31
670.057	81.31
670.259	79.31
670.462	85.31
670.665	87.31
670.867	88.31
671.07	87.31
671.272	107.31
671.475	91.31
671.677	80.31
671.88	88.31
672.082	76.31
672.284	95.31
672.487	79.31
672.689	73.31
672.892	71.31
