Data from 0.5MCu(NO3)2.Standard.Lamp.E10.CV._HRD10591_16-05-59-753.txt Node
Date: Mon Jul 22 16:05:59 EDT 2019
User: cochatt
Spectrometer: HR+D1059
Trigger mode: 1
Integration Time (sec): 1.000000E-1
Scans to average: 1
Electric dark correction enabled: true
Nonlinearity correction enabled: false
Boxcar width: 0
XAxis mode: Wavelengths
Number of Pixels in Spectrum: 2048
>>>>>Begin Spectral Data<<<<<
223.165	-21
223.4	-21
223.635	-21
223.869	-18
224.104	-15
224.338	-24
224.573	-8
224.808	-18
225.042	-5
225.277	0
225.511	5
225.746	15
225.98	0
226.215	12
226.449	9
226.683	22
226.918	25
227.152	21
227.387	43
227.621	37
227.856	50
228.09	50
228.324	48
228.559	56
228.793	57
229.027	50
229.262	65
229.496	68
229.73	60
229.964	84
230.199	91
230.433	81
230.667	78
230.901	86
231.136	92
231.37	85
231.604	93
231.838	88
232.072	82
232.306	81
232.541	92
232.775	90
233.009	87
233.243	94
233.477	117
233.711	101
233.945	97
234.179	94
234.413	91
234.647	90
234.881	89
235.115	105
235.349	97
235.583	94
235.817	84
236.051	91
236.285	98
236.519	101
236.753	102
236.987	93
237.221	82
237.455	72
237.689	92
237.922	86
238.156	78
238.39	78
238.624	107
238.858	85
239.091	94
239.325	90
239.559	97
239.793	100
240.027	84
240.26	86
240.494	95
240.728	84
240.961	86
241.195	98
241.429	99
241.662	97
241.896	92
242.13	90
242.363	90
242.597	91
242.83	90
243.064	94
243.298	98
243.531	96
243.765	100
243.998	93
244.232	102
244.465	104
244.699	93
244.932	91
245.166	91
245.399	114
245.633	111
245.866	100
246.099	105
246.333	112
246.566	106
246.8	98
247.033	81
247.266	98
247.5	114
247.733	103
247.966	119
248.2	115
248.433	112
248.666	113
248.899	114
249.133	113
249.366	102
249.599	94
249.832	117
250.066	117
250.299	104
250.532	114
250.765	126
250.998	110
251.231	89
251.465	99
251.698	101
251.931	89
252.164	95
252.397	100
252.63	101
252.863	109
253.096	108
253.329	100
253.562	100
253.795	99
254.028	120
254.261	132
254.494	123
254.727	104
254.96	107
255.193	112
255.426	94
255.659	123
255.892	115
256.124	106
256.357	113
256.59	106
256.823	108
257.056	113
257.289	112
257.521	100
257.754	126
257.987	116
258.22	107
258.452	109
258.685	128
258.918	111
259.151	102
259.383	108
259.616	103
259.849	128
260.081	106
260.314	108
260.547	115
260.779	110
261.012	118
261.244	114
261.477	133
261.71	120
261.942	122
262.175	120
262.407	111
262.64	119
262.872	116
263.105	115
263.337	113
263.57	105
263.802	124
264.035	120
264.267	108
264.499	140
264.732	129
264.964	121
265.197	113
265.429	123
265.661	122
265.894	129
266.126	126
266.358	123
266.591	137
266.823	122
267.055	133
267.287	128
267.52	121
267.752	126
267.984	117
268.216	136
268.448	119
268.681	122
268.913	137
269.145	134
269.377	128
269.609	125
269.841	128
270.073	122
270.306	134
270.538	125
270.77	128
271.002	134
271.234	124
271.466	137
271.698	124
271.93	141
272.162	139
272.394	135
272.626	135
272.858	120
273.09	143
273.322	141
273.553	128
273.785	148
274.017	134
274.249	130
274.481	139
274.713	126
274.945	135
275.176	130
275.408	138
275.64	142
275.872	140
276.104	130
276.335	142
276.567	133
276.799	140
277.031	129
277.262	142
277.494	137
277.726	129
277.957	128
278.189	149
278.421	139
278.652	145
278.884	156
279.115	133
279.347	139
279.579	150
279.81	135
280.042	137
280.273	152
280.505	146
280.736	132
280.968	141
281.199	152
281.431	150
281.662	156
281.894	151
282.125	140
282.356	140
282.588	148
282.819	152
283.051	153
283.282	150
283.513	149
283.745	143
283.976	139
284.207	136
284.439	152
284.67	158
284.901	149
285.132	145
285.364	150
285.595	161
285.826	152
286.057	137
286.288	149
286.52	157
286.751	138
286.982	154
287.213	144
287.444	160
287.675	157
287.906	134
288.138	157
288.369	176
288.6	159
288.831	144
289.062	164
289.293	156
289.524	154
289.755	167
289.986	150
290.217	153
290.448	160
290.679	167
290.91	160
291.141	153
291.371	167
291.602	164
291.833	161
292.064	169
292.295	165
292.526	144
292.757	149
292.987	150
293.218	144
293.449	153
293.68	167
293.91	156
294.141	148
294.372	154
294.603	170
294.833	160
295.064	171
295.295	166
295.525	162
295.756	164
295.987	170
296.217	164
296.448	151
296.679	145
296.909	155
297.14	176
297.37	184
297.601	173
297.831	169
298.062	168
298.292	168
298.523	189
298.753	161
298.984	152
299.214	170
299.445	184
299.675	183
299.905	181
300.136	183
300.366	164
300.597	173
300.827	189
301.057	170
301.288	181
301.518	186
301.748	178
301.979	188
302.209	194
302.439	168
302.669	189
302.9	166
303.13	160
303.36	173
303.59	183
303.82	176
304.051	176
304.281	167
304.511	193
304.741	175
304.971	165
305.201	169
305.431	178
305.661	178
305.891	172
306.121	176
306.352	164
306.582	177
306.812	175
307.042	162
307.272	169
307.502	182
307.731	176
307.961	182
308.191	176
308.421	181
308.651	185
308.881	166
309.111	177
309.341	174
309.571	168
309.8	160
310.03	185
310.26	171
310.49	164
310.72	180
310.949	172
311.179	161
311.409	169
311.639	190
311.868	184
312.098	172
312.328	171
312.557	184
312.787	149
313.017	176
313.246	185
313.476	188
313.706	181
313.935	164
314.165	178
314.394	184
314.624	167
314.853	196
315.083	182
315.312	172
315.542	171
315.771	188
316.001	180
316.23	181
316.46	190
316.689	181
316.919	172
317.148	170
317.377	173
317.607	178
317.836	176
318.065	182
318.295	169
318.524	175
318.753	189
318.983	182
319.212	159
319.441	184
319.67	174
319.9	188
320.129	200
320.358	188
320.587	191
320.816	168
321.046	182
321.275	183
321.504	186
321.733	204
321.962	172
322.191	187
322.42	171
322.649	168
322.878	188
323.108	177
323.337	189
323.566	179
323.795	170
324.024	180
324.253	176
324.482	187
324.71	176
324.939	176
325.168	160
325.397	205
325.626	176
325.855	187
326.084	208
326.313	186
326.542	190
326.77	209
326.999	181
327.228	192
327.457	196
327.686	201
327.914	171
328.143	185
328.372	190
328.6	184
328.829	178
329.058	197
329.287	179
329.515	181
329.744	192
329.972	192
330.201	200
330.43	198
330.658	198
330.887	200
331.115	196
331.344	191
331.572	192
331.801	197
332.03	207
332.258	197
332.486	196
332.715	204
332.943	198
333.172	243
333.4	226
333.629	233
333.857	227
334.085	232
334.314	236
334.542	229
334.771	231
334.999	223
335.227	221
335.455	219
335.684	217
335.912	216
336.14	211
336.369	220
336.597	222
336.825	209
337.053	214
337.281	216
337.51	215
337.738	202
337.966	199
338.194	195
338.422	202
338.65	206
338.878	202
339.106	199
339.334	206
339.562	205
339.79	177
340.018	181
340.246	199
340.474	182
340.702	194
340.93	191
341.158	219
341.386	184
341.614	172
341.842	209
342.07	200
342.298	201
342.526	192
342.754	204
342.981	193
343.209	188
343.437	189
343.665	225
343.893	233
344.12	230
344.348	219
344.576	206
344.804	197
345.031	203
345.259	202
345.487	196
345.714	189
345.942	195
346.17	190
346.397	171
346.625	204
346.853	212
347.08	190
347.308	202
347.535	178
347.763	186
347.99	205
348.218	186
348.445	214
348.673	184
348.9	200
349.128	198
349.355	202
349.583	190
349.81	189
350.037	180
350.265	197
350.492	190
350.72	186
350.947	180
351.174	185
351.402	193
351.629	171
351.856	176
352.083	179
352.311	181
352.538	179
352.765	193
352.992	184
353.22	189
353.447	186
353.674	180
353.901	195
354.128	172
354.355	203
354.583	187
354.81	201
355.037	182
355.264	195
355.491	188
355.718	185
355.945	195
356.172	190
356.399	186
356.626	181
356.853	177
357.08	176
357.307	186
357.534	175
357.761	178
357.988	187
358.215	195
358.441	196
358.668	191
358.895	186
359.122	195
359.349	188
359.576	174
359.802	196
360.029	193
360.256	181
360.483	187
360.709	193
360.936	181
361.163	188
361.39	189
361.616	180
361.843	183
362.07	182
362.296	193
362.523	190
362.749	197
362.976	184
363.203	184
363.429	178
363.656	192
363.882	184
364.109	188
364.335	179
364.562	173
364.788	192
365.015	171
365.241	173
365.468	179
365.694	195
365.92	186
366.147	178
366.373	189
366.599	185
366.826	194
367.052	187
367.278	185
367.505	203
367.731	193
367.957	192
368.184	177
368.41	187
368.636	177
368.862	181
369.089	191
369.315	186
369.541	176
369.767	186
369.993	176
370.219	191
370.445	190
370.672	201
370.898	212
371.124	190
371.35	202
371.576	213
371.802	198
372.028	197
372.254	188
372.48	192
372.706	208
372.932	218
373.158	203
373.384	189
373.61	199
373.835	190
374.061	193
374.287	204
374.513	192
374.739	198
374.965	217
375.191	207
375.416	192
375.642	195
375.868	218
376.094	207
376.319	198
376.545	190
376.771	196
376.997	193
377.222	199
377.448	190
377.674	188
377.899	198
378.125	192
378.35	204
378.576	186
378.802	195
379.027	197
379.253	198
379.478	212
379.704	218
379.929	194
380.155	201
380.38	192
380.606	189
380.831	199
381.057	196
381.282	194
381.507	186
381.733	208
381.958	177
382.184	192
382.409	202
382.634	204
382.86	195
383.085	210
383.31	196
383.535	208
383.761	198
383.986	227
384.211	209
384.436	207
384.662	220
384.887	222
385.112	210
385.337	225
385.562	194
385.787	202
386.013	221
386.238	224
386.463	220
386.688	224
386.913	209
387.138	224
387.363	209
387.588	225
387.813	217
388.038	242
388.263	220
388.488	212
388.713	233
388.938	209
389.163	216
389.387	217
389.612	186
389.837	210
390.062	220
390.287	223
390.512	212
390.736	215
390.961	222
391.186	227
391.411	235
391.636	231
391.86	233
392.085	251
392.31	222
392.534	250
392.759	224
392.984	226
393.208	230
393.433	236
393.658	206
393.882	240
394.107	229
394.331	238
394.556	231
394.78	229
395.005	222
395.229	242
395.454	222
395.678	241
395.903	241
396.127	240
396.352	229
396.576	224
396.801	246
397.025	233
397.249	235
397.474	223
397.698	217
397.922	222
398.147	216
398.371	229
398.595	230
398.82	245
399.044	276
399.268	286
399.492	317
399.717	367
399.941	361
400.165	304
400.389	294
400.613	272
400.837	266
401.062	265
401.286	242
401.51	257
401.734	267
401.958	256
402.182	246
402.406	268
402.63	262
402.854	261
403.078	257
403.302	281
403.526	282
403.75	299
403.974	296
404.198	288
404.422	288
404.645	294
404.869	284
405.093	286
405.317	261
405.541	282
405.765	267
405.988	285
406.212	262
406.436	270
406.66	279
406.883	280
407.107	290
407.331	319
407.555	329
407.778	283
408.002	315
408.226	318
408.449	286
408.673	269
408.896	274
409.12	278
409.344	285
409.567	275
409.791	279
410.014	281
410.238	287
410.461	283
410.685	283
410.908	261
411.132	263
411.355	271
411.578	267
411.802	246
412.025	269
412.249	280
412.472	266
412.695	260
412.919	266
413.142	246
413.365	251
413.589	254
413.812	233
414.035	259
414.258	259
414.482	261
414.705	266
414.928	263
415.151	240
415.374	251
415.597	248
415.821	235
416.044	237
416.267	249
416.49	240
416.713	243
416.936	250
417.159	249
417.382	261
417.605	257
417.828	254
418.051	262
418.274	255
418.497	257
418.72	255
418.943	262
419.166	271
419.389	299
419.611	282
419.834	265
420.057	267
420.28	259
420.503	250
420.726	244
420.948	262
421.171	256
421.394	248
421.617	262
421.839	253
422.062	248
422.285	258
422.507	264
422.73	283
422.953	277
423.175	260
423.398	261
423.621	270
423.843	261
424.066	282
424.288	292
424.511	263
424.733	256
424.956	259
425.178	254
425.401	236
425.623	233
425.846	233
426.068	259
426.291	258
426.513	236
426.735	246
426.958	239
427.18	243
427.402	225
427.625	229
427.847	235
428.069	231
428.292	220
428.514	238
428.736	233
428.958	234
429.181	222
429.403	224
429.625	224
429.847	232
430.069	233
430.292	213
430.514	219
430.736	230
430.958	235
431.18	225
431.402	216
431.624	213
431.846	230
432.068	225
432.29	222
432.512	231
432.734	214
432.956	209
433.178	219
433.4	235
433.622	245
433.844	248
434.066	245
434.287	236
434.509	228
434.731	257
434.953	236
435.175	265
435.397	256
435.618	241
435.84	231
436.062	222
436.284	211
436.505	228
436.727	225
436.949	236
437.17	215
437.392	243
437.614	233
437.835	210
438.057	212
438.278	215
438.5	212
438.721	210
438.943	227
439.165	227
439.386	226
439.608	218
439.829	232
440.05	237
440.272	221
440.493	236
440.715	236
440.936	237
441.158	231
441.379	240
441.6	257
441.822	245
442.043	246
442.264	243
442.486	253
442.707	249
442.928	234
443.149	244
443.371	232
443.592	234
443.813	237
444.034	246
444.255	252
444.476	264
444.698	273
444.919	290
445.14	373
445.361	316
445.582	256
445.803	242
446.024	246
446.245	224
446.466	228
446.687	211
446.908	250
447.129	227
447.35	233
447.571	228
447.792	231
448.013	209
448.234	202
448.455	217
448.675	210
448.896	209
449.117	217
449.338	218
449.559	213
449.779	207
450	211
450.221	199
450.442	206
450.662	221
450.883	224
451.104	219
451.324	221
451.545	216
451.766	216
451.986	237
452.207	232
452.428	220
452.648	216
452.869	213
453.089	216
453.31	194
453.53	211
453.751	201
453.971	216
454.192	218
454.412	193
454.633	189
454.853	210
455.073	203
455.294	213
455.514	213
455.734	197
455.955	190
456.175	196
456.395	207
456.616	213
456.836	203
457.056	197
457.276	205
457.497	211
457.717	196
457.937	216
458.157	183
458.377	189
458.598	197
458.818	225
459.038	214
459.258	226
459.478	219
459.698	247
459.918	238
460.138	280
460.358	259
460.578	258
460.798	244
461.018	268
461.238	252
461.458	248
461.678	250
461.898	262
462.118	249
462.338	272
462.558	291
462.777	282
462.997	327
463.217	354
463.437	334
463.657	304
463.876	294
464.096	309
464.316	290
464.536	316
464.755	297
464.975	308
465.195	274
465.414	270
465.634	250
465.854	240
466.073	230
466.293	234
466.512	242
466.732	229
466.951	224
467.171	229
467.391	222
467.61	222
467.829	237
468.049	233
468.268	228
468.488	218
468.707	212
468.927	219
469.146	234
469.365	220
469.585	229
469.804	231
470.023	227
470.243	242
470.462	229
470.681	237
470.901	234
471.12	234
471.339	234
471.558	230
471.777	226
471.997	245
472.216	224
472.435	217
472.654	223
472.873	205
473.092	217
473.311	219
473.53	210
473.749	210
473.968	220
474.187	240
474.406	213
474.625	214
474.844	221
475.063	205
475.282	197
475.501	217
475.72	227
475.939	233
476.158	222
476.377	234
476.596	218
476.814	210
477.033	225
477.252	235
477.471	227
477.69	244
477.908	247
478.127	240
478.346	256
478.564	245
478.783	243
479.002	259
479.22	259
479.439	264
479.658	259
479.876	252
480.095	258
480.313	267
480.532	275
480.751	307
480.969	259
481.188	270
481.406	246
481.624	238
481.843	254
482.061	256
482.28	231
482.498	233
482.717	236
482.935	251
483.153	247
483.372	234
483.59	252
483.808	244
484.027	239
484.245	237
484.463	262
484.681	246
484.9	265
485.118	264
485.336	255
485.554	265
485.772	257
485.99	258
486.209	259
486.427	258
486.645	264
486.863	289
487.081	278
487.299	255
487.517	264
487.735	259
487.953	254
488.171	261
488.389	231
488.607	247
488.825	269
489.043	269
489.261	260
489.479	248
489.696	264
489.914	251
490.132	253
490.35	252
490.568	266
490.786	262
491.003	268
491.221	260
491.439	257
491.657	244
491.874	252
492.092	281
492.31	278
492.527	273
492.745	275
492.963	270
493.18	249
493.398	245
493.615	249
493.833	277
494.05	284
494.268	278
494.485	271
494.703	274
494.92	271
495.138	252
495.355	283
495.573	260
495.79	261
496.008	288
496.225	270
496.442	269
496.66	277
496.877	279
497.094	291
497.312	284
497.529	285
497.746	284
497.963	293
498.181	300
498.398	330
498.615	346
498.832	352
499.049	357
499.267	389
499.484	442
499.701	490
499.918	536
500.135	589
500.352	677
500.569	723
500.786	724
501.003	645
501.22	573
501.437	516
501.654	450
501.871	454
502.088	388
502.305	370
502.522	341
502.739	348
502.956	317
503.172	313
503.389	307
503.606	277
503.823	280
504.04	301
504.256	306
504.473	305
504.69	319
504.907	307
505.123	280
505.34	269
505.557	269
505.773	258
505.99	250
506.207	246
506.423	244
506.64	250
506.856	243
507.073	259
507.289	243
507.506	243
507.722	252
507.939	240
508.155	255
508.372	236
508.588	232
508.805	227
509.021	247
509.238	246
509.454	255
509.67	234
509.887	234
510.103	221
510.319	217
510.536	246
510.752	221
510.968	225
511.184	216
511.401	224
511.617	226
511.833	221
512.049	242
512.265	228
512.481	237
512.698	233
512.914	234
513.13	236
513.346	225
513.562	216
513.778	233
513.994	224
514.21	222
514.426	227
514.642	232
514.858	228
515.074	247
515.29	226
515.506	230
515.721	242
515.937	257
516.153	230
516.369	243
516.585	251
516.801	274
517.016	279
517.232	280
517.448	314
517.664	303
517.879	313
518.095	310
518.311	308
518.527	289
518.742	282
518.958	258
519.173	267
519.389	260
519.605	269
519.82	234
520.036	236
520.251	231
520.467	251
520.682	256
520.898	236
521.113	213
521.329	229
521.544	227
521.76	250
521.975	222
522.19	230
522.406	231
522.621	228
522.836	225
523.052	218
523.267	224
523.482	208
523.698	196
523.913	210
524.128	224
524.343	216
524.559	219
524.774	221
524.989	216
525.204	211
525.419	218
525.634	208
525.849	224
526.064	218
526.28	223
526.495	206
526.71	224
526.925	229
527.14	210
527.355	231
527.57	213
527.785	211
527.999	201
528.214	218
528.429	209
528.644	225
528.859	227
529.074	231
529.289	223
529.503	234
529.718	234
529.933	224
530.148	216
530.363	201
530.577	241
530.792	229
531.007	228
531.221	227
531.436	225
531.651	202
531.865	212
532.08	230
532.295	215
532.509	229
532.724	221
532.938	225
533.153	219
533.367	226
533.582	224
533.796	209
534.011	221
534.225	212
534.44	221
534.654	212
534.868	234
535.083	221
535.297	225
535.511	213
535.726	209
535.94	215
536.154	217
536.369	213
536.583	203
536.797	202
537.011	211
537.225	213
537.44	209
537.654	197
537.868	193
538.082	205
538.296	201
538.51	207
538.724	203
538.938	201
539.153	222
539.367	220
539.581	207
539.795	216
540.009	206
540.222	204
540.436	218
540.65	202
540.864	216
541.078	211
541.292	217
541.506	209
541.72	221
541.934	216
542.147	216
542.361	211
542.575	224
542.789	211
543.002	197
543.216	199
543.43	196
543.644	216
543.857	215
544.071	213
544.285	201
544.498	210
544.712	204
544.925	220
545.139	208
545.352	218
545.566	222
545.779	207
545.993	211
546.206	212
546.42	212
546.633	215
546.847	231
547.06	216
547.274	205
547.487	222
547.7	210
547.914	214
548.127	206
548.34	220
548.554	212
548.767	215
548.98	230
549.193	216
549.407	232
549.62	211
549.833	227
550.046	219
550.259	216
550.473	200
550.686	232
550.899	200
551.112	205
551.325	234
551.538	202
551.751	206
551.964	217
552.177	226
552.39	213
552.603	202
552.816	215
553.029	239
553.242	236
553.455	227
553.667	227
553.88	244
554.093	236
554.306	243
554.519	217
554.732	196
554.944	215
555.157	209
555.37	205
555.583	212
555.795	196
556.008	194
556.221	196
556.433	197
556.646	196
556.859	190
557.071	218
557.284	197
557.496	205
557.709	222
557.921	191
558.134	190
558.346	202
558.559	184
558.771	180
558.984	200
559.196	187
559.409	190
559.621	194
559.833	187
560.046	171
560.258	186
560.47	199
560.683	177
560.895	194
561.107	190
561.32	187
561.532	188
561.744	195
561.956	197
562.168	192
562.381	193
562.593	199
562.805	191
563.017	174
563.229	177
563.441	196
563.653	200
563.865	201
564.077	201
564.289	185
564.501	197
564.713	200
564.925	206
565.137	199
565.349	200
565.561	196
565.773	200
565.985	211
566.197	221
566.408	231
566.62	265
566.832	262
567.044	280
567.255	269
567.467	277
567.679	313
567.891	331
568.102	324
568.314	325
568.526	282
568.737	252
568.949	236
569.161	246
569.372	224
569.584	202
569.795	200
570.007	209
570.218	183
570.43	190
570.641	192
570.853	188
571.064	193
571.276	216
571.487	202
571.698	192
571.91	186
572.121	197
572.333	182
572.544	176
572.755	178
572.966	173
573.178	176
573.389	170
573.6	197
573.811	162
574.023	154
574.234	169
574.445	168
574.656	170
574.867	188
575.078	174
575.289	189
575.501	167
575.712	180
575.923	166
576.134	162
576.345	164
576.556	171
576.767	169
576.978	176
577.188	171
577.399	168
577.61	166
577.821	177
578.032	164
578.243	156
578.454	161
578.665	166
578.875	146
579.086	170
579.297	159
579.508	156
579.718	168
579.929	189
580.14	157
580.35	158
580.561	157
580.772	171
580.982	164
581.193	181
581.403	164
581.614	157
581.825	139
582.035	155
582.246	142
582.456	164
582.667	165
582.877	149
583.087	148
583.298	150
583.508	155
583.719	153
583.929	167
584.139	158
584.35	155
584.56	162
584.77	164
584.981	155
585.191	146
585.401	166
585.611	150
585.821	156
586.032	147
586.242	158
586.452	141
586.662	161
586.872	145
587.082	155
587.292	159
587.502	159
587.713	159
587.923	148
588.133	148
588.343	145
588.553	166
588.762	160
588.972	172
589.182	163
589.392	150
589.602	167
589.812	169
590.022	170
590.232	157
590.441	158
590.651	162
590.861	145
591.071	153
591.281	146
591.49	163
591.7	164
591.91	159
592.119	149
592.329	169
592.539	176
592.748	163
592.958	190
593.167	184
593.377	178
593.587	196
593.796	181
594.006	190
594.215	190
594.424	189
594.634	169
594.843	168
595.053	180
595.262	163
595.472	162
595.681	156
595.89	167
596.1	156
596.309	168
596.518	163
596.727	150
596.937	148
597.146	154
597.355	157
597.564	153
597.774	126
597.983	155
598.192	154
598.401	139
598.61	142
598.819	149
599.028	145
599.237	139
599.446	142
599.655	140
599.864	154
600.073	136
600.282	137
600.491	145
600.7	139
600.909	148
601.118	161
601.327	141
601.536	140
601.745	141
601.953	160
602.162	142
602.371	146
602.58	152
602.789	135
602.997	157
603.206	139
603.415	141
603.623	143
603.832	137
604.041	142
604.249	129
604.458	126
604.666	129
604.875	137
605.084	149
605.292	153
605.501	148
605.709	148
605.918	136
606.126	140
606.334	141
606.543	144
606.751	136
606.96	127
607.168	135
607.376	152
607.585	146
607.793	135
608.001	142
608.21	128
608.418	130
608.626	142
608.834	131
609.043	140
609.251	136
609.459	137
609.667	138
609.875	142
610.083	139
610.291	133
610.499	128
610.707	137
610.916	146
611.124	138
611.332	142
611.54	136
611.748	142
611.955	130
612.163	120
612.371	145
612.579	132
612.787	121
612.995	126
613.203	155
613.411	132
613.618	127
613.826	138
614.034	130
614.242	124
614.449	148
614.657	122
614.865	139
615.072	135
615.28	132
615.488	148
615.695	137
615.903	132
616.111	140
616.318	144
616.526	136
616.733	146
616.941	134
617.148	128
617.356	137
617.563	131
617.771	124
617.978	128
618.185	141
618.393	133
618.6	129
618.807	133
619.015	126
619.222	132
619.429	113
619.637	118
619.844	132
620.051	146
620.258	128
620.466	128
620.673	120
620.88	124
621.087	131
621.294	135
621.501	136
621.708	118
621.915	141
622.122	120
622.329	143
622.536	112
622.743	125
622.95	131
623.157	144
623.364	152
623.571	132
623.778	140
623.985	140
624.192	136
624.399	127
624.606	125
624.812	115
625.019	126
625.226	122
625.433	138
625.639	122
625.846	126
626.053	131
626.259	130
626.466	136
626.673	136
626.879	124
627.086	126
627.293	128
627.499	115
627.706	124
627.912	137
628.119	123
628.325	126
628.532	126
628.738	128
628.945	113
629.151	127
629.357	125
629.564	112
629.77	120
629.976	131
630.183	123
630.389	122
630.595	117
630.802	136
631.008	115
631.214	136
631.42	123
631.627	127
631.833	105
632.039	122
632.245	112
632.451	104
632.657	126
632.863	125
633.069	120
633.275	105
633.481	124
633.688	112
633.893	121
634.099	127
634.305	109
634.511	130
634.717	128
634.923	118
635.129	120
635.335	126
635.541	118
635.747	129
635.952	107
636.158	121
636.364	123
636.57	98
636.775	118
636.981	121
637.187	119
637.392	125
637.598	126
637.804	129
638.009	117
638.215	124
638.421	106
638.626	102
638.832	98
639.037	116
639.243	122
639.448	119
639.654	125
639.859	108
640.065	112
640.27	127
640.475	114
640.681	106
640.886	117
641.091	128
641.297	108
641.502	121
641.707	117
641.913	118
642.118	115
642.323	114
642.528	130
642.733	114
642.939	109
643.144	104
643.349	117
643.554	95
643.759	127
643.964	98
644.169	103
644.374	102
644.579	113
644.784	114
644.989	126
645.194	96
645.399	132
645.604	116
645.809	121
646.014	104
646.219	119
646.423	107
646.628	106
646.833	113
647.038	100
647.243	120
647.447	108
647.652	111
647.857	120
648.062	114
648.266	129
648.471	127
648.676	127
648.88	116
649.085	115
649.289	108
649.494	122
649.698	112
649.903	126
650.107	102
650.312	125
650.516	113
650.721	107
650.925	113
651.13	108
651.334	94
651.539	104
651.743	120
651.947	102
652.152	106
652.356	103
652.56	109
652.764	108
652.969	102
653.173	90
653.377	102
653.581	113
653.785	90
653.99	118
654.194	112
654.398	116
654.602	99
654.806	112
655.01	99
655.214	105
655.418	101
655.622	105
655.826	114
656.03	102
656.234	108
656.438	103
656.642	95
656.846	87
657.049	112
657.253	92
657.457	111
657.661	95
657.865	101
658.068	90
658.272	86
658.476	95
658.68	109
658.883	92
659.087	88
659.291	90
659.494	109
659.698	89
659.901	76
660.105	84
660.309	80
660.512	94
660.716	86
660.919	83
661.123	82
661.326	71
661.53	97
661.733	91
661.936	79
662.14	67
662.343	88
662.546	69
662.75	73
662.953	89
663.156	83
663.36	93
663.563	94
663.766	91
663.969	90
664.173	75
664.376	75
664.579	85
664.782	72
664.985	86
665.188	104
665.391	89
665.594	71
665.797	82
666	73
666.203	81
666.406	82
666.609	77
666.812	88
667.015	81
667.218	78
667.421	81
667.624	70
667.827	86
668.03	91
668.232	82
668.435	80
668.638	68
668.841	79
669.043	86
669.246	78
669.449	82
669.651	78
669.854	87
670.057	96
670.259	86
670.462	78
670.665	89
670.867	87
671.07	75
671.272	78
671.475	78
671.677	78
671.88	96
672.082	92
672.284	78
672.487	85
672.689	81
672.892	81
