Data from 0.5MCu(NO3)2.Standard.Lamp.E10.CV._HRD10591_16-06-27-753.txt Node
Date: Mon Jul 22 16:06:27 EDT 2019
User: cochatt
Spectrometer: HR+D1059
Trigger mode: 1
Integration Time (sec): 1.000000E-1
Scans to average: 1
Electric dark correction enabled: true
Nonlinearity correction enabled: false
Boxcar width: 0
XAxis mode: Wavelengths
Number of Pixels in Spectrum: 2048
>>>>>Begin Spectral Data<<<<<
223.165	-18
223.4	-18
223.635	-18
223.869	-9
224.104	-23
224.338	-5
224.573	-13
224.808	-2
225.042	-8
225.277	-22
225.511	3
225.746	4
225.98	7
226.215	12
226.449	11
226.683	13
226.918	17
227.152	33
227.387	34
227.621	40
227.856	40
228.09	52
228.324	57
228.559	58
228.793	73
229.027	60
229.262	64
229.496	88
229.73	74
229.964	71
230.199	72
230.433	82
230.667	68
230.901	73
231.136	76
231.37	86
231.604	103
231.838	90
232.072	76
232.306	94
232.541	92
232.775	82
233.009	85
233.243	96
233.477	82
233.711	93
233.945	85
234.179	87
234.413	79
234.647	93
234.881	79
235.115	85
235.349	83
235.583	102
235.817	101
236.051	89
236.285	82
236.519	94
236.753	94
236.987	85
237.221	83
237.455	77
237.689	81
237.922	92
238.156	93
238.39	75
238.624	93
238.858	85
239.091	98
239.325	84
239.559	76
239.793	90
240.027	81
240.26	82
240.494	82
240.728	88
240.961	80
241.195	96
241.429	80
241.662	101
241.896	79
242.13	102
242.363	86
242.597	96
242.83	93
243.064	84
243.298	84
243.531	81
243.765	88
243.998	81
244.232	94
244.465	108
244.699	106
244.932	97
245.166	95
245.399	82
245.633	96
245.866	86
246.099	102
246.333	103
246.566	101
246.8	99
247.033	92
247.266	98
247.5	108
247.733	104
247.966	93
248.2	92
248.433	102
248.666	98
248.899	105
249.133	104
249.366	109
249.599	104
249.832	100
250.066	116
250.299	103
250.532	119
250.765	102
250.998	116
251.231	104
251.465	96
251.698	97
251.931	101
252.164	109
252.397	122
252.63	105
252.863	104
253.096	96
253.329	106
253.562	106
253.795	124
254.028	110
254.261	105
254.494	108
254.727	115
254.96	118
255.193	117
255.426	120
255.659	115
255.892	117
256.124	109
256.357	102
256.59	120
256.823	117
257.056	112
257.289	118
257.521	118
257.754	116
257.987	120
258.22	114
258.452	109
258.685	114
258.918	120
259.151	95
259.383	130
259.616	114
259.849	112
260.081	120
260.314	102
260.547	118
260.779	124
261.012	113
261.244	106
261.477	116
261.71	118
261.942	114
262.175	103
262.407	118
262.64	132
262.872	124
263.105	115
263.337	114
263.57	124
263.802	116
264.035	130
264.267	124
264.499	125
264.732	126
264.964	121
265.197	116
265.429	136
265.661	132
265.894	123
266.126	128
266.358	128
266.591	130
266.823	116
267.055	132
267.287	121
267.52	111
267.752	99
267.984	125
268.216	125
268.448	126
268.681	128
268.913	133
269.145	120
269.377	121
269.609	131
269.841	121
270.073	125
270.306	126
270.538	130
270.77	127
271.002	138
271.234	135
271.466	130
271.698	128
271.93	136
272.162	125
272.394	137
272.626	121
272.858	127
273.09	136
273.322	137
273.553	122
273.785	114
274.017	135
274.249	124
274.481	138
274.713	131
274.945	140
275.176	135
275.408	125
275.64	133
275.872	157
276.104	139
276.335	143
276.567	124
276.799	142
277.031	138
277.262	147
277.494	152
277.726	131
277.957	134
278.189	137
278.421	136
278.652	149
278.884	136
279.115	136
279.347	148
279.579	152
279.81	150
280.042	142
280.273	149
280.505	129
280.736	153
280.968	132
281.199	141
281.431	155
281.662	149
281.894	161
282.125	137
282.356	160
282.588	153
282.819	159
283.051	142
283.282	151
283.513	148
283.745	140
283.976	138
284.207	149
284.439	146
284.67	151
284.901	149
285.132	165
285.364	156
285.595	161
285.826	148
286.057	149
286.288	152
286.52	159
286.751	141
286.982	146
287.213	158
287.444	141
287.675	150
287.906	152
288.138	152
288.369	160
288.6	158
288.831	148
289.062	141
289.293	150
289.524	164
289.755	151
289.986	157
290.217	170
290.448	162
290.679	150
290.91	165
291.141	140
291.371	159
291.602	154
291.833	166
292.064	150
292.295	162
292.526	170
292.757	155
292.987	154
293.218	152
293.449	150
293.68	148
293.91	155
294.141	171
294.372	156
294.603	161
294.833	169
295.064	159
295.295	152
295.525	174
295.756	180
295.987	173
296.217	177
296.448	171
296.679	161
296.909	164
297.14	180
297.37	178
297.601	170
297.831	167
298.062	143
298.292	185
298.523	178
298.753	177
298.984	177
299.214	181
299.445	177
299.675	186
299.905	168
300.136	176
300.366	173
300.597	173
300.827	186
301.057	179
301.288	186
301.518	168
301.748	171
301.979	180
302.209	189
302.439	169
302.669	161
302.9	172
303.13	172
303.36	172
303.59	182
303.82	181
304.051	180
304.281	194
304.511	174
304.741	166
304.971	174
305.201	165
305.431	173
305.661	179
305.891	169
306.121	176
306.352	180
306.582	170
306.812	168
307.042	162
307.272	169
307.502	166
307.731	171
307.961	187
308.191	167
308.421	168
308.651	172
308.881	182
309.111	164
309.341	168
309.571	174
309.8	184
310.03	167
310.26	171
310.49	183
310.72	162
310.949	181
311.179	160
311.409	161
311.639	174
311.868	168
312.098	187
312.328	170
312.557	175
312.787	196
313.017	196
313.246	175
313.476	172
313.706	173
313.935	174
314.165	167
314.394	193
314.624	196
314.853	186
315.083	184
315.312	174
315.542	172
315.771	164
316.001	180
316.23	174
316.46	169
316.689	177
316.919	188
317.148	176
317.377	182
317.607	182
317.836	179
318.065	177
318.295	156
318.524	176
318.753	187
318.983	182
319.212	176
319.441	176
319.67	168
319.9	178
320.129	170
320.358	174
320.587	161
320.816	179
321.046	195
321.275	182
321.504	172
321.733	210
321.962	190
322.191	186
322.42	178
322.649	179
322.878	181
323.108	174
323.337	182
323.566	188
323.795	172
324.024	188
324.253	202
324.482	189
324.71	187
324.939	181
325.168	193
325.397	207
325.626	196
325.855	171
326.084	186
326.313	193
326.542	188
326.77	196
326.999	179
327.228	190
327.457	198
327.686	181
327.914	196
328.143	184
328.372	194
328.6	195
328.829	209
329.058	202
329.287	193
329.515	195
329.744	197
329.972	194
330.201	203
330.43	201
330.658	180
330.887	190
331.115	197
331.344	196
331.572	198
331.801	198
332.03	213
332.258	200
332.486	206
332.715	214
332.943	213
333.172	218
333.4	214
333.629	224
333.857	225
334.085	219
334.314	224
334.542	232
334.771	216
334.999	218
335.227	207
335.455	208
335.684	235
335.912	226
336.14	211
336.369	209
336.597	213
336.825	214
337.053	205
337.281	202
337.51	196
337.738	204
337.966	188
338.194	214
338.422	207
338.65	206
338.878	199
339.106	206
339.334	213
339.562	195
339.79	180
340.018	181
340.246	186
340.474	196
340.702	206
340.93	199
341.158	189
341.386	192
341.614	201
341.842	198
342.07	182
342.298	193
342.526	197
342.754	202
342.981	197
343.209	185
343.437	198
343.665	197
343.893	224
344.12	245
344.348	226
344.576	218
344.804	206
345.031	196
345.259	188
345.487	188
345.714	200
345.942	207
346.17	188
346.397	185
346.625	186
346.853	204
347.08	182
347.308	180
347.535	201
347.763	207
347.99	184
348.218	195
348.445	188
348.673	177
348.9	178
349.128	177
349.355	189
349.583	196
349.81	170
350.037	183
350.265	192
350.492	190
350.72	200
350.947	188
351.174	186
351.402	192
351.629	173
351.856	189
352.083	188
352.311	194
352.538	187
352.765	180
352.992	181
353.22	171
353.447	185
353.674	198
353.901	195
354.128	180
354.355	167
354.583	185
354.81	189
355.037	173
355.264	182
355.491	180
355.718	190
355.945	200
356.172	178
356.399	190
356.626	189
356.853	186
357.08	184
357.307	203
357.534	215
357.761	185
357.988	194
358.215	196
358.441	190
358.668	179
358.895	186
359.122	196
359.349	188
359.576	172
359.802	199
360.029	182
360.256	182
360.483	180
360.709	179
360.936	199
361.163	193
361.39	194
361.616	186
361.843	179
362.07	190
362.296	190
362.523	184
362.749	188
362.976	186
363.203	179
363.429	176
363.656	197
363.882	180
364.109	180
364.335	173
364.562	176
364.788	185
365.015	173
365.241	185
365.468	188
365.694	165
365.92	165
366.147	170
366.373	183
366.599	193
366.826	192
367.052	183
367.278	172
367.505	164
367.731	180
367.957	183
368.184	180
368.41	201
368.636	205
368.862	197
369.089	190
369.315	193
369.541	189
369.767	191
369.993	187
370.219	192
370.445	211
370.672	197
370.898	201
371.124	218
371.35	193
371.576	200
371.802	200
372.028	185
372.254	195
372.48	198
372.706	197
372.932	192
373.158	206
373.384	200
373.61	201
373.835	206
374.061	204
374.287	190
374.513	203
374.739	214
374.965	187
375.191	216
375.416	215
375.642	209
375.868	215
376.094	202
376.319	180
376.545	186
376.771	190
376.997	202
377.222	188
377.448	203
377.674	211
377.899	181
378.125	178
378.35	197
378.576	192
378.802	195
379.027	188
379.253	193
379.478	197
379.704	193
379.929	177
380.155	186
380.38	213
380.606	184
380.831	176
381.057	183
381.282	211
381.507	196
381.733	201
381.958	192
382.184	199
382.409	200
382.634	198
382.86	211
383.085	213
383.31	210
383.535	205
383.761	203
383.986	221
384.211	221
384.436	209
384.662	212
384.887	220
385.112	209
385.337	212
385.562	188
385.787	210
386.013	223
386.238	209
386.463	225
386.688	200
386.913	198
387.138	221
387.363	217
387.588	205
387.813	217
388.038	205
388.263	206
388.488	207
388.713	209
388.938	216
389.163	217
389.387	217
389.612	220
389.837	217
390.062	215
390.287	217
390.512	221
390.736	213
390.961	214
391.186	225
391.411	246
391.636	227
391.86	240
392.085	253
392.31	230
392.534	240
392.759	230
392.984	234
393.208	248
393.433	211
393.658	221
393.882	224
394.107	226
394.331	236
394.556	217
394.78	227
395.005	225
395.229	236
395.454	245
395.678	236
395.903	235
396.127	238
396.352	237
396.576	223
396.801	225
397.025	220
397.249	226
397.474	246
397.698	243
397.922	240
398.147	225
398.371	221
398.595	237
398.82	250
399.044	266
399.268	283
399.492	342
399.717	361
399.941	370
400.165	330
400.389	283
400.613	282
400.837	279
401.062	250
401.286	272
401.51	257
401.734	242
401.958	271
402.182	274
402.406	276
402.63	267
402.854	274
403.078	261
403.302	287
403.526	281
403.75	280
403.974	312
404.198	305
404.422	297
404.645	284
404.869	280
405.093	275
405.317	289
405.541	274
405.765	272
405.988	271
406.212	269
406.436	280
406.66	268
406.883	284
407.107	288
407.331	316
407.555	326
407.778	321
408.002	325
408.226	304
408.449	290
408.673	300
408.896	283
409.12	275
409.344	295
409.567	288
409.791	285
410.014	296
410.238	276
410.461	278
410.685	277
410.908	273
411.132	270
411.355	264
411.578	265
411.802	249
412.025	248
412.249	256
412.472	252
412.695	262
412.919	245
413.142	245
413.365	243
413.589	240
413.812	237
414.035	235
414.258	240
414.482	258
414.705	264
414.928	276
415.151	257
415.374	268
415.597	255
415.821	256
416.044	250
416.267	255
416.49	254
416.713	253
416.936	241
417.159	247
417.382	246
417.605	248
417.828	265
418.051	263
418.274	253
418.497	248
418.72	258
418.943	268
419.166	267
419.389	288
419.611	275
419.834	277
420.057	265
420.28	248
420.503	233
420.726	240
420.948	259
421.171	256
421.394	254
421.617	269
421.839	265
422.062	248
422.285	236
422.507	263
422.73	249
422.953	269
423.175	266
423.398	275
423.621	268
423.843	268
424.066	268
424.288	280
424.511	261
424.733	265
424.956	265
425.178	266
425.401	266
425.623	258
425.846	243
426.068	224
426.291	254
426.513	239
426.735	219
426.958	230
427.18	238
427.402	246
427.625	218
427.847	229
428.069	229
428.292	229
428.514	232
428.736	227
428.958	240
429.181	215
429.403	229
429.625	222
429.847	214
430.069	225
430.292	231
430.514	224
430.736	229
430.958	224
431.18	229
431.402	230
431.624	224
431.846	226
432.068	250
432.29	245
432.512	241
432.734	229
432.956	235
433.178	240
433.4	213
433.622	226
433.844	244
434.066	246
434.287	229
434.509	231
434.731	245
434.953	257
435.175	249
435.397	251
435.618	241
435.84	235
436.062	246
436.284	221
436.505	215
436.727	250
436.949	250
437.17	234
437.392	233
437.614	231
437.835	222
438.057	225
438.278	237
438.5	217
438.721	217
438.943	213
439.165	220
439.386	219
439.608	240
439.829	229
440.05	232
440.272	223
440.493	226
440.715	226
440.936	246
441.158	228
441.379	228
441.6	256
441.822	251
442.043	262
442.264	260
442.486	260
442.707	245
442.928	257
443.149	249
443.371	238
443.592	253
443.813	282
444.034	247
444.255	257
444.476	272
444.698	291
444.919	305
445.14	380
445.361	314
445.582	281
445.803	248
446.024	227
446.245	242
446.466	220
446.687	243
446.908	225
447.129	241
447.35	225
447.571	229
447.792	211
448.013	213
448.234	232
448.455	210
448.675	204
448.896	238
449.117	221
449.338	214
449.559	226
449.779	220
450	225
450.221	206
450.442	222
450.662	236
450.883	222
451.104	225
451.324	216
451.545	231
451.766	216
451.986	225
452.207	210
452.428	214
452.648	212
452.869	213
453.089	210
453.31	202
453.53	213
453.751	211
453.971	220
454.192	218
454.412	189
454.633	204
454.853	205
455.073	209
455.294	230
455.514	215
455.734	203
455.955	220
456.175	215
456.395	205
456.616	198
456.836	206
457.056	217
457.276	220
457.497	214
457.717	222
457.937	198
458.157	217
458.377	202
458.598	205
458.818	215
459.038	221
459.258	233
459.478	230
459.698	233
459.918	246
460.138	261
460.358	261
460.578	253
460.798	281
461.018	284
461.238	265
461.458	264
461.678	263
461.898	276
462.118	253
462.338	275
462.558	274
462.777	279
462.997	311
463.217	337
463.437	350
463.657	318
463.876	299
464.096	294
464.316	307
464.536	296
464.755	304
464.975	287
465.195	271
465.414	262
465.634	238
465.854	221
466.073	221
466.293	231
466.512	216
466.732	234
466.951	221
467.171	217
467.391	228
467.61	230
467.829	230
468.049	229
468.268	226
468.488	226
468.707	211
468.927	228
469.146	216
469.365	212
469.585	225
469.804	235
470.023	241
470.243	240
470.462	239
470.681	242
470.901	243
471.12	231
471.339	225
471.558	214
471.777	237
471.997	217
472.216	206
472.435	218
472.654	207
472.873	217
473.092	217
473.311	214
473.53	207
473.749	240
473.968	200
474.187	237
474.406	214
474.625	208
474.844	219
475.063	209
475.282	220
475.501	219
475.72	231
475.939	217
476.158	220
476.377	227
476.596	217
476.814	214
477.033	236
477.252	245
477.471	226
477.69	230
477.908	236
478.127	247
478.346	242
478.564	269
478.783	258
479.002	266
479.22	254
479.439	261
479.658	264
479.876	256
480.095	273
480.313	289
480.532	275
480.751	299
480.969	244
481.188	274
481.406	265
481.624	245
481.843	249
482.061	240
482.28	242
482.498	219
482.717	246
482.935	248
483.153	237
483.372	232
483.59	256
483.808	242
484.027	234
484.245	256
484.463	246
484.681	280
484.9	266
485.118	258
485.336	250
485.554	261
485.772	260
485.99	270
486.209	273
486.427	274
486.645	248
486.863	278
487.081	245
487.299	233
487.517	268
487.735	264
487.953	249
488.171	265
488.389	262
488.607	259
488.825	258
489.043	247
489.261	248
489.479	243
489.696	260
489.914	274
490.132	275
490.35	253
490.568	258
490.786	264
491.003	269
491.221	259
491.439	258
491.657	268
491.874	259
492.092	275
492.31	277
492.527	267
492.745	281
492.963	271
493.18	286
493.398	276
493.615	270
493.833	274
494.05	261
494.268	249
494.485	285
494.703	280
494.92	261
495.138	267
495.355	287
495.573	280
495.79	269
496.008	281
496.225	277
496.442	254
496.66	269
496.877	276
497.094	286
497.312	293
497.529	289
497.746	270
497.963	315
498.181	292
498.398	325
498.615	355
498.832	348
499.049	366
499.267	397
499.484	440
499.701	479
499.918	521
500.135	590
500.352	685
500.569	713
500.786	695
501.003	665
501.22	593
501.437	526
501.654	445
501.871	402
502.088	389
502.305	363
502.522	344
502.739	358
502.956	341
503.172	315
503.389	308
503.606	310
503.823	316
504.04	291
504.256	315
504.473	306
504.69	304
504.907	310
505.123	283
505.34	264
505.557	261
505.773	270
505.99	254
506.207	247
506.423	251
506.64	248
506.856	256
507.073	260
507.289	246
507.506	235
507.722	251
507.939	249
508.155	244
508.372	245
508.588	231
508.805	234
509.021	246
509.238	245
509.454	220
509.67	228
509.887	231
510.103	232
510.319	227
510.536	230
510.752	222
510.968	241
511.184	215
511.401	232
511.617	231
511.833	213
512.049	228
512.265	225
512.481	237
512.698	224
512.914	219
513.13	240
513.346	226
513.562	229
513.778	254
513.994	238
514.21	243
514.426	235
514.642	230
514.858	226
515.074	231
515.29	231
515.506	247
515.721	235
515.937	228
516.153	238
516.369	267
516.585	251
516.801	274
517.016	272
517.232	285
517.448	291
517.664	308
517.879	314
518.095	299
518.311	296
518.527	296
518.742	278
518.958	268
519.173	252
519.389	250
519.605	242
519.82	244
520.036	245
520.251	244
520.467	232
520.682	220
520.898	219
521.113	228
521.329	244
521.544	224
521.76	234
521.975	222
522.19	217
522.406	218
522.621	225
522.836	235
523.052	220
523.267	240
523.482	229
523.698	238
523.913	235
524.128	221
524.343	218
524.559	221
524.774	216
524.989	217
525.204	210
525.419	219
525.634	221
525.849	200
526.064	227
526.28	215
526.495	213
526.71	215
526.925	213
527.14	220
527.355	227
527.57	216
527.785	220
527.999	226
528.214	204
528.429	237
528.644	215
528.859	226
529.074	233
529.289	211
529.503	212
529.718	207
529.933	226
530.148	214
530.363	212
530.577	220
530.792	204
531.007	224
531.221	227
531.436	223
531.651	207
531.865	233
532.08	235
532.295	213
532.509	227
532.724	209
532.938	212
533.153	225
533.367	206
533.582	224
533.796	233
534.011	224
534.225	210
534.44	223
534.654	195
534.868	212
535.083	223
535.297	216
535.511	232
535.726	225
535.94	213
536.154	214
536.369	199
536.583	200
536.797	195
537.011	206
537.225	184
537.44	215
537.654	218
537.868	209
538.082	191
538.296	210
538.51	218
538.724	201
538.938	207
539.153	206
539.367	206
539.581	207
539.795	216
540.009	191
540.222	218
540.436	210
540.65	202
540.864	211
541.078	230
541.292	192
541.506	212
541.72	214
541.934	194
542.147	221
542.361	213
542.575	201
542.789	208
543.002	205
543.216	200
543.43	204
543.644	210
543.857	208
544.071	204
544.285	203
544.498	198
544.712	210
544.925	215
545.139	218
545.352	211
545.566	196
545.779	208
545.993	213
546.206	221
546.42	208
546.633	211
546.847	218
547.06	198
547.274	200
547.487	206
547.7	206
547.914	230
548.127	221
548.34	226
548.554	221
548.767	206
548.98	221
549.193	216
549.407	204
549.62	210
549.833	224
550.046	217
550.259	210
550.473	223
550.686	211
550.899	199
551.112	201
551.325	193
551.538	201
551.751	209
551.964	186
552.177	198
552.39	217
552.603	218
552.816	218
553.029	229
553.242	225
553.455	237
553.667	236
553.88	227
554.093	226
554.306	224
554.519	206
554.732	220
554.944	216
555.157	206
555.37	208
555.583	194
555.795	220
556.008	198
556.221	209
556.433	206
556.646	196
556.859	205
557.071	193
557.284	192
557.496	184
557.709	192
557.921	201
558.134	186
558.346	188
558.559	198
558.771	177
558.984	178
559.196	190
559.409	205
559.621	183
559.833	197
560.046	189
560.258	211
560.47	181
560.683	188
560.895	181
561.107	189
561.32	177
561.532	197
561.744	191
561.956	186
562.168	185
562.381	203
562.593	202
562.805	212
563.017	194
563.229	189
563.441	189
563.653	196
563.865	177
564.077	201
564.289	187
564.501	197
564.713	189
564.925	203
565.137	187
565.349	194
565.561	208
565.773	205
565.985	211
566.197	219
566.408	234
566.62	265
566.832	266
567.044	261
567.255	265
567.467	291
567.679	306
567.891	294
568.102	319
568.314	322
568.526	291
568.737	271
568.949	233
569.161	238
569.372	227
569.584	211
569.795	207
570.007	193
570.218	187
570.43	189
570.641	172
570.853	189
571.064	201
571.276	203
571.487	205
571.698	186
571.91	173
572.121	178
572.333	181
572.544	176
572.755	180
572.966	193
573.178	174
573.389	178
573.6	172
573.811	164
574.023	172
574.234	166
574.445	157
574.656	167
574.867	168
575.078	171
575.289	180
575.501	171
575.712	156
575.923	172
576.134	162
576.345	157
576.556	160
576.767	176
576.978	168
577.188	176
577.399	169
577.61	163
577.821	153
578.032	152
578.243	183
578.454	143
578.665	165
578.875	175
579.086	160
579.297	150
579.508	142
579.718	166
579.929	163
580.14	160
580.35	143
580.561	158
580.772	163
580.982	158
581.193	157
581.403	163
581.614	157
581.825	161
582.035	149
582.246	160
582.456	150
582.667	154
582.877	149
583.087	138
583.298	162
583.508	160
583.719	165
583.929	147
584.139	151
584.35	169
584.56	161
584.77	133
584.981	148
585.191	150
585.401	157
585.611	149
585.821	153
586.032	167
586.242	165
586.452	152
586.662	156
586.872	154
587.082	137
587.292	138
587.502	149
587.713	158
587.923	146
588.133	166
588.343	164
588.553	161
588.762	156
588.972	161
589.182	133
589.392	155
589.602	157
589.812	163
590.022	157
590.232	161
590.441	146
590.651	140
590.861	153
591.071	156
591.281	148
591.49	152
591.7	151
591.91	158
592.119	167
592.329	158
592.539	159
592.748	167
592.958	173
593.167	165
593.377	182
593.587	170
593.796	199
594.006	200
594.215	196
594.424	170
594.634	189
594.843	186
595.053	179
595.262	161
595.472	156
595.681	172
595.89	160
596.1	158
596.309	161
596.518	155
596.727	133
596.937	145
597.146	151
597.355	152
597.564	144
597.774	145
597.983	150
598.192	147
598.401	142
598.61	140
598.819	152
599.028	148
599.237	139
599.446	144
599.655	156
599.864	156
600.073	135
600.282	135
600.491	155
600.7	130
600.909	152
601.118	130
601.327	132
601.536	136
601.745	137
601.953	143
602.162	138
602.371	139
602.58	137
602.789	146
602.997	141
603.206	141
603.415	130
603.623	133
603.832	136
604.041	139
604.249	145
604.458	133
604.666	126
604.875	133
605.084	137
605.292	152
605.501	142
605.709	137
605.918	135
606.126	142
606.334	121
606.543	150
606.751	152
606.96	134
607.168	140
607.376	142
607.585	140
607.793	131
608.001	124
608.21	131
608.418	137
608.626	132
608.834	145
609.043	146
609.251	135
609.459	131
609.667	148
609.875	137
610.083	134
610.291	150
610.499	144
610.707	137
610.916	126
611.124	121
611.332	116
611.54	128
611.748	133
611.955	133
612.163	140
612.371	132
612.579	127
612.787	140
612.995	126
613.203	126
613.411	131
613.618	132
613.826	145
614.034	128
614.242	130
614.449	133
614.657	126
614.865	127
615.072	125
615.28	130
615.488	131
615.695	120
615.903	124
616.111	144
616.318	131
616.526	136
616.733	134
616.941	140
617.148	140
617.356	129
617.563	128
617.771	142
617.978	126
618.185	124
618.393	147
618.6	132
618.807	133
619.015	132
619.222	125
619.429	134
619.637	120
619.844	138
620.051	143
620.258	119
620.466	135
620.673	127
620.88	131
621.087	118
621.294	120
621.501	152
621.708	142
621.915	127
622.122	121
622.329	124
622.536	120
622.743	120
622.95	130
623.157	138
623.364	128
623.571	129
623.778	122
623.985	135
624.192	128
624.399	122
624.606	125
624.812	108
625.019	118
625.226	120
625.433	127
625.639	128
625.846	98
626.053	121
626.259	118
626.466	123
626.673	130
626.879	122
627.086	113
627.293	128
627.499	102
627.706	128
627.912	120
628.119	119
628.325	116
628.532	132
628.738	133
628.945	122
629.151	127
629.357	124
629.564	116
629.77	131
629.976	126
630.183	132
630.389	103
630.595	113
630.802	111
631.008	113
631.214	126
631.42	108
631.627	118
631.833	120
632.039	117
632.245	110
632.451	113
632.657	112
632.863	106
633.069	129
633.275	120
633.481	113
633.688	101
633.893	106
634.099	130
634.305	117
634.511	121
634.717	121
634.923	106
635.129	122
635.335	124
635.541	116
635.747	121
635.952	124
636.158	132
636.364	117
636.57	116
636.775	118
636.981	103
637.187	104
637.392	109
637.598	119
637.804	116
638.009	122
638.215	119
638.421	125
638.626	94
638.832	129
639.037	105
639.243	112
639.448	120
639.654	113
639.859	105
640.065	123
640.27	116
640.475	115
640.681	101
640.886	116
641.091	116
641.297	110
641.502	117
641.707	123
641.913	95
642.118	96
642.323	112
642.528	108
642.733	104
642.939	110
643.144	121
643.349	104
643.554	122
643.759	108
643.964	117
644.169	122
644.374	104
644.579	114
644.784	122
644.989	88
645.194	114
645.399	119
645.604	115
645.809	96
646.014	100
646.219	98
646.423	100
646.628	104
646.833	107
647.038	116
647.243	112
647.447	103
647.652	105
647.857	109
648.062	108
648.266	117
648.471	112
648.676	100
648.88	102
649.085	110
649.289	101
649.494	101
649.698	108
649.903	105
650.107	100
650.312	114
650.516	106
650.721	124
650.925	105
651.13	87
651.334	111
651.539	104
651.743	100
651.947	107
652.152	105
652.356	103
652.56	105
652.764	105
652.969	121
653.173	96
653.377	106
653.581	101
653.785	108
653.99	113
654.194	118
654.398	96
654.602	106
654.806	94
655.01	116
655.214	120
655.418	110
655.622	109
655.826	97
656.03	104
656.234	85
656.438	105
656.642	104
656.846	121
657.049	97
657.253	101
657.457	87
657.661	92
657.865	88
658.068	89
658.272	91
658.476	111
658.68	98
658.883	85
659.087	87
659.291	82
659.494	86
659.698	84
659.901	83
660.105	92
660.309	86
660.512	83
660.716	78
660.919	78
661.123	81
661.326	84
661.53	76
661.733	88
661.936	82
662.14	77
662.343	85
662.546	83
662.75	85
662.953	92
663.156	94
663.36	73
663.563	84
663.766	66
663.969	81
664.173	88
664.376	77
664.579	68
664.782	79
664.985	95
665.188	93
665.391	87
665.594	79
665.797	78
666	73
666.203	58
666.406	72
666.609	70
666.812	91
667.015	85
667.218	81
667.421	75
667.624	77
667.827	78
668.03	81
668.232	80
668.435	83
668.638	79
668.841	84
669.043	70
669.246	73
669.449	81
669.651	84
669.854	85
670.057	92
670.259	88
670.462	89
670.665	75
670.867	79
671.07	72
671.272	76
671.475	69
671.677	78
671.88	94
672.082	86
672.284	93
672.487	83
672.689	74
672.892	83
