Data from 0.5MCu(NO3)2.Standard.Lamp.E10.CV._HRD10591_16-06-24-753.txt Node
Date: Mon Jul 22 16:06:24 EDT 2019
User: cochatt
Spectrometer: HR+D1059
Trigger mode: 1
Integration Time (sec): 1.000000E-1
Scans to average: 1
Electric dark correction enabled: true
Nonlinearity correction enabled: false
Boxcar width: 0
XAxis mode: Wavelengths
Number of Pixels in Spectrum: 2048
>>>>>Begin Spectral Data<<<<<
223.165	-14.81
223.4	-14.81
223.635	-14.81
223.869	-6.81
224.104	-11.81
224.338	-11.81
224.573	-17.81
224.808	-12.81
225.042	-14.81
225.277	-11.81
225.511	3.19
225.746	14.19
225.98	11.19
226.215	5.19
226.449	-1.81
226.683	13.19
226.918	27.19
227.152	30.19
227.387	26.19
227.621	37.19
227.856	44.19
228.09	28.19
228.324	45.19
228.559	55.19
228.793	64.19
229.027	57.19
229.262	60.19
229.496	71.19
229.73	84.19
229.964	98.19
230.199	79.19
230.433	100.19
230.667	81.19
230.901	71.19
231.136	88.19
231.37	82.19
231.604	84.19
231.838	88.19
232.072	105.19
232.306	97.19
232.541	83.19
232.775	87.19
233.009	89.19
233.243	88.19
233.477	86.19
233.711	90.19
233.945	90.19
234.179	90.19
234.413	86.19
234.647	92.19
234.881	81.19
235.115	96.19
235.349	81.19
235.583	90.19
235.817	106.19
236.051	75.19
236.285	82.19
236.519	104.19
236.753	93.19
236.987	82.19
237.221	89.19
237.455	88.19
237.689	96.19
237.922	91.19
238.156	79.19
238.39	83.19
238.624	97.19
238.858	94.19
239.091	85.19
239.325	89.19
239.559	92.19
239.793	88.19
240.027	93.19
240.26	98.19
240.494	99.19
240.728	91.19
240.961	85.19
241.195	87.19
241.429	100.19
241.662	112.19
241.896	86.19
242.13	94.19
242.363	106.19
242.597	106.19
242.83	87.19
243.064	100.19
243.298	87.19
243.531	93.19
243.765	74.19
243.998	80.19
244.232	86.19
244.465	108.19
244.699	89.19
244.932	104.19
245.166	93.19
245.399	101.19
245.633	113.19
245.866	96.19
246.099	80.19
246.333	88.19
246.566	107.19
246.8	104.19
247.033	89.19
247.266	97.19
247.5	102.19
247.733	105.19
247.966	104.19
248.2	98.19
248.433	110.19
248.666	102.19
248.899	98.19
249.133	99.19
249.366	101.19
249.599	96.19
249.832	87.19
250.066	108.19
250.299	117.19
250.532	104.19
250.765	101.19
250.998	101.19
251.231	113.19
251.465	118.19
251.698	112.19
251.931	91.19
252.164	110.19
252.397	105.19
252.63	112.19
252.863	105.19
253.096	114.19
253.329	109.19
253.562	116.19
253.795	117.19
254.028	104.19
254.261	128.19
254.494	104.19
254.727	123.19
254.96	111.19
255.193	116.19
255.426	128.19
255.659	95.19
255.892	120.19
256.124	117.19
256.357	114.19
256.59	117.19
256.823	112.19
257.056	128.19
257.289	100.19
257.521	108.19
257.754	105.19
257.987	122.19
258.22	119.19
258.452	117.19
258.685	109.19
258.918	113.19
259.151	106.19
259.383	135.19
259.616	115.19
259.849	118.19
260.081	115.19
260.314	115.19
260.547	120.19
260.779	100.19
261.012	109.19
261.244	122.19
261.477	121.19
261.71	127.19
261.942	110.19
262.175	104.19
262.407	114.19
262.64	122.19
262.872	113.19
263.105	122.19
263.337	143.19
263.57	138.19
263.802	112.19
264.035	125.19
264.267	123.19
264.499	128.19
264.732	130.19
264.964	130.19
265.197	121.19
265.429	134.19
265.661	122.19
265.894	131.19
266.126	137.19
266.358	134.19
266.591	117.19
266.823	120.19
267.055	116.19
267.287	129.19
267.52	126.19
267.752	132.19
267.984	133.19
268.216	131.19
268.448	135.19
268.681	122.19
268.913	120.19
269.145	122.19
269.377	129.19
269.609	129.19
269.841	122.19
270.073	107.19
270.306	126.19
270.538	130.19
270.77	126.19
271.002	126.19
271.234	139.19
271.466	125.19
271.698	120.19
271.93	141.19
272.162	131.19
272.394	140.19
272.626	121.19
272.858	144.19
273.09	138.19
273.322	135.19
273.553	128.19
273.785	140.19
274.017	142.19
274.249	136.19
274.481	118.19
274.713	122.19
274.945	142.19
275.176	134.19
275.408	121.19
275.64	152.19
275.872	151.19
276.104	149.19
276.335	141.19
276.567	135.19
276.799	143.19
277.031	147.19
277.262	134.19
277.494	132.19
277.726	159.19
277.957	136.19
278.189	139.19
278.421	145.19
278.652	149.19
278.884	146.19
279.115	136.19
279.347	142.19
279.579	148.19
279.81	147.19
280.042	139.19
280.273	135.19
280.505	150.19
280.736	165.19
280.968	152.19
281.199	160.19
281.431	141.19
281.662	144.19
281.894	147.19
282.125	156.19
282.356	143.19
282.588	140.19
282.819	143.19
283.051	150.19
283.282	143.19
283.513	150.19
283.745	152.19
283.976	156.19
284.207	154.19
284.439	154.19
284.67	156.19
284.901	157.19
285.132	141.19
285.364	148.19
285.595	160.19
285.826	165.19
286.057	172.19
286.288	157.19
286.52	154.19
286.751	159.19
286.982	139.19
287.213	154.19
287.444	155.19
287.675	153.19
287.906	151.19
288.138	150.19
288.369	140.19
288.6	171.19
288.831	165.19
289.062	165.19
289.293	156.19
289.524	175.19
289.755	160.19
289.986	167.19
290.217	156.19
290.448	159.19
290.679	155.19
290.91	162.19
291.141	167.19
291.371	173.19
291.602	169.19
291.833	149.19
292.064	142.19
292.295	171.19
292.526	163.19
292.757	173.19
292.987	166.19
293.218	161.19
293.449	162.19
293.68	158.19
293.91	163.19
294.141	165.19
294.372	164.19
294.603	163.19
294.833	173.19
295.064	176.19
295.295	178.19
295.525	176.19
295.756	166.19
295.987	144.19
296.217	168.19
296.448	176.19
296.679	162.19
296.909	194.19
297.14	172.19
297.37	179.19
297.601	166.19
297.831	169.19
298.062	167.19
298.292	170.19
298.523	186.19
298.753	165.19
298.984	160.19
299.214	187.19
299.445	168.19
299.675	184.19
299.905	178.19
300.136	171.19
300.366	195.19
300.597	195.19
300.827	171.19
301.057	160.19
301.288	188.19
301.518	168.19
301.748	187.19
301.979	186.19
302.209	178.19
302.439	174.19
302.669	190.19
302.9	178.19
303.13	172.19
303.36	173.19
303.59	180.19
303.82	178.19
304.051	168.19
304.281	184.19
304.511	182.19
304.741	182.19
304.971	182.19
305.201	183.19
305.431	179.19
305.661	169.19
305.891	172.19
306.121	169.19
306.352	167.19
306.582	172.19
306.812	174.19
307.042	187.19
307.272	186.19
307.502	184.19
307.731	189.19
307.961	192.19
308.191	184.19
308.421	174.19
308.651	184.19
308.881	192.19
309.111	172.19
309.341	168.19
309.571	172.19
309.8	177.19
310.03	175.19
310.26	182.19
310.49	176.19
310.72	166.19
310.949	164.19
311.179	192.19
311.409	187.19
311.639	183.19
311.868	179.19
312.098	186.19
312.328	194.19
312.557	195.19
312.787	180.19
313.017	184.19
313.246	209.19
313.476	185.19
313.706	187.19
313.935	174.19
314.165	193.19
314.394	181.19
314.624	176.19
314.853	187.19
315.083	167.19
315.312	182.19
315.542	180.19
315.771	179.19
316.001	193.19
316.23	190.19
316.46	193.19
316.689	198.19
316.919	173.19
317.148	207.19
317.377	197.19
317.607	168.19
317.836	181.19
318.065	178.19
318.295	166.19
318.524	178.19
318.753	178.19
318.983	177.19
319.212	182.19
319.441	190.19
319.67	173.19
319.9	180.19
320.129	189.19
320.358	183.19
320.587	177.19
320.816	184.19
321.046	192.19
321.275	184.19
321.504	182.19
321.733	192.19
321.962	184.19
322.191	187.19
322.42	179.19
322.649	188.19
322.878	186.19
323.108	188.19
323.337	184.19
323.566	172.19
323.795	179.19
324.024	199.19
324.253	185.19
324.482	182.19
324.71	196.19
324.939	200.19
325.168	184.19
325.397	184.19
325.626	187.19
325.855	184.19
326.084	200.19
326.313	192.19
326.542	190.19
326.77	200.19
326.999	198.19
327.228	195.19
327.457	177.19
327.686	202.19
327.914	198.19
328.143	196.19
328.372	199.19
328.6	210.19
328.829	196.19
329.058	196.19
329.287	199.19
329.515	209.19
329.744	210.19
329.972	183.19
330.201	190.19
330.43	184.19
330.658	203.19
330.887	200.19
331.115	198.19
331.344	198.19
331.572	201.19
331.801	217.19
332.03	211.19
332.258	201.19
332.486	218.19
332.715	241.19
332.943	232.19
333.172	244.19
333.4	226.19
333.629	241.19
333.857	240.19
334.085	235.19
334.314	244.19
334.542	260.19
334.771	245.19
334.999	224.19
335.227	227.19
335.455	230.19
335.684	222.19
335.912	221.19
336.14	217.19
336.369	232.19
336.597	224.19
336.825	233.19
337.053	226.19
337.281	227.19
337.51	216.19
337.738	216.19
337.966	205.19
338.194	194.19
338.422	196.19
338.65	192.19
338.878	211.19
339.106	199.19
339.334	213.19
339.562	217.19
339.79	208.19
340.018	205.19
340.246	189.19
340.474	187.19
340.702	186.19
340.93	202.19
341.158	197.19
341.386	198.19
341.614	197.19
341.842	196.19
342.07	198.19
342.298	200.19
342.526	204.19
342.754	196.19
342.981	196.19
343.209	211.19
343.437	228.19
343.665	210.19
343.893	232.19
344.12	227.19
344.348	229.19
344.576	213.19
344.804	207.19
345.031	207.19
345.259	213.19
345.487	201.19
345.714	194.19
345.942	176.19
346.17	202.19
346.397	195.19
346.625	188.19
346.853	209.19
347.08	209.19
347.308	190.19
347.535	202.19
347.763	209.19
347.99	198.19
348.218	217.19
348.445	203.19
348.673	177.19
348.9	188.19
349.128	206.19
349.355	200.19
349.583	198.19
349.81	189.19
350.037	189.19
350.265	208.19
350.492	188.19
350.72	194.19
350.947	180.19
351.174	190.19
351.402	199.19
351.629	184.19
351.856	195.19
352.083	195.19
352.311	182.19
352.538	194.19
352.765	184.19
352.992	190.19
353.22	198.19
353.447	196.19
353.674	178.19
353.901	190.19
354.128	194.19
354.355	190.19
354.583	200.19
354.81	184.19
355.037	189.19
355.264	213.19
355.491	193.19
355.718	205.19
355.945	206.19
356.172	181.19
356.399	189.19
356.626	193.19
356.853	196.19
357.08	180.19
357.307	186.19
357.534	196.19
357.761	188.19
357.988	186.19
358.215	185.19
358.441	200.19
358.668	185.19
358.895	198.19
359.122	196.19
359.349	194.19
359.576	194.19
359.802	202.19
360.029	183.19
360.256	193.19
360.483	180.19
360.709	187.19
360.936	177.19
361.163	196.19
361.39	207.19
361.616	182.19
361.843	200.19
362.07	203.19
362.296	178.19
362.523	193.19
362.749	185.19
362.976	170.19
363.203	189.19
363.429	189.19
363.656	208.19
363.882	211.19
364.109	186.19
364.335	188.19
364.562	192.19
364.788	196.19
365.015	185.19
365.241	197.19
365.468	191.19
365.694	188.19
365.92	188.19
366.147	190.19
366.373	189.19
366.599	186.19
366.826	182.19
367.052	180.19
367.278	198.19
367.505	175.19
367.731	180.19
367.957	173.19
368.184	190.19
368.41	194.19
368.636	186.19
368.862	194.19
369.089	199.19
369.315	177.19
369.541	193.19
369.767	194.19
369.993	180.19
370.219	197.19
370.445	209.19
370.672	190.19
370.898	188.19
371.124	199.19
371.35	197.19
371.576	198.19
371.802	198.19
372.028	193.19
372.254	189.19
372.48	189.19
372.706	213.19
372.932	209.19
373.158	196.19
373.384	196.19
373.61	212.19
373.835	194.19
374.061	184.19
374.287	206.19
374.513	200.19
374.739	213.19
374.965	236.19
375.191	222.19
375.416	223.19
375.642	211.19
375.868	205.19
376.094	204.19
376.319	204.19
376.545	188.19
376.771	192.19
376.997	212.19
377.222	192.19
377.448	213.19
377.674	207.19
377.899	194.19
378.125	188.19
378.35	208.19
378.576	194.19
378.802	195.19
379.027	192.19
379.253	198.19
379.478	198.19
379.704	178.19
379.929	187.19
380.155	206.19
380.38	214.19
380.606	186.19
380.831	181.19
381.057	200.19
381.282	207.19
381.507	212.19
381.733	197.19
381.958	194.19
382.184	187.19
382.409	220.19
382.634	201.19
382.86	208.19
383.085	208.19
383.31	215.19
383.535	217.19
383.761	210.19
383.986	206.19
384.211	198.19
384.436	219.19
384.662	223.19
384.887	218.19
385.112	255.19
385.337	240.19
385.562	234.19
385.787	228.19
386.013	216.19
386.238	220.19
386.463	233.19
386.688	228.19
386.913	219.19
387.138	226.19
387.363	222.19
387.588	228.19
387.813	232.19
388.038	222.19
388.263	231.19
388.488	216.19
388.713	240.19
388.938	210.19
389.163	223.19
389.387	225.19
389.612	206.19
389.837	216.19
390.062	223.19
390.287	219.19
390.512	227.19
390.736	235.19
390.961	225.19
391.186	235.19
391.411	241.19
391.636	237.19
391.86	232.19
392.085	239.19
392.31	243.19
392.534	241.19
392.759	224.19
392.984	242.19
393.208	227.19
393.433	222.19
393.658	236.19
393.882	231.19
394.107	253.19
394.331	218.19
394.556	233.19
394.78	227.19
395.005	228.19
395.229	247.19
395.454	240.19
395.678	256.19
395.903	245.19
396.127	230.19
396.352	232.19
396.576	220.19
396.801	214.19
397.025	233.19
397.249	231.19
397.474	241.19
397.698	233.19
397.922	245.19
398.147	240.19
398.371	244.19
398.595	268.19
398.82	262.19
399.044	260.19
399.268	290.19
399.492	320.19
399.717	365.19
399.941	376.19
400.165	342.19
400.389	294.19
400.613	288.19
400.837	266.19
401.062	261.19
401.286	255.19
401.51	243.19
401.734	244.19
401.958	267.19
402.182	264.19
402.406	245.19
402.63	262.19
402.854	276.19
403.078	286.19
403.302	309.19
403.526	308.19
403.75	300.19
403.974	329.19
404.198	300.19
404.422	293.19
404.645	286.19
404.869	285.19
405.093	305.19
405.317	277.19
405.541	277.19
405.765	270.19
405.988	285.19
406.212	277.19
406.436	285.19
406.66	286.19
406.883	281.19
407.107	301.19
407.331	339.19
407.555	322.19
407.778	320.19
408.002	312.19
408.226	295.19
408.449	293.19
408.673	293.19
408.896	286.19
409.12	280.19
409.344	301.19
409.567	292.19
409.791	296.19
410.014	293.19
410.238	283.19
410.461	280.19
410.685	293.19
410.908	298.19
411.132	290.19
411.355	268.19
411.578	266.19
411.802	271.19
412.025	269.19
412.249	269.19
412.472	279.19
412.695	267.19
412.919	246.19
413.142	279.19
413.365	267.19
413.589	282.19
413.812	279.19
414.035	264.19
414.258	250.19
414.482	256.19
414.705	272.19
414.928	273.19
415.151	265.19
415.374	263.19
415.597	253.19
415.821	243.19
416.044	259.19
416.267	268.19
416.49	248.19
416.713	277.19
416.936	263.19
417.159	265.19
417.382	269.19
417.605	250.19
417.828	274.19
418.051	261.19
418.274	258.19
418.497	256.19
418.72	264.19
418.943	273.19
419.166	283.19
419.389	299.19
419.611	294.19
419.834	292.19
420.057	268.19
420.28	268.19
420.503	250.19
420.726	245.19
420.948	264.19
421.171	265.19
421.394	264.19
421.617	283.19
421.839	274.19
422.062	262.19
422.285	238.19
422.507	270.19
422.73	276.19
422.953	269.19
423.175	275.19
423.398	269.19
423.621	289.19
423.843	274.19
424.066	286.19
424.288	276.19
424.511	268.19
424.733	286.19
424.956	250.19
425.178	277.19
425.401	260.19
425.623	247.19
425.846	244.19
426.068	261.19
426.291	238.19
426.513	251.19
426.735	233.19
426.958	246.19
427.18	237.19
427.402	230.19
427.625	241.19
427.847	239.19
428.069	232.19
428.292	240.19
428.514	240.19
428.736	228.19
428.958	236.19
429.181	233.19
429.403	231.19
429.625	225.19
429.847	236.19
430.069	228.19
430.292	234.19
430.514	229.19
430.736	210.19
430.958	229.19
431.18	237.19
431.402	255.19
431.624	236.19
431.846	249.19
432.068	231.19
432.29	237.19
432.512	231.19
432.734	242.19
432.956	235.19
433.178	266.19
433.4	238.19
433.622	241.19
433.844	244.19
434.066	226.19
434.287	231.19
434.509	241.19
434.731	250.19
434.953	246.19
435.175	255.19
435.397	253.19
435.618	245.19
435.84	224.19
436.062	240.19
436.284	220.19
436.505	241.19
436.727	232.19
436.949	256.19
437.17	234.19
437.392	226.19
437.614	214.19
437.835	233.19
438.057	221.19
438.278	201.19
438.5	228.19
438.721	238.19
438.943	239.19
439.165	231.19
439.386	237.19
439.608	226.19
439.829	235.19
440.05	259.19
440.272	238.19
440.493	240.19
440.715	207.19
440.936	235.19
441.158	252.19
441.379	267.19
441.6	270.19
441.822	256.19
442.043	271.19
442.264	245.19
442.486	224.19
442.707	258.19
442.928	263.19
443.149	255.19
443.371	259.19
443.592	273.19
443.813	253.19
444.034	266.19
444.255	273.19
444.476	289.19
444.698	305.19
444.919	313.19
445.14	377.19
445.361	339.19
445.582	261.19
445.803	240.19
446.024	245.19
446.245	246.19
446.466	229.19
446.687	236.19
446.908	258.19
447.129	242.19
447.35	236.19
447.571	226.19
447.792	236.19
448.013	222.19
448.234	221.19
448.455	228.19
448.675	219.19
448.896	218.19
449.117	205.19
449.338	210.19
449.559	217.19
449.779	230.19
450	230.19
450.221	225.19
450.442	220.19
450.662	217.19
450.883	234.19
451.104	240.19
451.324	222.19
451.545	206.19
451.766	235.19
451.986	219.19
452.207	221.19
452.428	234.19
452.648	222.19
452.869	238.19
453.089	220.19
453.31	232.19
453.53	218.19
453.751	210.19
453.971	220.19
454.192	216.19
454.412	228.19
454.633	222.19
454.853	213.19
455.073	210.19
455.294	204.19
455.514	217.19
455.734	199.19
455.955	208.19
456.175	205.19
456.395	210.19
456.616	204.19
456.836	213.19
457.056	206.19
457.276	194.19
457.497	206.19
457.717	206.19
457.937	207.19
458.157	214.19
458.377	198.19
458.598	246.19
458.818	206.19
459.038	220.19
459.258	232.19
459.478	230.19
459.698	243.19
459.918	233.19
460.138	260.19
460.358	275.19
460.578	269.19
460.798	288.19
461.018	258.19
461.238	261.19
461.458	264.19
461.678	272.19
461.898	280.19
462.118	263.19
462.338	300.19
462.558	284.19
462.777	307.19
462.997	310.19
463.217	350.19
463.437	354.19
463.657	316.19
463.876	320.19
464.096	318.19
464.316	314.19
464.536	321.19
464.755	310.19
464.975	296.19
465.195	280.19
465.414	275.19
465.634	255.19
465.854	252.19
466.073	254.19
466.293	237.19
466.512	240.19
466.732	247.19
466.951	231.19
467.171	246.19
467.391	237.19
467.61	229.19
467.829	248.19
468.049	235.19
468.268	210.19
468.488	228.19
468.707	227.19
468.927	225.19
469.146	235.19
469.365	235.19
469.585	220.19
469.804	237.19
470.023	242.19
470.243	240.19
470.462	251.19
470.681	258.19
470.901	256.19
471.12	238.19
471.339	219.19
471.558	236.19
471.777	232.19
471.997	206.19
472.216	223.19
472.435	235.19
472.654	228.19
472.873	224.19
473.092	231.19
473.311	220.19
473.53	216.19
473.749	230.19
473.968	225.19
474.187	218.19
474.406	209.19
474.625	234.19
474.844	232.19
475.063	221.19
475.282	229.19
475.501	228.19
475.72	227.19
475.939	234.19
476.158	222.19
476.377	227.19
476.596	213.19
476.814	245.19
477.033	237.19
477.252	231.19
477.471	244.19
477.69	258.19
477.908	253.19
478.127	258.19
478.346	272.19
478.564	263.19
478.783	264.19
479.002	260.19
479.22	267.19
479.439	257.19
479.658	265.19
479.876	265.19
480.095	255.19
480.313	280.19
480.532	288.19
480.751	286.19
480.969	290.19
481.188	276.19
481.406	269.19
481.624	256.19
481.843	236.19
482.061	252.19
482.28	265.19
482.498	228.19
482.717	252.19
482.935	265.19
483.153	250.19
483.372	266.19
483.59	257.19
483.808	247.19
484.027	258.19
484.245	267.19
484.463	242.19
484.681	260.19
484.9	275.19
485.118	254.19
485.336	285.19
485.554	229.19
485.772	280.19
485.99	270.19
486.209	276.19
486.427	276.19
486.645	286.19
486.863	273.19
487.081	274.19
487.299	259.19
487.517	262.19
487.735	265.19
487.953	264.19
488.171	264.19
488.389	293.19
488.607	262.19
488.825	252.19
489.043	263.19
489.261	266.19
489.479	291.19
489.696	265.19
489.914	269.19
490.132	268.19
490.35	271.19
490.568	277.19
490.786	246.19
491.003	268.19
491.221	268.19
491.439	269.19
491.657	266.19
491.874	275.19
492.092	274.19
492.31	269.19
492.527	297.19
492.745	273.19
492.963	286.19
493.18	261.19
493.398	278.19
493.615	286.19
493.833	288.19
494.05	275.19
494.268	269.19
494.485	293.19
494.703	280.19
494.92	284.19
495.138	269.19
495.355	277.19
495.573	296.19
495.79	286.19
496.008	294.19
496.225	297.19
496.442	308.19
496.66	288.19
496.877	285.19
497.094	296.19
497.312	286.19
497.529	304.19
497.746	287.19
497.963	307.19
498.181	317.19
498.398	332.19
498.615	356.19
498.832	376.19
499.049	393.19
499.267	420.19
499.484	464.19
499.701	512.19
499.918	552.19
500.135	634.19
500.352	736.19
500.569	752.19
500.786	756.19
501.003	712.19
501.22	641.19
501.437	571.19
501.654	496.19
501.871	436.19
502.088	402.19
502.305	386.19
502.522	378.19
502.739	390.19
502.956	349.19
503.172	304.19
503.389	322.19
503.606	305.19
503.823	306.19
504.04	312.19
504.256	323.19
504.473	314.19
504.69	337.19
504.907	342.19
505.123	312.19
505.34	289.19
505.557	269.19
505.773	280.19
505.99	273.19
506.207	249.19
506.423	256.19
506.64	261.19
506.856	257.19
507.073	249.19
507.289	266.19
507.506	254.19
507.722	267.19
507.939	256.19
508.155	261.19
508.372	249.19
508.588	245.19
508.805	240.19
509.021	253.19
509.238	246.19
509.454	238.19
509.67	238.19
509.887	252.19
510.103	236.19
510.319	226.19
510.536	256.19
510.752	252.19
510.968	249.19
511.184	246.19
511.401	242.19
511.617	226.19
511.833	226.19
512.049	217.19
512.265	233.19
512.481	246.19
512.698	235.19
512.914	231.19
513.13	239.19
513.346	226.19
513.562	247.19
513.778	234.19
513.994	233.19
514.21	227.19
514.426	242.19
514.642	247.19
514.858	248.19
515.074	256.19
515.29	271.19
515.506	241.19
515.721	247.19
515.937	255.19
516.153	256.19
516.369	243.19
516.585	276.19
516.801	276.19
517.016	304.19
517.232	300.19
517.448	294.19
517.664	313.19
517.879	320.19
518.095	323.19
518.311	318.19
518.527	304.19
518.742	311.19
518.958	274.19
519.173	270.19
519.389	265.19
519.605	244.19
519.82	260.19
520.036	271.19
520.251	260.19
520.467	252.19
520.682	247.19
520.898	228.19
521.113	245.19
521.329	241.19
521.544	240.19
521.76	233.19
521.975	236.19
522.19	224.19
522.406	238.19
522.621	237.19
522.836	209.19
523.052	224.19
523.267	225.19
523.482	220.19
523.698	229.19
523.913	242.19
524.128	216.19
524.343	248.19
524.559	221.19
524.774	217.19
524.989	238.19
525.204	218.19
525.419	219.19
525.634	229.19
525.849	225.19
526.064	218.19
526.28	214.19
526.495	227.19
526.71	225.19
526.925	208.19
527.14	220.19
527.355	227.19
527.57	225.19
527.785	225.19
527.999	221.19
528.214	235.19
528.429	229.19
528.644	226.19
528.859	228.19
529.074	238.19
529.289	227.19
529.503	232.19
529.718	212.19
529.933	235.19
530.148	228.19
530.363	242.19
530.577	224.19
530.792	224.19
531.007	224.19
531.221	230.19
531.436	243.19
531.651	232.19
531.865	231.19
532.08	225.19
532.295	237.19
532.509	234.19
532.724	235.19
532.938	219.19
533.153	227.19
533.367	220.19
533.582	231.19
533.796	230.19
534.011	225.19
534.225	224.19
534.44	218.19
534.654	210.19
534.868	227.19
535.083	226.19
535.297	230.19
535.511	216.19
535.726	236.19
535.94	216.19
536.154	221.19
536.369	232.19
536.583	210.19
536.797	193.19
537.011	212.19
537.225	227.19
537.44	201.19
537.654	205.19
537.868	215.19
538.082	219.19
538.296	218.19
538.51	211.19
538.724	214.19
538.938	220.19
539.153	212.19
539.367	217.19
539.581	209.19
539.795	199.19
540.009	194.19
540.222	189.19
540.436	205.19
540.65	198.19
540.864	206.19
541.078	217.19
541.292	211.19
541.506	210.19
541.72	220.19
541.934	227.19
542.147	232.19
542.361	225.19
542.575	221.19
542.789	219.19
543.002	209.19
543.216	226.19
543.43	221.19
543.644	208.19
543.857	216.19
544.071	209.19
544.285	232.19
544.498	208.19
544.712	221.19
544.925	215.19
545.139	224.19
545.352	206.19
545.566	220.19
545.779	218.19
545.993	218.19
546.206	220.19
546.42	214.19
546.633	214.19
546.847	212.19
547.06	226.19
547.274	215.19
547.487	214.19
547.7	224.19
547.914	223.19
548.127	215.19
548.34	220.19
548.554	232.19
548.767	211.19
548.98	221.19
549.193	217.19
549.407	221.19
549.62	221.19
549.833	212.19
550.046	209.19
550.259	233.19
550.473	232.19
550.686	227.19
550.899	214.19
551.112	208.19
551.325	218.19
551.538	194.19
551.751	216.19
551.964	221.19
552.177	220.19
552.39	219.19
552.603	220.19
552.816	235.19
553.029	233.19
553.242	237.19
553.455	237.19
553.667	257.19
553.88	259.19
554.093	217.19
554.306	233.19
554.519	210.19
554.732	225.19
554.944	219.19
555.157	201.19
555.37	227.19
555.583	204.19
555.795	223.19
556.008	208.19
556.221	200.19
556.433	210.19
556.646	205.19
556.859	195.19
557.071	190.19
557.284	201.19
557.496	203.19
557.709	184.19
557.921	214.19
558.134	206.19
558.346	201.19
558.559	187.19
558.771	186.19
558.984	187.19
559.196	198.19
559.409	194.19
559.621	185.19
559.833	190.19
560.046	189.19
560.258	201.19
560.47	213.19
560.683	191.19
560.895	176.19
561.107	192.19
561.32	191.19
561.532	181.19
561.744	200.19
561.956	206.19
562.168	202.19
562.381	211.19
562.593	202.19
562.805	202.19
563.017	197.19
563.229	180.19
563.441	190.19
563.653	197.19
563.865	215.19
564.077	192.19
564.289	193.19
564.501	196.19
564.713	207.19
564.925	226.19
565.137	198.19
565.349	212.19
565.561	219.19
565.773	216.19
565.985	208.19
566.197	225.19
566.408	236.19
566.62	277.19
566.832	279.19
567.044	289.19
567.255	296.19
567.467	282.19
567.679	295.19
567.891	346.19
568.102	349.19
568.314	338.19
568.526	283.19
568.737	275.19
568.949	256.19
569.161	242.19
569.372	220.19
569.584	225.19
569.795	205.19
570.007	211.19
570.218	197.19
570.43	206.19
570.641	195.19
570.853	206.19
571.064	190.19
571.276	217.19
571.487	200.19
571.698	188.19
571.91	179.19
572.121	177.19
572.333	171.19
572.544	191.19
572.755	187.19
572.966	183.19
573.178	173.19
573.389	203.19
573.6	180.19
573.811	189.19
574.023	184.19
574.234	178.19
574.445	173.19
574.656	172.19
574.867	163.19
575.078	180.19
575.289	176.19
575.501	187.19
575.712	160.19
575.923	179.19
576.134	158.19
576.345	167.19
576.556	171.19
576.767	184.19
576.978	178.19
577.188	166.19
577.399	179.19
577.61	165.19
577.821	166.19
578.032	156.19
578.243	166.19
578.454	166.19
578.665	166.19
578.875	166.19
579.086	161.19
579.297	157.19
579.508	172.19
579.718	171.19
579.929	158.19
580.14	167.19
580.35	150.19
580.561	163.19
580.772	165.19
580.982	160.19
581.193	169.19
581.403	155.19
581.614	153.19
581.825	157.19
582.035	157.19
582.246	158.19
582.456	148.19
582.667	165.19
582.877	165.19
583.087	157.19
583.298	148.19
583.508	160.19
583.719	163.19
583.929	173.19
584.139	151.19
584.35	135.19
584.56	159.19
584.77	165.19
584.981	157.19
585.191	148.19
585.401	150.19
585.611	152.19
585.821	150.19
586.032	170.19
586.242	168.19
586.452	153.19
586.662	166.19
586.872	152.19
587.082	160.19
587.292	154.19
587.502	149.19
587.713	152.19
587.923	141.19
588.133	142.19
588.343	155.19
588.553	147.19
588.762	160.19
588.972	160.19
589.182	165.19
589.392	159.19
589.602	164.19
589.812	154.19
590.022	164.19
590.232	164.19
590.441	162.19
590.651	154.19
590.861	160.19
591.071	167.19
591.281	170.19
591.49	168.19
591.7	162.19
591.91	163.19
592.119	169.19
592.329	160.19
592.539	170.19
592.748	190.19
592.958	183.19
593.167	169.19
593.377	170.19
593.587	189.19
593.796	176.19
594.006	195.19
594.215	187.19
594.424	192.19
594.634	202.19
594.843	187.19
595.053	170.19
595.262	168.19
595.472	172.19
595.681	170.19
595.89	177.19
596.1	172.19
596.309	155.19
596.518	142.19
596.727	157.19
596.937	151.19
597.146	164.19
597.355	151.19
597.564	150.19
597.774	152.19
597.983	157.19
598.192	151.19
598.401	145.19
598.61	153.19
598.819	137.19
599.028	155.19
599.237	157.19
599.446	143.19
599.655	154.19
599.864	133.19
600.073	129.19
600.282	157.19
600.491	156.19
600.7	144.19
600.909	141.19
601.118	132.19
601.327	142.19
601.536	125.19
601.745	128.19
601.953	148.19
602.162	140.19
602.371	154.19
602.58	142.19
602.789	133.19
602.997	142.19
603.206	152.19
603.415	148.19
603.623	142.19
603.832	130.19
604.041	133.19
604.249	129.19
604.458	136.19
604.666	146.19
604.875	141.19
605.084	130.19
605.292	131.19
605.501	137.19
605.709	144.19
605.918	144.19
606.126	139.19
606.334	142.19
606.543	140.19
606.751	138.19
606.96	128.19
607.168	146.19
607.376	130.19
607.585	138.19
607.793	131.19
608.001	138.19
608.21	138.19
608.418	130.19
608.626	126.19
608.834	131.19
609.043	136.19
609.251	134.19
609.459	125.19
609.667	137.19
609.875	140.19
610.083	138.19
610.291	124.19
610.499	138.19
610.707	148.19
610.916	151.19
611.124	133.19
611.332	146.19
611.54	132.19
611.748	131.19
611.955	141.19
612.163	134.19
612.371	139.19
612.579	142.19
612.787	129.19
612.995	137.19
613.203	136.19
613.411	130.19
613.618	148.19
613.826	137.19
614.034	138.19
614.242	133.19
614.449	124.19
614.657	128.19
614.865	124.19
615.072	136.19
615.28	133.19
615.488	124.19
615.695	128.19
615.903	140.19
616.111	125.19
616.318	135.19
616.526	131.19
616.733	138.19
616.941	149.19
617.148	133.19
617.356	134.19
617.563	129.19
617.771	139.19
617.978	132.19
618.185	121.19
618.393	150.19
618.6	133.19
618.807	141.19
619.015	131.19
619.222	136.19
619.429	137.19
619.637	130.19
619.844	125.19
620.051	131.19
620.258	140.19
620.466	128.19
620.673	123.19
620.88	130.19
621.087	136.19
621.294	128.19
621.501	130.19
621.708	138.19
621.915	135.19
622.122	125.19
622.329	135.19
622.536	118.19
622.743	140.19
622.95	138.19
623.157	128.19
623.364	124.19
623.571	137.19
623.778	128.19
623.985	118.19
624.192	125.19
624.399	141.19
624.606	140.19
624.812	129.19
625.019	126.19
625.226	126.19
625.433	133.19
625.639	125.19
625.846	116.19
626.053	130.19
626.259	137.19
626.466	124.19
626.673	122.19
626.879	139.19
627.086	126.19
627.293	135.19
627.499	135.19
627.706	129.19
627.912	107.19
628.119	122.19
628.325	132.19
628.532	125.19
628.738	124.19
628.945	130.19
629.151	126.19
629.357	128.19
629.564	128.19
629.77	117.19
629.976	130.19
630.183	127.19
630.389	124.19
630.595	126.19
630.802	130.19
631.008	124.19
631.214	120.19
631.42	122.19
631.627	124.19
631.833	109.19
632.039	108.19
632.245	129.19
632.451	128.19
632.657	107.19
632.863	112.19
633.069	119.19
633.275	110.19
633.481	112.19
633.688	123.19
633.893	129.19
634.099	127.19
634.305	114.19
634.511	123.19
634.717	120.19
634.923	121.19
635.129	122.19
635.335	120.19
635.541	124.19
635.747	121.19
635.952	104.19
636.158	121.19
636.364	123.19
636.57	107.19
636.775	124.19
636.981	111.19
637.187	134.19
637.392	122.19
637.598	113.19
637.804	102.19
638.009	116.19
638.215	100.19
638.421	116.19
638.626	115.19
638.832	113.19
639.037	112.19
639.243	108.19
639.448	106.19
639.654	112.19
639.859	122.19
640.065	115.19
640.27	121.19
640.475	114.19
640.681	109.19
640.886	116.19
641.091	138.19
641.297	121.19
641.502	102.19
641.707	134.19
641.913	115.19
642.118	120.19
642.323	112.19
642.528	112.19
642.733	120.19
642.939	110.19
643.144	114.19
643.349	114.19
643.554	117.19
643.759	113.19
643.964	117.19
644.169	113.19
644.374	97.19
644.579	108.19
644.784	110.19
644.989	105.19
645.194	120.19
645.399	107.19
645.604	106.19
645.809	115.19
646.014	114.19
646.219	106.19
646.423	115.19
646.628	109.19
646.833	109.19
647.038	116.19
647.243	112.19
647.447	123.19
647.652	123.19
647.857	115.19
648.062	124.19
648.266	116.19
648.471	103.19
648.676	107.19
648.88	112.19
649.085	111.19
649.289	113.19
649.494	121.19
649.698	95.19
649.903	118.19
650.107	112.19
650.312	120.19
650.516	122.19
650.721	96.19
650.925	120.19
651.13	111.19
651.334	110.19
651.539	115.19
651.743	103.19
651.947	112.19
652.152	107.19
652.356	98.19
652.56	117.19
652.764	96.19
652.969	124.19
653.173	94.19
653.377	128.19
653.581	104.19
653.785	99.19
653.99	103.19
654.194	98.19
654.398	104.19
654.602	113.19
654.806	102.19
655.01	114.19
655.214	110.19
655.418	100.19
655.622	117.19
655.826	112.19
656.03	104.19
656.234	104.19
656.438	114.19
656.642	106.19
656.846	108.19
657.049	99.19
657.253	95.19
657.457	91.19
657.661	85.19
657.865	102.19
658.068	93.19
658.272	91.19
658.476	84.19
658.68	106.19
658.883	77.19
659.087	78.19
659.291	82.19
659.494	91.19
659.698	100.19
659.901	85.19
660.105	101.19
660.309	82.19
660.512	91.19
660.716	76.19
660.919	80.19
661.123	95.19
661.326	80.19
661.53	73.19
661.733	88.19
661.936	78.19
662.14	91.19
662.343	81.19
662.546	78.19
662.75	87.19
662.953	79.19
663.156	73.19
663.36	91.19
663.563	86.19
663.766	88.19
663.969	76.19
664.173	77.19
664.376	92.19
664.579	90.19
664.782	90.19
664.985	91.19
665.188	78.19
665.391	81.19
665.594	91.19
665.797	81.19
666	80.19
666.203	83.19
666.406	86.19
666.609	89.19
666.812	88.19
667.015	76.19
667.218	89.19
667.421	74.19
667.624	87.19
667.827	93.19
668.03	83.19
668.232	81.19
668.435	74.19
668.638	76.19
668.841	76.19
669.043	86.19
669.246	92.19
669.449	91.19
669.651	78.19
669.854	84.19
670.057	91.19
670.259	72.19
670.462	82.19
670.665	80.19
670.867	89.19
671.07	75.19
671.272	86.19
671.475	96.19
671.677	76.19
671.88	71.19
672.082	74.19
672.284	87.19
672.487	79.19
672.689	81.19
672.892	87.19
