Data from 0.5MCu(NO3)2.Standard.Lamp.E10.CV._HRD10591_16-03-56-753.txt Node
Date: Mon Jul 22 16:03:56 EDT 2019
User: cochatt
Spectrometer: HR+D1059
Trigger mode: 1
Integration Time (sec): 1.000000E-1
Scans to average: 1
Electric dark correction enabled: true
Nonlinearity correction enabled: false
Boxcar width: 0
XAxis mode: Wavelengths
Number of Pixels in Spectrum: 2048
>>>>>Begin Spectral Data<<<<<
223.165	-18.81
223.4	-18.81
223.635	-18.81
223.869	-11.81
224.104	-14.81
224.338	-7.81
224.573	-17.81
224.808	-13.81
225.042	-13.81
225.277	5.19
225.511	-12.81
225.746	-1.81
225.98	9.19
226.215	2.19
226.449	21.19
226.683	22.19
226.918	30.19
227.152	23.19
227.387	30.19
227.621	46.19
227.856	39.19
228.09	43.19
228.324	44.19
228.559	55.19
228.793	62.19
229.027	65.19
229.262	64.19
229.496	77.19
229.73	54.19
229.964	81.19
230.199	87.19
230.433	88.19
230.667	90.19
230.901	85.19
231.136	99.19
231.37	86.19
231.604	87.19
231.838	91.19
232.072	91.19
232.306	92.19
232.541	94.19
232.775	86.19
233.009	90.19
233.243	94.19
233.477	90.19
233.711	93.19
233.945	72.19
234.179	81.19
234.413	98.19
234.647	83.19
234.881	94.19
235.115	83.19
235.349	104.19
235.583	89.19
235.817	90.19
236.051	79.19
236.285	77.19
236.519	96.19
236.753	99.19
236.987	88.19
237.221	96.19
237.455	81.19
237.689	89.19
237.922	102.19
238.156	74.19
238.39	94.19
238.624	80.19
238.858	98.19
239.091	97.19
239.325	90.19
239.559	85.19
239.793	86.19
240.027	108.19
240.26	88.19
240.494	104.19
240.728	88.19
240.961	99.19
241.195	89.19
241.429	87.19
241.662	103.19
241.896	106.19
242.13	88.19
242.363	89.19
242.597	82.19
242.83	107.19
243.064	104.19
243.298	95.19
243.531	96.19
243.765	100.19
243.998	97.19
244.232	89.19
244.465	96.19
244.699	91.19
244.932	109.19
245.166	105.19
245.399	101.19
245.633	117.19
245.866	106.19
246.099	107.19
246.333	92.19
246.566	102.19
246.8	113.19
247.033	109.19
247.266	95.19
247.5	100.19
247.733	102.19
247.966	105.19
248.2	106.19
248.433	115.19
248.666	100.19
248.899	108.19
249.133	113.19
249.366	116.19
249.599	120.19
249.832	124.19
250.066	121.19
250.299	110.19
250.532	105.19
250.765	109.19
250.998	109.19
251.231	112.19
251.465	108.19
251.698	118.19
251.931	103.19
252.164	104.19
252.397	103.19
252.63	124.19
252.863	105.19
253.096	109.19
253.329	117.19
253.562	118.19
253.795	93.19
254.028	112.19
254.261	100.19
254.494	118.19
254.727	109.19
254.96	102.19
255.193	108.19
255.426	121.19
255.659	112.19
255.892	124.19
256.124	113.19
256.357	125.19
256.59	121.19
256.823	119.19
257.056	127.19
257.289	117.19
257.521	114.19
257.754	122.19
257.987	108.19
258.22	128.19
258.452	125.19
258.685	119.19
258.918	114.19
259.151	120.19
259.383	121.19
259.616	123.19
259.849	115.19
260.081	116.19
260.314	114.19
260.547	131.19
260.779	102.19
261.012	115.19
261.244	128.19
261.477	124.19
261.71	124.19
261.942	116.19
262.175	136.19
262.407	130.19
262.64	137.19
262.872	132.19
263.105	113.19
263.337	122.19
263.57	108.19
263.802	130.19
264.035	134.19
264.267	118.19
264.499	140.19
264.732	140.19
264.964	140.19
265.197	130.19
265.429	121.19
265.661	123.19
265.894	128.19
266.126	153.19
266.358	136.19
266.591	126.19
266.823	136.19
267.055	149.19
267.287	133.19
267.52	142.19
267.752	130.19
267.984	139.19
268.216	146.19
268.448	140.19
268.681	136.19
268.913	144.19
269.145	147.19
269.377	137.19
269.609	140.19
269.841	144.19
270.073	133.19
270.306	136.19
270.538	150.19
270.77	125.19
271.002	136.19
271.234	127.19
271.466	149.19
271.698	144.19
271.93	152.19
272.162	147.19
272.394	160.19
272.626	142.19
272.858	140.19
273.09	150.19
273.322	148.19
273.553	136.19
273.785	133.19
274.017	132.19
274.249	141.19
274.481	137.19
274.713	138.19
274.945	141.19
275.176	140.19
275.408	144.19
275.64	136.19
275.872	138.19
276.104	139.19
276.335	148.19
276.567	137.19
276.799	139.19
277.031	151.19
277.262	157.19
277.494	144.19
277.726	150.19
277.957	147.19
278.189	165.19
278.421	146.19
278.652	160.19
278.884	162.19
279.115	140.19
279.347	157.19
279.579	165.19
279.81	151.19
280.042	161.19
280.273	158.19
280.505	156.19
280.736	141.19
280.968	172.19
281.199	166.19
281.431	155.19
281.662	146.19
281.894	155.19
282.125	161.19
282.356	155.19
282.588	154.19
282.819	149.19
283.051	165.19
283.282	153.19
283.513	163.19
283.745	141.19
283.976	139.19
284.207	157.19
284.439	166.19
284.67	170.19
284.901	189.19
285.132	154.19
285.364	150.19
285.595	182.19
285.826	168.19
286.057	182.19
286.288	162.19
286.52	165.19
286.751	172.19
286.982	168.19
287.213	165.19
287.444	191.19
287.675	185.19
287.906	171.19
288.138	179.19
288.369	192.19
288.6	177.19
288.831	171.19
289.062	189.19
289.293	190.19
289.524	163.19
289.755	165.19
289.986	168.19
290.217	182.19
290.448	187.19
290.679	180.19
290.91	174.19
291.141	190.19
291.371	176.19
291.602	166.19
291.833	150.19
292.064	171.19
292.295	175.19
292.526	184.19
292.757	176.19
292.987	164.19
293.218	162.19
293.449	178.19
293.68	184.19
293.91	190.19
294.141	178.19
294.372	181.19
294.603	181.19
294.833	192.19
295.064	179.19
295.295	178.19
295.525	189.19
295.756	152.19
295.987	172.19
296.217	189.19
296.448	185.19
296.679	169.19
296.909	196.19
297.14	188.19
297.37	193.19
297.601	188.19
297.831	179.19
298.062	202.19
298.292	200.19
298.523	177.19
298.753	201.19
298.984	198.19
299.214	204.19
299.445	182.19
299.675	177.19
299.905	193.19
300.136	192.19
300.366	182.19
300.597	197.19
300.827	205.19
301.057	205.19
301.288	198.19
301.518	207.19
301.748	194.19
301.979	193.19
302.209	193.19
302.439	197.19
302.669	192.19
302.9	207.19
303.13	200.19
303.36	196.19
303.59	196.19
303.82	201.19
304.051	200.19
304.281	213.19
304.511	206.19
304.741	212.19
304.971	193.19
305.201	197.19
305.431	204.19
305.661	178.19
305.891	200.19
306.121	197.19
306.352	187.19
306.582	208.19
306.812	193.19
307.042	177.19
307.272	180.19
307.502	186.19
307.731	189.19
307.961	189.19
308.191	180.19
308.421	187.19
308.651	199.19
308.881	201.19
309.111	213.19
309.341	212.19
309.571	198.19
309.8	203.19
310.03	184.19
310.26	197.19
310.49	202.19
310.72	193.19
310.949	192.19
311.179	193.19
311.409	192.19
311.639	201.19
311.868	213.19
312.098	194.19
312.328	191.19
312.557	210.19
312.787	181.19
313.017	199.19
313.246	217.19
313.476	202.19
313.706	217.19
313.935	206.19
314.165	200.19
314.394	212.19
314.624	199.19
314.853	208.19
315.083	221.19
315.312	216.19
315.542	206.19
315.771	200.19
316.001	189.19
316.23	202.19
316.46	202.19
316.689	199.19
316.919	203.19
317.148	218.19
317.377	195.19
317.607	204.19
317.836	196.19
318.065	187.19
318.295	202.19
318.524	200.19
318.753	199.19
318.983	207.19
319.212	193.19
319.441	187.19
319.67	200.19
319.9	201.19
320.129	205.19
320.358	205.19
320.587	205.19
320.816	188.19
321.046	189.19
321.275	201.19
321.504	190.19
321.733	198.19
321.962	211.19
322.191	188.19
322.42	200.19
322.649	198.19
322.878	201.19
323.108	207.19
323.337	207.19
323.566	191.19
323.795	206.19
324.024	192.19
324.253	198.19
324.482	225.19
324.71	192.19
324.939	210.19
325.168	199.19
325.397	216.19
325.626	199.19
325.855	207.19
326.084	222.19
326.313	188.19
326.542	205.19
326.77	215.19
326.999	209.19
327.228	231.19
327.457	212.19
327.686	216.19
327.914	218.19
328.143	225.19
328.372	215.19
328.6	230.19
328.829	212.19
329.058	211.19
329.287	211.19
329.515	225.19
329.744	226.19
329.972	216.19
330.201	220.19
330.43	214.19
330.658	210.19
330.887	232.19
331.115	218.19
331.344	217.19
331.572	205.19
331.801	229.19
332.03	224.19
332.258	226.19
332.486	252.19
332.715	245.19
332.943	263.19
333.172	275.19
333.4	276.19
333.629	279.19
333.857	293.19
334.085	287.19
334.314	245.19
334.542	275.19
334.771	241.19
334.999	262.19
335.227	257.19
335.455	248.19
335.684	244.19
335.912	265.19
336.14	249.19
336.369	241.19
336.597	250.19
336.825	250.19
337.053	236.19
337.281	225.19
337.51	243.19
337.738	237.19
337.966	212.19
338.194	225.19
338.422	234.19
338.65	226.19
338.878	223.19
339.106	213.19
339.334	219.19
339.562	223.19
339.79	217.19
340.018	226.19
340.246	215.19
340.474	219.19
340.702	202.19
340.93	214.19
341.158	196.19
341.386	217.19
341.614	230.19
341.842	225.19
342.07	212.19
342.298	231.19
342.526	232.19
342.754	238.19
342.981	218.19
343.209	216.19
343.437	236.19
343.665	242.19
343.893	285.19
344.12	264.19
344.348	258.19
344.576	233.19
344.804	232.19
345.031	232.19
345.259	235.19
345.487	228.19
345.714	224.19
345.942	226.19
346.17	227.19
346.397	223.19
346.625	210.19
346.853	215.19
347.08	219.19
347.308	231.19
347.535	225.19
347.763	210.19
347.99	235.19
348.218	225.19
348.445	233.19
348.673	218.19
348.9	210.19
349.128	227.19
349.355	241.19
349.583	224.19
349.81	189.19
350.037	210.19
350.265	205.19
350.492	220.19
350.72	207.19
350.947	211.19
351.174	205.19
351.402	210.19
351.629	212.19
351.856	214.19
352.083	210.19
352.311	215.19
352.538	210.19
352.765	200.19
352.992	211.19
353.22	206.19
353.447	201.19
353.674	209.19
353.901	206.19
354.128	219.19
354.355	213.19
354.583	206.19
354.81	227.19
355.037	219.19
355.264	199.19
355.491	209.19
355.718	204.19
355.945	216.19
356.172	214.19
356.399	206.19
356.626	221.19
356.853	223.19
357.08	212.19
357.307	218.19
357.534	216.19
357.761	203.19
357.988	216.19
358.215	213.19
358.441	202.19
358.668	214.19
358.895	216.19
359.122	211.19
359.349	206.19
359.576	226.19
359.802	214.19
360.029	201.19
360.256	213.19
360.483	200.19
360.709	198.19
360.936	229.19
361.163	204.19
361.39	204.19
361.616	220.19
361.843	200.19
362.07	209.19
362.296	212.19
362.523	184.19
362.749	210.19
362.976	216.19
363.203	222.19
363.429	218.19
363.656	195.19
363.882	199.19
364.109	216.19
364.335	196.19
364.562	208.19
364.788	212.19
365.015	210.19
365.241	213.19
365.468	202.19
365.694	216.19
365.92	205.19
366.147	210.19
366.373	204.19
366.599	198.19
366.826	204.19
367.052	204.19
367.278	204.19
367.505	209.19
367.731	212.19
367.957	219.19
368.184	213.19
368.41	207.19
368.636	217.19
368.862	217.19
369.089	217.19
369.315	223.19
369.541	204.19
369.767	217.19
369.993	220.19
370.219	209.19
370.445	222.19
370.672	213.19
370.898	216.19
371.124	203.19
371.35	246.19
371.576	232.19
371.802	214.19
372.028	231.19
372.254	225.19
372.48	212.19
372.706	226.19
372.932	212.19
373.158	235.19
373.384	240.19
373.61	213.19
373.835	210.19
374.061	205.19
374.287	220.19
374.513	224.19
374.739	229.19
374.965	220.19
375.191	234.19
375.416	241.19
375.642	229.19
375.868	225.19
376.094	240.19
376.319	237.19
376.545	215.19
376.771	225.19
376.997	228.19
377.222	240.19
377.448	233.19
377.674	219.19
377.899	200.19
378.125	217.19
378.35	216.19
378.576	220.19
378.802	206.19
379.027	199.19
379.253	213.19
379.478	210.19
379.704	221.19
379.929	211.19
380.155	219.19
380.38	217.19
380.606	213.19
380.831	224.19
381.057	222.19
381.282	209.19
381.507	221.19
381.733	221.19
381.958	220.19
382.184	242.19
382.409	212.19
382.634	226.19
382.86	229.19
383.085	244.19
383.31	218.19
383.535	224.19
383.761	227.19
383.986	237.19
384.211	243.19
384.436	248.19
384.662	243.19
384.887	256.19
385.112	261.19
385.337	260.19
385.562	247.19
385.787	258.19
386.013	260.19
386.238	258.19
386.463	265.19
386.688	264.19
386.913	244.19
387.138	259.19
387.363	247.19
387.588	259.19
387.813	241.19
388.038	230.19
388.263	256.19
388.488	248.19
388.713	245.19
388.938	246.19
389.163	257.19
389.387	236.19
389.612	251.19
389.837	256.19
390.062	257.19
390.287	251.19
390.512	238.19
390.736	214.19
390.961	261.19
391.186	262.19
391.411	245.19
391.636	254.19
391.86	271.19
392.085	278.19
392.31	286.19
392.534	272.19
392.759	269.19
392.984	268.19
393.208	267.19
393.433	257.19
393.658	260.19
393.882	260.19
394.107	252.19
394.331	268.19
394.556	274.19
394.78	241.19
395.005	260.19
395.229	266.19
395.454	261.19
395.678	273.19
395.903	268.19
396.127	264.19
396.352	265.19
396.576	260.19
396.801	250.19
397.025	254.19
397.249	256.19
397.474	275.19
397.698	265.19
397.922	261.19
398.147	269.19
398.371	267.19
398.595	269.19
398.82	263.19
399.044	304.19
399.268	322.19
399.492	391.19
399.717	428.19
399.941	415.19
400.165	374.19
400.389	327.19
400.613	297.19
400.837	284.19
401.062	299.19
401.286	301.19
401.51	301.19
401.734	287.19
401.958	280.19
402.182	311.19
402.406	307.19
402.63	308.19
402.854	315.19
403.078	309.19
403.302	326.19
403.526	333.19
403.75	329.19
403.974	354.19
404.198	348.19
404.422	337.19
404.645	330.19
404.869	314.19
405.093	335.19
405.317	329.19
405.541	322.19
405.765	301.19
405.988	308.19
406.212	320.19
406.436	312.19
406.66	307.19
406.883	330.19
407.107	376.19
407.331	353.19
407.555	363.19
407.778	385.19
408.002	363.19
408.226	344.19
408.449	334.19
408.673	316.19
408.896	310.19
409.12	314.19
409.344	334.19
409.567	326.19
409.791	311.19
410.014	337.19
410.238	318.19
410.461	318.19
410.685	330.19
410.908	316.19
411.132	334.19
411.355	301.19
411.578	300.19
411.802	308.19
412.025	291.19
412.249	321.19
412.472	315.19
412.695	287.19
412.919	301.19
413.142	288.19
413.365	294.19
413.589	296.19
413.812	285.19
414.035	280.19
414.258	291.19
414.482	305.19
414.705	299.19
414.928	308.19
415.151	297.19
415.374	295.19
415.597	284.19
415.821	276.19
416.044	294.19
416.267	292.19
416.49	282.19
416.713	290.19
416.936	273.19
417.159	277.19
417.382	301.19
417.605	294.19
417.828	292.19
418.051	284.19
418.274	298.19
418.497	285.19
418.72	296.19
418.943	301.19
419.166	327.19
419.389	329.19
419.611	307.19
419.834	288.19
420.057	302.19
420.28	293.19
420.503	269.19
420.726	276.19
420.948	270.19
421.171	276.19
421.394	287.19
421.617	281.19
421.839	285.19
422.062	291.19
422.285	295.19
422.507	305.19
422.73	305.19
422.953	285.19
423.175	287.19
423.398	323.19
423.621	309.19
423.843	309.19
424.066	299.19
424.288	305.19
424.511	300.19
424.733	292.19
424.956	291.19
425.178	286.19
425.401	293.19
425.623	305.19
425.846	282.19
426.068	291.19
426.291	290.19
426.513	274.19
426.735	269.19
426.958	280.19
427.18	285.19
427.402	275.19
427.625	269.19
427.847	274.19
428.069	258.19
428.292	267.19
428.514	262.19
428.736	271.19
428.958	254.19
429.181	252.19
429.403	266.19
429.625	265.19
429.847	259.19
430.069	251.19
430.292	274.19
430.514	251.19
430.736	262.19
430.958	245.19
431.18	259.19
431.402	252.19
431.624	249.19
431.846	250.19
432.068	265.19
432.29	266.19
432.512	267.19
432.734	278.19
432.956	261.19
433.178	270.19
433.4	256.19
433.622	259.19
433.844	277.19
434.066	290.19
434.287	260.19
434.509	272.19
434.731	278.19
434.953	298.19
435.175	299.19
435.397	281.19
435.618	272.19
435.84	267.19
436.062	260.19
436.284	248.19
436.505	278.19
436.727	271.19
436.949	275.19
437.17	289.19
437.392	270.19
437.614	263.19
437.835	266.19
438.057	257.19
438.278	248.19
438.5	272.19
438.721	240.19
438.943	248.19
439.165	259.19
439.386	262.19
439.608	267.19
439.829	257.19
440.05	258.19
440.272	270.19
440.493	264.19
440.715	270.19
440.936	261.19
441.158	270.19
441.379	284.19
441.6	293.19
441.822	296.19
442.043	316.19
442.264	296.19
442.486	278.19
442.707	282.19
442.928	293.19
443.149	277.19
443.371	279.19
443.592	284.19
443.813	284.19
444.034	298.19
444.255	298.19
444.476	317.19
444.698	328.19
444.919	339.19
445.14	454.19
445.361	344.19
445.582	299.19
445.803	290.19
446.024	274.19
446.245	270.19
446.466	270.19
446.687	253.19
446.908	264.19
447.129	276.19
447.35	240.19
447.571	251.19
447.792	228.19
448.013	261.19
448.234	238.19
448.455	251.19
448.675	242.19
448.896	256.19
449.117	258.19
449.338	255.19
449.559	249.19
449.779	235.19
450	219.19
450.221	236.19
450.442	248.19
450.662	260.19
450.883	264.19
451.104	271.19
451.324	234.19
451.545	245.19
451.766	267.19
451.986	257.19
452.207	227.19
452.428	238.19
452.648	238.19
452.869	253.19
453.089	245.19
453.31	238.19
453.53	251.19
453.751	253.19
453.971	218.19
454.192	228.19
454.412	248.19
454.633	237.19
454.853	231.19
455.073	232.19
455.294	232.19
455.514	238.19
455.734	243.19
455.955	215.19
456.175	237.19
456.395	220.19
456.616	228.19
456.836	221.19
457.056	232.19
457.276	216.19
457.497	234.19
457.717	244.19
457.937	226.19
458.157	245.19
458.377	247.19
458.598	225.19
458.818	252.19
459.038	240.19
459.258	235.19
459.478	267.19
459.698	269.19
459.918	278.19
460.138	290.19
460.358	305.19
460.578	297.19
460.798	320.19
461.018	304.19
461.238	291.19
461.458	314.19
461.678	314.19
461.898	308.19
462.118	302.19
462.338	294.19
462.558	328.19
462.777	346.19
462.997	361.19
463.217	381.19
463.437	409.19
463.657	371.19
463.876	347.19
464.096	349.19
464.316	349.19
464.536	361.19
464.755	350.19
464.975	341.19
465.195	308.19
465.414	323.19
465.634	284.19
465.854	280.19
466.073	276.19
466.293	270.19
466.512	269.19
466.732	267.19
466.951	247.19
467.171	229.19
467.391	262.19
467.61	255.19
467.829	246.19
468.049	242.19
468.268	249.19
468.488	253.19
468.707	253.19
468.927	240.19
469.146	268.19
469.365	262.19
469.585	257.19
469.804	271.19
470.023	252.19
470.243	270.19
470.462	275.19
470.681	258.19
470.901	252.19
471.12	276.19
471.339	273.19
471.558	268.19
471.777	244.19
471.997	249.19
472.216	266.19
472.435	260.19
472.654	243.19
472.873	257.19
473.092	258.19
473.311	255.19
473.53	245.19
473.749	243.19
473.968	247.19
474.187	242.19
474.406	239.19
474.625	244.19
474.844	254.19
475.063	247.19
475.282	241.19
475.501	256.19
475.72	267.19
475.939	269.19
476.158	243.19
476.377	250.19
476.596	260.19
476.814	261.19
477.033	269.19
477.252	270.19
477.471	266.19
477.69	264.19
477.908	270.19
478.127	274.19
478.346	280.19
478.564	283.19
478.783	305.19
479.002	288.19
479.22	304.19
479.439	295.19
479.658	290.19
479.876	297.19
480.095	292.19
480.313	310.19
480.532	315.19
480.751	318.19
480.969	282.19
481.188	270.19
481.406	297.19
481.624	276.19
481.843	267.19
482.061	286.19
482.28	283.19
482.498	280.19
482.717	274.19
482.935	267.19
483.153	262.19
483.372	293.19
483.59	280.19
483.808	284.19
484.027	281.19
484.245	294.19
484.463	288.19
484.681	290.19
484.9	286.19
485.118	301.19
485.336	288.19
485.554	290.19
485.772	290.19
485.99	314.19
486.209	288.19
486.427	290.19
486.645	293.19
486.863	282.19
487.081	282.19
487.299	302.19
487.517	313.19
487.735	290.19
487.953	304.19
488.171	294.19
488.389	293.19
488.607	295.19
488.825	293.19
489.043	290.19
489.261	298.19
489.479	308.19
489.696	304.19
489.914	298.19
490.132	289.19
490.35	293.19
490.568	285.19
490.786	296.19
491.003	283.19
491.221	292.19
491.439	287.19
491.657	308.19
491.874	296.19
492.092	276.19
492.31	309.19
492.527	287.19
492.745	293.19
492.963	314.19
493.18	304.19
493.398	293.19
493.615	304.19
493.833	296.19
494.05	305.19
494.268	310.19
494.485	306.19
494.703	312.19
494.92	281.19
495.138	308.19
495.355	315.19
495.573	305.19
495.79	299.19
496.008	310.19
496.225	327.19
496.442	319.19
496.66	288.19
496.877	306.19
497.094	309.19
497.312	341.19
497.529	335.19
497.746	353.19
497.963	364.19
498.181	339.19
498.398	347.19
498.615	376.19
498.832	422.19
499.049	444.19
499.267	460.19
499.484	508.19
499.701	595.19
499.918	621.19
500.135	728.19
500.352	838.19
500.569	844.19
500.786	874.19
501.003	792.19
501.22	704.19
501.437	630.19
501.654	535.19
501.871	489.19
502.088	472.19
502.305	434.19
502.522	420.19
502.739	398.19
502.956	377.19
503.172	354.19
503.389	345.19
503.606	364.19
503.823	342.19
504.04	321.19
504.256	346.19
504.473	360.19
504.69	357.19
504.907	349.19
505.123	330.19
505.34	317.19
505.557	322.19
505.773	293.19
505.99	290.19
506.207	298.19
506.423	291.19
506.64	281.19
506.856	288.19
507.073	264.19
507.289	293.19
507.506	284.19
507.722	292.19
507.939	289.19
508.155	279.19
508.372	283.19
508.588	268.19
508.805	261.19
509.021	274.19
509.238	252.19
509.454	278.19
509.67	264.19
509.887	269.19
510.103	267.19
510.319	282.19
510.536	258.19
510.752	252.19
510.968	258.19
511.184	256.19
511.401	267.19
511.617	274.19
511.833	266.19
512.049	279.19
512.265	262.19
512.481	272.19
512.698	268.19
512.914	264.19
513.13	270.19
513.346	288.19
513.562	264.19
513.778	264.19
513.994	267.19
514.21	254.19
514.426	261.19
514.642	259.19
514.858	279.19
515.074	266.19
515.29	270.19
515.506	266.19
515.721	268.19
515.937	286.19
516.153	278.19
516.369	289.19
516.585	283.19
516.801	304.19
517.016	324.19
517.232	334.19
517.448	338.19
517.664	363.19
517.879	368.19
518.095	344.19
518.311	357.19
518.527	330.19
518.742	321.19
518.958	316.19
519.173	317.19
519.389	294.19
519.605	283.19
519.82	278.19
520.036	285.19
520.251	277.19
520.467	262.19
520.682	262.19
520.898	286.19
521.113	245.19
521.329	250.19
521.544	240.19
521.76	252.19
521.975	245.19
522.19	249.19
522.406	262.19
522.621	264.19
522.836	268.19
523.052	236.19
523.267	260.19
523.482	261.19
523.698	238.19
523.913	245.19
524.128	242.19
524.343	258.19
524.559	256.19
524.774	245.19
524.989	260.19
525.204	250.19
525.419	245.19
525.634	258.19
525.849	259.19
526.064	245.19
526.28	232.19
526.495	254.19
526.71	240.19
526.925	244.19
527.14	246.19
527.355	262.19
527.57	237.19
527.785	253.19
527.999	254.19
528.214	251.19
528.429	264.19
528.644	252.19
528.859	252.19
529.074	265.19
529.289	257.19
529.503	241.19
529.718	248.19
529.933	260.19
530.148	242.19
530.363	232.19
530.577	243.19
530.792	248.19
531.007	257.19
531.221	233.19
531.436	244.19
531.651	245.19
531.865	240.19
532.08	248.19
532.295	256.19
532.509	268.19
532.724	247.19
532.938	235.19
533.153	245.19
533.367	237.19
533.582	241.19
533.796	254.19
534.011	250.19
534.225	245.19
534.44	257.19
534.654	234.19
534.868	232.19
535.083	248.19
535.297	250.19
535.511	256.19
535.726	240.19
535.94	229.19
536.154	238.19
536.369	247.19
536.583	238.19
536.797	238.19
537.011	237.19
537.225	238.19
537.44	230.19
537.654	225.19
537.868	229.19
538.082	218.19
538.296	229.19
538.51	242.19
538.724	226.19
538.938	244.19
539.153	237.19
539.367	244.19
539.581	229.19
539.795	229.19
540.009	236.19
540.222	229.19
540.436	228.19
540.65	235.19
540.864	236.19
541.078	243.19
541.292	245.19
541.506	224.19
541.72	230.19
541.934	240.19
542.147	242.19
542.361	241.19
542.575	242.19
542.789	236.19
543.002	217.19
543.216	216.19
543.43	214.19
543.644	231.19
543.857	239.19
544.071	236.19
544.285	231.19
544.498	236.19
544.712	221.19
544.925	213.19
545.139	241.19
545.352	241.19
545.566	231.19
545.779	247.19
545.993	234.19
546.206	240.19
546.42	243.19
546.633	234.19
546.847	244.19
547.06	235.19
547.274	225.19
547.487	240.19
547.7	228.19
547.914	240.19
548.127	241.19
548.34	237.19
548.554	230.19
548.767	234.19
548.98	233.19
549.193	256.19
549.407	252.19
549.62	249.19
549.833	252.19
550.046	234.19
550.259	263.19
550.473	258.19
550.686	233.19
550.899	233.19
551.112	224.19
551.325	224.19
551.538	243.19
551.751	220.19
551.964	248.19
552.177	232.19
552.39	247.19
552.603	256.19
552.816	250.19
553.029	259.19
553.242	256.19
553.455	240.19
553.667	264.19
553.88	251.19
554.093	258.19
554.306	258.19
554.519	269.19
554.732	231.19
554.944	243.19
555.157	240.19
555.37	238.19
555.583	229.19
555.795	236.19
556.008	237.19
556.221	228.19
556.433	219.19
556.646	230.19
556.859	220.19
557.071	202.19
557.284	203.19
557.496	219.19
557.709	233.19
557.921	232.19
558.134	213.19
558.346	218.19
558.559	228.19
558.771	204.19
558.984	202.19
559.196	225.19
559.409	220.19
559.621	216.19
559.833	211.19
560.046	221.19
560.258	200.19
560.47	218.19
560.683	202.19
560.895	212.19
561.107	208.19
561.32	214.19
561.532	202.19
561.744	213.19
561.956	203.19
562.168	205.19
562.381	214.19
562.593	220.19
562.805	215.19
563.017	222.19
563.229	216.19
563.441	214.19
563.653	206.19
563.865	196.19
564.077	196.19
564.289	221.19
564.501	199.19
564.713	212.19
564.925	224.19
565.137	226.19
565.349	218.19
565.561	247.19
565.773	258.19
565.985	269.19
566.197	268.19
566.408	255.19
566.62	292.19
566.832	294.19
567.044	331.19
567.255	322.19
567.467	318.19
567.679	329.19
567.891	360.19
568.102	358.19
568.314	370.19
568.526	336.19
568.737	294.19
568.949	279.19
569.161	251.19
569.372	240.19
569.584	237.19
569.795	230.19
570.007	227.19
570.218	220.19
570.43	226.19
570.641	209.19
570.853	201.19
571.064	209.19
571.276	229.19
571.487	213.19
571.698	209.19
571.91	191.19
572.121	196.19
572.333	212.19
572.544	191.19
572.755	184.19
572.966	172.19
573.178	197.19
573.389	192.19
573.6	184.19
573.811	181.19
574.023	200.19
574.234	182.19
574.445	182.19
574.656	190.19
574.867	202.19
575.078	191.19
575.289	199.19
575.501	175.19
575.712	180.19
575.923	182.19
576.134	186.19
576.345	181.19
576.556	196.19
576.767	198.19
576.978	173.19
577.188	184.19
577.399	183.19
577.61	158.19
577.821	184.19
578.032	176.19
578.243	185.19
578.454	166.19
578.665	165.19
578.875	170.19
579.086	181.19
579.297	155.19
579.508	190.19
579.718	168.19
579.929	192.19
580.14	170.19
580.35	180.19
580.561	190.19
580.772	172.19
580.982	169.19
581.193	178.19
581.403	176.19
581.614	164.19
581.825	187.19
582.035	156.19
582.246	167.19
582.456	173.19
582.667	174.19
582.877	158.19
583.087	172.19
583.298	161.19
583.508	158.19
583.719	168.19
583.929	172.19
584.139	166.19
584.35	176.19
584.56	169.19
584.77	165.19
584.981	165.19
585.191	182.19
585.401	184.19
585.611	184.19
585.821	187.19
586.032	183.19
586.242	168.19
586.452	173.19
586.662	169.19
586.872	175.19
587.082	180.19
587.292	171.19
587.502	172.19
587.713	173.19
587.923	173.19
588.133	165.19
588.343	164.19
588.553	169.19
588.762	177.19
588.972	167.19
589.182	178.19
589.392	176.19
589.602	165.19
589.812	174.19
590.022	188.19
590.232	169.19
590.441	172.19
590.651	171.19
590.861	179.19
591.071	165.19
591.281	166.19
591.49	171.19
591.7	171.19
591.91	173.19
592.119	176.19
592.329	183.19
592.539	201.19
592.748	203.19
592.958	194.19
593.167	181.19
593.377	193.19
593.587	219.19
593.796	202.19
594.006	203.19
594.215	196.19
594.424	215.19
594.634	212.19
594.843	203.19
595.053	187.19
595.262	168.19
595.472	166.19
595.681	167.19
595.89	171.19
596.1	174.19
596.309	182.19
596.518	167.19
596.727	154.19
596.937	171.19
597.146	160.19
597.355	171.19
597.564	155.19
597.774	161.19
597.983	165.19
598.192	160.19
598.401	152.19
598.61	163.19
598.819	155.19
599.028	154.19
599.237	155.19
599.446	150.19
599.655	145.19
599.864	154.19
600.073	155.19
600.282	155.19
600.491	151.19
600.7	156.19
600.909	148.19
601.118	146.19
601.327	155.19
601.536	150.19
601.745	155.19
601.953	150.19
602.162	146.19
602.371	149.19
602.58	159.19
602.789	162.19
602.997	136.19
603.206	138.19
603.415	161.19
603.623	150.19
603.832	148.19
604.041	154.19
604.249	141.19
604.458	150.19
604.666	148.19
604.875	146.19
605.084	156.19
605.292	147.19
605.501	158.19
605.709	148.19
605.918	150.19
606.126	162.19
606.334	158.19
606.543	141.19
606.751	163.19
606.96	126.19
607.168	143.19
607.376	144.19
607.585	146.19
607.793	139.19
608.001	140.19
608.21	136.19
608.418	133.19
608.626	132.19
608.834	149.19
609.043	156.19
609.251	132.19
609.459	152.19
609.667	147.19
609.875	143.19
610.083	158.19
610.291	156.19
610.499	152.19
610.707	157.19
610.916	146.19
611.124	142.19
611.332	156.19
611.54	139.19
611.748	143.19
611.955	154.19
612.163	152.19
612.371	164.19
612.579	140.19
612.787	126.19
612.995	144.19
613.203	138.19
613.411	149.19
613.618	130.19
613.826	142.19
614.034	153.19
614.242	120.19
614.449	134.19
614.657	132.19
614.865	143.19
615.072	148.19
615.28	153.19
615.488	139.19
615.695	148.19
615.903	151.19
616.111	140.19
616.318	142.19
616.526	138.19
616.733	155.19
616.941	140.19
617.148	149.19
617.356	152.19
617.563	138.19
617.771	148.19
617.978	148.19
618.185	159.19
618.393	144.19
618.6	146.19
618.807	146.19
619.015	163.19
619.222	142.19
619.429	143.19
619.637	147.19
619.844	141.19
620.051	144.19
620.258	144.19
620.466	133.19
620.673	142.19
620.88	142.19
621.087	138.19
621.294	123.19
621.501	141.19
621.708	134.19
621.915	147.19
622.122	149.19
622.329	135.19
622.536	148.19
622.743	151.19
622.95	158.19
623.157	136.19
623.364	134.19
623.571	133.19
623.778	122.19
623.985	136.19
624.192	126.19
624.399	130.19
624.606	147.19
624.812	133.19
625.019	132.19
625.226	133.19
625.433	126.19
625.639	123.19
625.846	124.19
626.053	137.19
626.259	124.19
626.466	129.19
626.673	134.19
626.879	123.19
627.086	133.19
627.293	124.19
627.499	149.19
627.706	135.19
627.912	136.19
628.119	123.19
628.325	126.19
628.532	128.19
628.738	127.19
628.945	114.19
629.151	134.19
629.357	126.19
629.564	136.19
629.77	122.19
629.976	132.19
630.183	139.19
630.389	120.19
630.595	124.19
630.802	122.19
631.008	145.19
631.214	134.19
631.42	142.19
631.627	128.19
631.833	139.19
632.039	137.19
632.245	121.19
632.451	133.19
632.657	132.19
632.863	120.19
633.069	114.19
633.275	130.19
633.481	119.19
633.688	121.19
633.893	127.19
634.099	118.19
634.305	115.19
634.511	123.19
634.717	120.19
634.923	120.19
635.129	133.19
635.335	127.19
635.541	115.19
635.747	120.19
635.952	126.19
636.158	118.19
636.364	128.19
636.57	128.19
636.775	123.19
636.981	126.19
637.187	131.19
637.392	124.19
637.598	120.19
637.804	134.19
638.009	117.19
638.215	119.19
638.421	138.19
638.626	116.19
638.832	103.19
639.037	118.19
639.243	118.19
639.448	114.19
639.654	126.19
639.859	120.19
640.065	115.19
640.27	121.19
640.475	119.19
640.681	112.19
640.886	123.19
641.091	116.19
641.297	121.19
641.502	116.19
641.707	122.19
641.913	124.19
642.118	111.19
642.323	114.19
642.528	132.19
642.733	129.19
642.939	125.19
643.144	118.19
643.349	135.19
643.554	119.19
643.759	126.19
643.964	114.19
644.169	124.19
644.374	114.19
644.579	126.19
644.784	109.19
644.989	103.19
645.194	107.19
645.399	119.19
645.604	106.19
645.809	109.19
646.014	101.19
646.219	118.19
646.423	126.19
646.628	120.19
646.833	127.19
647.038	120.19
647.243	124.19
647.447	126.19
647.652	113.19
647.857	119.19
648.062	119.19
648.266	121.19
648.471	136.19
648.676	122.19
648.88	115.19
649.085	119.19
649.289	123.19
649.494	123.19
649.698	122.19
649.903	120.19
650.107	113.19
650.312	106.19
650.516	105.19
650.721	117.19
650.925	124.19
651.13	104.19
651.334	115.19
651.539	112.19
651.743	108.19
651.947	112.19
652.152	104.19
652.356	116.19
652.56	106.19
652.764	96.19
652.969	108.19
653.173	128.19
653.377	130.19
653.581	99.19
653.785	100.19
653.99	110.19
654.194	108.19
654.398	113.19
654.602	100.19
654.806	97.19
655.01	109.19
655.214	108.19
655.418	112.19
655.622	107.19
655.826	114.19
656.03	115.19
656.234	109.19
656.438	104.19
656.642	108.19
656.846	112.19
657.049	107.19
657.253	119.19
657.457	104.19
657.661	105.19
657.865	80.19
658.068	101.19
658.272	81.19
658.476	82.19
658.68	85.19
658.883	104.19
659.087	94.19
659.291	96.19
659.494	88.19
659.698	87.19
659.901	89.19
660.105	90.19
660.309	87.19
660.512	98.19
660.716	88.19
660.919	87.19
661.123	96.19
661.326	93.19
661.53	90.19
661.733	86.19
661.936	78.19
662.14	92.19
662.343	85.19
662.546	89.19
662.75	85.19
662.953	83.19
663.156	71.19
663.36	93.19
663.563	89.19
663.766	82.19
663.969	72.19
664.173	94.19
664.376	75.19
664.579	91.19
664.782	89.19
664.985	88.19
665.188	70.19
665.391	82.19
665.594	81.19
665.797	84.19
666	94.19
666.203	76.19
666.406	81.19
666.609	80.19
666.812	89.19
667.015	89.19
667.218	89.19
667.421	77.19
667.624	82.19
667.827	88.19
668.03	79.19
668.232	88.19
668.435	87.19
668.638	107.19
668.841	84.19
669.043	77.19
669.246	80.19
669.449	78.19
669.651	82.19
669.854	77.19
670.057	76.19
670.259	75.19
670.462	79.19
670.665	76.19
670.867	80.19
671.07	96.19
671.272	93.19
671.475	82.19
671.677	82.19
671.88	88.19
672.082	81.19
672.284	85.19
672.487	77.19
672.689	76.19
672.892	82.19
