Data from 0.5MCu(NO3)2.Standard.Lamp.E10.CV._HRD10591_16-05-58-754.txt Node
Date: Mon Jul 22 16:05:58 EDT 2019
User: cochatt
Spectrometer: HR+D1059
Trigger mode: 1
Integration Time (sec): 1.000000E-1
Scans to average: 1
Electric dark correction enabled: true
Nonlinearity correction enabled: false
Boxcar width: 0
XAxis mode: Wavelengths
Number of Pixels in Spectrum: 2048
>>>>>Begin Spectral Data<<<<<
223.165	-17
223.4	-17
223.635	-17
223.869	-25
224.104	-11
224.338	-19
224.573	-23
224.808	-1
225.042	-1
225.277	-20
225.511	10
225.746	5
225.98	1
226.215	1
226.449	25
226.683	30
226.918	18
227.152	27
227.387	31
227.621	30
227.856	31
228.09	33
228.324	43
228.559	50
228.793	46
229.027	54
229.262	72
229.496	78
229.73	75
229.964	85
230.199	73
230.433	86
230.667	76
230.901	62
231.136	73
231.37	71
231.604	83
231.838	84
232.072	67
232.306	83
232.541	83
232.775	87
233.009	93
233.243	83
233.477	85
233.711	96
233.945	82
234.179	77
234.413	104
234.647	94
234.881	86
235.115	84
235.349	85
235.583	91
235.817	87
236.051	97
236.285	85
236.519	83
236.753	75
236.987	74
237.221	84
237.455	95
237.689	88
237.922	89
238.156	96
238.39	97
238.624	80
238.858	75
239.091	92
239.325	87
239.559	86
239.793	86
240.027	91
240.26	88
240.494	86
240.728	86
240.961	87
241.195	81
241.429	77
241.662	87
241.896	97
242.13	84
242.363	88
242.597	79
242.83	90
243.064	80
243.298	85
243.531	78
243.765	92
243.998	84
244.232	80
244.465	102
244.699	103
244.932	90
245.166	106
245.399	102
245.633	91
245.866	84
246.099	94
246.333	103
246.566	89
246.8	90
247.033	89
247.266	95
247.5	113
247.733	104
247.966	106
248.2	112
248.433	94
248.666	115
248.899	113
249.133	105
249.366	108
249.599	111
249.832	97
250.066	105
250.299	99
250.532	96
250.765	110
250.998	111
251.231	109
251.465	114
251.698	94
251.931	118
252.164	91
252.397	94
252.63	101
252.863	112
253.096	99
253.329	111
253.562	110
253.795	107
254.028	106
254.261	114
254.494	102
254.727	105
254.96	98
255.193	111
255.426	101
255.659	122
255.892	102
256.124	98
256.357	118
256.59	128
256.823	118
257.056	102
257.289	96
257.521	94
257.754	104
257.987	120
258.22	108
258.452	110
258.685	102
258.918	114
259.151	120
259.383	123
259.616	103
259.849	113
260.081	118
260.314	103
260.547	114
260.779	118
261.012	130
261.244	114
261.477	124
261.71	106
261.942	111
262.175	112
262.407	114
262.64	110
262.872	102
263.105	110
263.337	110
263.57	111
263.802	101
264.035	109
264.267	115
264.499	119
264.732	131
264.964	122
265.197	122
265.429	114
265.661	135
265.894	120
266.126	131
266.358	127
266.591	111
266.823	111
267.055	126
267.287	126
267.52	123
267.752	130
267.984	117
268.216	135
268.448	125
268.681	123
268.913	134
269.145	125
269.377	120
269.609	134
269.841	143
270.073	124
270.306	141
270.538	135
270.77	124
271.002	141
271.234	111
271.466	144
271.698	123
271.93	111
272.162	126
272.394	126
272.626	128
272.858	125
273.09	127
273.322	133
273.553	126
273.785	128
274.017	139
274.249	119
274.481	130
274.713	135
274.945	150
275.176	124
275.408	136
275.64	143
275.872	140
276.104	148
276.335	151
276.567	136
276.799	129
277.031	131
277.262	138
277.494	140
277.726	135
277.957	123
278.189	142
278.421	128
278.652	139
278.884	144
279.115	143
279.347	134
279.579	147
279.81	141
280.042	156
280.273	138
280.505	143
280.736	138
280.968	138
281.199	139
281.431	137
281.662	148
281.894	159
282.125	133
282.356	144
282.588	154
282.819	162
283.051	127
283.282	149
283.513	158
283.745	142
283.976	144
284.207	149
284.439	140
284.67	143
284.901	140
285.132	163
285.364	157
285.595	134
285.826	147
286.057	159
286.288	128
286.52	168
286.751	131
286.982	162
287.213	155
287.444	157
287.675	160
287.906	152
288.138	162
288.369	176
288.6	155
288.831	169
289.062	164
289.293	156
289.524	154
289.755	163
289.986	162
290.217	155
290.448	146
290.679	154
290.91	159
291.141	154
291.371	174
291.602	164
291.833	155
292.064	162
292.295	158
292.526	162
292.757	156
292.987	163
293.218	155
293.449	166
293.68	175
293.91	167
294.141	142
294.372	168
294.603	150
294.833	146
295.064	167
295.295	159
295.525	166
295.756	168
295.987	165
296.217	170
296.448	174
296.679	159
296.909	168
297.14	178
297.37	168
297.601	158
297.831	165
298.062	176
298.292	188
298.523	175
298.753	154
298.984	173
299.214	174
299.445	170
299.675	175
299.905	162
300.136	162
300.366	177
300.597	166
300.827	158
301.057	182
301.288	180
301.518	187
301.748	180
301.979	176
302.209	188
302.439	191
302.669	189
302.9	174
303.13	185
303.36	160
303.59	160
303.82	184
304.051	192
304.281	182
304.511	174
304.741	164
304.971	182
305.201	193
305.431	181
305.661	180
305.891	167
306.121	184
306.352	184
306.582	176
306.812	184
307.042	170
307.272	159
307.502	195
307.731	178
307.961	170
308.191	181
308.421	181
308.651	174
308.881	169
309.111	172
309.341	179
309.571	162
309.8	167
310.03	170
310.26	176
310.49	174
310.72	159
310.949	169
311.179	155
311.409	174
311.639	175
311.868	178
312.098	178
312.328	170
312.557	187
312.787	172
313.017	181
313.246	180
313.476	187
313.706	182
313.935	187
314.165	181
314.394	186
314.624	180
314.853	177
315.083	191
315.312	188
315.542	165
315.771	166
316.001	183
316.23	163
316.46	192
316.689	176
316.919	177
317.148	194
317.377	172
317.607	178
317.836	180
318.065	179
318.295	164
318.524	165
318.753	176
318.983	174
319.212	180
319.441	176
319.67	175
319.9	192
320.129	177
320.358	178
320.587	175
320.816	178
321.046	179
321.275	179
321.504	169
321.733	165
321.962	182
322.191	171
322.42	187
322.649	188
322.878	195
323.108	197
323.337	185
323.566	187
323.795	171
324.024	192
324.253	174
324.482	172
324.71	180
324.939	190
325.168	175
325.397	178
325.626	190
325.855	170
326.084	171
326.313	188
326.542	190
326.77	194
326.999	200
327.228	185
327.457	190
327.686	179
327.914	196
328.143	193
328.372	173
328.6	183
328.829	188
329.058	189
329.287	199
329.515	179
329.744	204
329.972	177
330.201	217
330.43	191
330.658	201
330.887	202
331.115	201
331.344	201
331.572	194
331.801	201
332.03	215
332.258	215
332.486	210
332.715	211
332.943	232
333.172	234
333.4	238
333.629	227
333.857	238
334.085	222
334.314	222
334.542	228
334.771	218
334.999	217
335.227	226
335.455	225
335.684	225
335.912	232
336.14	221
336.369	208
336.597	216
336.825	231
337.053	215
337.281	206
337.51	218
337.738	210
337.966	187
338.194	219
338.422	194
338.65	188
338.878	204
339.106	191
339.334	197
339.562	209
339.79	189
340.018	194
340.246	193
340.474	189
340.702	191
340.93	186
341.158	200
341.386	195
341.614	192
341.842	186
342.07	204
342.298	202
342.526	183
342.754	172
342.981	202
343.209	186
343.437	218
343.665	219
343.893	222
344.12	241
344.348	222
344.576	210
344.804	211
345.031	211
345.259	214
345.487	186
345.714	195
345.942	186
346.17	195
346.397	190
346.625	189
346.853	171
347.08	178
347.308	205
347.535	208
347.763	186
347.99	190
348.218	196
348.445	203
348.673	197
348.9	190
349.128	196
349.355	200
349.583	196
349.81	175
350.037	182
350.265	170
350.492	170
350.72	190
350.947	178
351.174	191
351.402	192
351.629	203
351.856	170
352.083	163
352.311	196
352.538	191
352.765	191
352.992	193
353.22	175
353.447	174
353.674	178
353.901	199
354.128	158
354.355	168
354.583	190
354.81	195
355.037	194
355.264	176
355.491	186
355.718	182
355.945	202
356.172	179
356.399	184
356.626	192
356.853	196
357.08	187
357.307	184
357.534	180
357.761	179
357.988	181
358.215	198
358.441	180
358.668	187
358.895	188
359.122	185
359.349	190
359.576	172
359.802	178
360.029	174
360.256	183
360.483	201
360.709	180
360.936	190
361.163	180
361.39	187
361.616	184
361.843	179
362.07	203
362.296	177
362.523	190
362.749	188
362.976	195
363.203	170
363.429	195
363.656	176
363.882	185
364.109	180
364.335	198
364.562	176
364.788	190
365.015	170
365.241	171
365.468	185
365.694	188
365.92	177
366.147	181
366.373	155
366.599	187
366.826	188
367.052	189
367.278	185
367.505	186
367.731	187
367.957	189
368.184	200
368.41	187
368.636	195
368.862	183
369.089	185
369.315	186
369.541	190
369.767	190
369.993	198
370.219	211
370.445	198
370.672	199
370.898	180
371.124	199
371.35	198
371.576	204
371.802	192
372.028	204
372.254	190
372.48	187
372.706	214
372.932	201
373.158	182
373.384	200
373.61	210
373.835	192
374.061	198
374.287	187
374.513	201
374.739	213
374.965	206
375.191	203
375.416	241
375.642	217
375.868	206
376.094	195
376.319	196
376.545	183
376.771	199
376.997	193
377.222	175
377.448	191
377.674	190
377.899	184
378.125	177
378.35	187
378.576	198
378.802	199
379.027	195
379.253	182
379.478	165
379.704	202
379.929	209
380.155	194
380.38	170
380.606	182
380.831	198
381.057	194
381.282	198
381.507	186
381.733	188
381.958	196
382.184	194
382.409	199
382.634	199
382.86	209
383.085	207
383.31	214
383.535	226
383.761	226
383.986	202
384.211	219
384.436	207
384.662	228
384.887	226
385.112	215
385.337	207
385.562	241
385.787	215
386.013	236
386.238	224
386.463	233
386.688	203
386.913	206
387.138	219
387.363	225
387.588	208
387.813	216
388.038	215
388.263	211
388.488	213
388.713	213
388.938	197
389.163	220
389.387	201
389.612	212
389.837	213
390.062	206
390.287	211
390.512	220
390.736	225
390.961	195
391.186	213
391.411	229
391.636	250
391.86	234
392.085	242
392.31	226
392.534	225
392.759	243
392.984	234
393.208	226
393.433	234
393.658	221
393.882	241
394.107	242
394.331	234
394.556	229
394.78	246
395.005	230
395.229	244
395.454	239
395.678	242
395.903	246
396.127	240
396.352	225
396.576	225
396.801	219
397.025	221
397.249	217
397.474	243
397.698	215
397.922	218
398.147	220
398.371	247
398.595	238
398.82	235
399.044	269
399.268	276
399.492	326
399.717	367
399.941	374
400.165	319
400.389	277
400.613	279
400.837	247
401.062	260
401.286	245
401.51	266
401.734	246
401.958	263
402.182	267
402.406	285
402.63	291
402.854	267
403.078	266
403.302	272
403.526	294
403.75	315
403.974	286
404.198	282
404.422	290
404.645	297
404.869	291
405.093	282
405.317	294
405.541	290
405.765	284
405.988	266
406.212	272
406.436	288
406.66	288
406.883	292
407.107	291
407.331	318
407.555	331
407.778	328
408.002	309
408.226	291
408.449	288
408.673	305
408.896	306
409.12	286
409.344	287
409.567	292
409.791	295
410.014	302
410.238	286
410.461	272
410.685	291
410.908	286
411.132	279
411.355	271
411.578	276
411.802	274
412.025	261
412.249	283
412.472	262
412.695	256
412.919	266
413.142	251
413.365	250
413.589	262
413.812	260
414.035	237
414.258	260
414.482	264
414.705	269
414.928	288
415.151	265
415.374	258
415.597	252
415.821	253
416.044	264
416.267	248
416.49	257
416.713	257
416.936	271
417.159	252
417.382	253
417.605	243
417.828	265
418.051	251
418.274	268
418.497	259
418.72	249
418.943	264
419.166	291
419.389	298
419.611	286
419.834	267
420.057	268
420.28	262
420.503	267
420.726	238
420.948	258
421.171	253
421.394	270
421.617	254
421.839	262
422.062	248
422.285	254
422.507	273
422.73	251
422.953	265
423.175	262
423.398	266
423.621	262
423.843	280
424.066	273
424.288	272
424.511	268
424.733	278
424.956	265
425.178	269
425.401	256
425.623	264
425.846	256
426.068	226
426.291	238
426.513	252
426.735	248
426.958	233
427.18	224
427.402	238
427.625	227
427.847	235
428.069	232
428.292	240
428.514	252
428.736	216
428.958	234
429.181	241
429.403	219
429.625	226
429.847	240
430.069	235
430.292	240
430.514	219
430.736	228
430.958	218
431.18	231
431.402	235
431.624	252
431.846	238
432.068	234
432.29	225
432.512	243
432.734	216
432.956	211
433.178	234
433.4	246
433.622	237
433.844	204
434.066	219
434.287	232
434.509	238
434.731	248
434.953	267
435.175	275
435.397	262
435.618	229
435.84	241
436.062	247
436.284	225
436.505	241
436.727	228
436.949	226
437.17	252
437.392	242
437.614	224
437.835	233
438.057	220
438.278	216
438.5	243
438.721	242
438.943	227
439.165	225
439.386	227
439.608	237
439.829	225
440.05	230
440.272	243
440.493	260
440.715	240
440.936	240
441.158	240
441.379	238
441.6	252
441.822	261
442.043	272
442.264	259
442.486	248
442.707	258
442.928	261
443.149	232
443.371	245
443.592	247
443.813	251
444.034	259
444.255	272
444.476	286
444.698	289
444.919	296
445.14	367
445.361	316
445.582	270
445.803	264
446.024	237
446.245	248
446.466	245
446.687	233
446.908	254
447.129	232
447.35	236
447.571	217
447.792	237
448.013	212
448.234	225
448.455	221
448.675	224
448.896	213
449.117	202
449.338	202
449.559	209
449.779	203
450	211
450.221	213
450.442	204
450.662	212
450.883	231
451.104	223
451.324	214
451.545	212
451.766	227
451.986	218
452.207	231
452.428	242
452.648	212
452.869	218
453.089	213
453.31	204
453.53	203
453.751	219
453.971	212
454.192	236
454.412	213
454.633	218
454.853	215
455.073	225
455.294	218
455.514	226
455.734	207
455.955	206
456.175	208
456.395	201
456.616	205
456.836	203
457.056	200
457.276	192
457.497	222
457.717	207
457.937	209
458.157	215
458.377	201
458.598	196
458.818	218
459.038	212
459.258	229
459.478	222
459.698	228
459.918	243
460.138	260
460.358	266
460.578	264
460.798	268
461.018	262
461.238	279
461.458	267
461.678	287
461.898	268
462.118	267
462.338	277
462.558	291
462.777	301
462.997	318
463.217	346
463.437	355
463.657	310
463.876	314
464.096	288
464.316	322
464.536	306
464.755	300
464.975	288
465.195	302
465.414	288
465.634	259
465.854	258
466.073	259
466.293	247
466.512	258
466.732	219
466.951	232
467.171	232
467.391	226
467.61	228
467.829	235
468.049	203
468.268	224
468.488	212
468.707	224
468.927	214
469.146	229
469.365	226
469.585	222
469.804	227
470.023	247
470.243	254
470.462	243
470.681	244
470.901	249
471.12	246
471.339	227
471.558	231
471.777	243
471.997	217
472.216	230
472.435	232
472.654	212
472.873	225
473.092	207
473.311	220
473.53	220
473.749	232
473.968	217
474.187	231
474.406	218
474.625	212
474.844	207
475.063	226
475.282	227
475.501	227
475.72	230
475.939	227
476.158	215
476.377	217
476.596	215
476.814	216
477.033	219
477.252	242
477.471	236
477.69	249
477.908	252
478.127	235
478.346	255
478.564	253
478.783	271
479.002	264
479.22	261
479.439	250
479.658	238
479.876	271
480.095	274
480.313	282
480.532	293
480.751	267
480.969	282
481.188	262
481.406	265
481.624	256
481.843	229
482.061	248
482.28	251
482.498	253
482.717	255
482.935	246
483.153	265
483.372	252
483.59	232
483.808	242
484.027	255
484.245	251
484.463	250
484.681	260
484.9	275
485.118	254
485.336	264
485.554	267
485.772	277
485.99	273
486.209	258
486.427	270
486.645	262
486.863	278
487.081	272
487.299	268
487.517	270
487.735	273
487.953	271
488.171	258
488.389	262
488.607	259
488.825	259
489.043	259
489.261	250
489.479	269
489.696	260
489.914	250
490.132	250
490.35	258
490.568	247
490.786	274
491.003	263
491.221	265
491.439	265
491.657	274
491.874	279
492.092	283
492.31	261
492.527	274
492.745	278
492.963	251
493.18	270
493.398	283
493.615	271
493.833	261
494.05	277
494.268	266
494.485	277
494.703	287
494.92	280
495.138	250
495.355	261
495.573	280
495.79	284
496.008	264
496.225	274
496.442	285
496.66	307
496.877	278
497.094	302
497.312	311
497.529	294
497.746	307
497.963	308
498.181	309
498.398	337
498.615	352
498.832	369
499.049	390
499.267	421
499.484	450
499.701	502
499.918	536
500.135	612
500.352	699
500.569	749
500.786	749
501.003	693
501.22	641
501.437	537
501.654	470
501.871	437
502.088	404
502.305	370
502.522	358
502.739	350
502.956	339
503.172	313
503.389	312
503.606	303
503.823	299
504.04	295
504.256	307
504.473	320
504.69	343
504.907	336
505.123	308
505.34	294
505.557	274
505.773	243
505.99	259
506.207	242
506.423	260
506.64	261
506.856	243
507.073	265
507.289	252
507.506	253
507.722	253
507.939	268
508.155	267
508.372	247
508.588	255
508.805	236
509.021	247
509.238	243
509.454	218
509.67	219
509.887	228
510.103	238
510.319	231
510.536	219
510.752	231
510.968	245
511.184	241
511.401	235
511.617	231
511.833	232
512.049	220
512.265	251
512.481	238
512.698	241
512.914	223
513.13	231
513.346	210
513.562	223
513.778	232
513.994	240
514.21	241
514.426	231
514.642	221
514.858	234
515.074	238
515.29	258
515.506	241
515.721	236
515.937	243
516.153	233
516.369	252
516.585	271
516.801	266
517.016	283
517.232	274
517.448	296
517.664	318
517.879	302
518.095	307
518.311	335
518.527	292
518.742	288
518.958	282
519.173	266
519.389	244
519.605	259
519.82	260
520.036	258
520.251	228
520.467	232
520.682	229
520.898	241
521.113	231
521.329	227
521.544	233
521.76	238
521.975	239
522.19	228
522.406	219
522.621	215
522.836	226
523.052	232
523.267	224
523.482	224
523.698	223
523.913	214
524.128	221
524.343	222
524.559	219
524.774	210
524.989	219
525.204	205
525.419	227
525.634	212
525.849	223
526.064	222
526.28	216
526.495	222
526.71	231
526.925	227
527.14	207
527.355	226
527.57	233
527.785	213
527.999	214
528.214	228
528.429	223
528.644	229
528.859	219
529.074	216
529.289	216
529.503	231
529.718	221
529.933	221
530.148	230
530.363	214
530.577	233
530.792	207
531.007	211
531.221	236
531.436	211
531.651	224
531.865	220
532.08	235
532.295	225
532.509	240
532.724	224
532.938	223
533.153	213
533.367	232
533.582	229
533.796	219
534.011	223
534.225	218
534.44	225
534.654	218
534.868	222
535.083	209
535.297	228
535.511	227
535.726	215
535.94	231
536.154	227
536.369	215
536.583	203
536.797	205
537.011	185
537.225	206
537.44	214
537.654	202
537.868	221
538.082	208
538.296	217
538.51	198
538.724	204
538.938	208
539.153	211
539.367	223
539.581	219
539.795	200
540.009	217
540.222	224
540.436	205
540.65	199
540.864	217
541.078	202
541.292	208
541.506	217
541.72	199
541.934	220
542.147	198
542.361	203
542.575	207
542.789	216
543.002	208
543.216	216
543.43	202
543.644	206
543.857	201
544.071	224
544.285	218
544.498	218
544.712	205
544.925	217
545.139	212
545.352	215
545.566	214
545.779	202
545.993	227
546.206	219
546.42	225
546.633	215
546.847	214
547.06	204
547.274	213
547.487	227
547.7	226
547.914	222
548.127	226
548.34	199
548.554	218
548.767	234
548.98	254
549.193	226
549.407	220
549.62	218
549.833	214
550.046	201
550.259	213
550.473	207
550.686	201
550.899	211
551.112	223
551.325	209
551.538	195
551.751	199
551.964	213
552.177	213
552.39	200
552.603	220
552.816	223
553.029	224
553.242	241
553.455	238
553.667	244
553.88	232
554.093	216
554.306	231
554.519	220
554.732	234
554.944	218
555.157	216
555.37	210
555.583	200
555.795	212
556.008	194
556.221	200
556.433	210
556.646	209
556.859	199
557.071	210
557.284	197
557.496	191
557.709	203
557.921	209
558.134	191
558.346	205
558.559	200
558.771	199
558.984	186
559.196	195
559.409	207
559.621	200
559.833	182
560.046	199
560.258	186
560.47	203
560.683	202
560.895	198
561.107	183
561.32	186
561.532	209
561.744	181
561.956	210
562.168	192
562.381	185
562.593	198
562.805	199
563.017	197
563.229	194
563.441	198
563.653	187
563.865	206
564.077	195
564.289	190
564.501	194
564.713	192
564.925	211
565.137	214
565.349	212
565.561	212
565.773	229
565.985	227
566.197	238
566.408	246
566.62	268
566.832	278
567.044	272
567.255	290
567.467	298
567.679	286
567.891	345
568.102	344
568.314	325
568.526	298
568.737	273
568.949	241
569.161	238
569.372	220
569.584	220
569.795	220
570.007	205
570.218	201
570.43	195
570.641	194
570.853	208
571.064	207
571.276	204
571.487	188
571.698	210
571.91	195
572.121	198
572.333	174
572.544	192
572.755	188
572.966	177
573.178	167
573.389	187
573.6	179
573.811	170
574.023	164
574.234	168
574.445	168
574.656	161
574.867	162
575.078	165
575.289	158
575.501	185
575.712	171
575.923	168
576.134	167
576.345	163
576.556	188
576.767	186
576.978	162
577.188	168
577.399	179
577.61	150
577.821	157
578.032	161
578.243	160
578.454	159
578.665	159
578.875	163
579.086	154
579.297	171
579.508	163
579.718	154
579.929	160
580.14	167
580.35	158
580.561	155
580.772	169
580.982	161
581.193	150
581.403	159
581.614	167
581.825	154
582.035	156
582.246	179
582.456	154
582.667	155
582.877	163
583.087	150
583.298	171
583.508	168
583.719	153
583.929	164
584.139	167
584.35	170
584.56	145
584.77	159
584.981	170
585.191	148
585.401	154
585.611	156
585.821	152
586.032	155
586.242	170
586.452	170
586.662	146
586.872	155
587.082	161
587.292	149
587.502	142
587.713	171
587.923	174
588.133	162
588.343	158
588.553	151
588.762	161
588.972	148
589.182	153
589.392	160
589.602	148
589.812	148
590.022	163
590.232	140
590.441	145
590.651	148
590.861	155
591.071	150
591.281	153
591.49	168
591.7	158
591.91	169
592.119	158
592.329	164
592.539	163
592.748	176
592.958	177
593.167	187
593.377	161
593.587	198
593.796	186
594.006	198
594.215	187
594.424	185
594.634	191
594.843	187
595.053	165
595.262	176
595.472	160
595.681	175
595.89	162
596.1	178
596.309	164
596.518	146
596.727	155
596.937	153
597.146	171
597.355	137
597.564	156
597.774	144
597.983	150
598.192	154
598.401	138
598.61	126
598.819	145
599.028	149
599.237	154
599.446	161
599.655	144
599.864	148
600.073	143
600.282	141
600.491	151
600.7	148
600.909	148
601.118	152
601.327	143
601.536	147
601.745	142
601.953	136
602.162	130
602.371	140
602.58	142
602.789	140
602.997	135
603.206	144
603.415	144
603.623	126
603.832	148
604.041	126
604.249	122
604.458	146
604.666	143
604.875	137
605.084	151
605.292	140
605.501	144
605.709	144
605.918	127
606.126	138
606.334	142
606.543	129
606.751	140
606.96	127
607.168	124
607.376	132
607.585	139
607.793	130
608.001	130
608.21	142
608.418	141
608.626	134
608.834	128
609.043	116
609.251	125
609.459	140
609.667	141
609.875	139
610.083	141
610.291	148
610.499	149
610.707	119
610.916	129
611.124	141
611.332	138
611.54	128
611.748	144
611.955	135
612.163	138
612.371	141
612.579	136
612.787	141
612.995	135
613.203	147
613.411	131
613.618	131
613.826	130
614.034	131
614.242	125
614.449	138
614.657	128
614.865	140
615.072	132
615.28	133
615.488	135
615.695	141
615.903	144
616.111	130
616.318	131
616.526	127
616.733	146
616.941	141
617.148	131
617.356	122
617.563	142
617.771	134
617.978	136
618.185	118
618.393	139
618.6	129
618.807	133
619.015	130
619.222	133
619.429	135
619.637	137
619.844	125
620.051	136
620.258	122
620.466	118
620.673	129
620.88	130
621.087	129
621.294	139
621.501	133
621.708	136
621.915	128
622.122	125
622.329	135
622.536	127
622.743	131
622.95	134
623.157	130
623.364	143
623.571	135
623.778	123
623.985	122
624.192	127
624.399	130
624.606	130
624.812	118
625.019	126
625.226	125
625.433	120
625.639	116
625.846	121
626.053	123
626.259	127
626.466	137
626.673	125
626.879	120
627.086	129
627.293	124
627.499	123
627.706	126
627.912	116
628.119	140
628.325	124
628.532	124
628.738	124
628.945	114
629.151	120
629.357	128
629.564	125
629.77	124
629.976	124
630.183	100
630.389	114
630.595	110
630.802	123
631.008	113
631.214	128
631.42	113
631.627	109
631.833	117
632.039	109
632.245	103
632.451	116
632.657	112
632.863	131
633.069	121
633.275	109
633.481	101
633.688	118
633.893	119
634.099	126
634.305	119
634.511	111
634.717	112
634.923	121
635.129	113
635.335	124
635.541	126
635.747	134
635.952	111
636.158	119
636.364	118
636.57	114
636.775	126
636.981	128
637.187	112
637.392	115
637.598	108
637.804	138
638.009	125
638.215	117
638.421	106
638.626	124
638.832	122
639.037	126
639.243	114
639.448	101
639.654	120
639.859	124
640.065	126
640.27	113
640.475	122
640.681	106
640.886	107
641.091	107
641.297	104
641.502	105
641.707	114
641.913	105
642.118	102
642.323	118
642.528	113
642.733	99
642.939	107
643.144	117
643.349	113
643.554	100
643.759	100
643.964	105
644.169	137
644.374	110
644.579	114
644.784	120
644.989	108
645.194	110
645.399	114
645.604	119
645.809	120
646.014	114
646.219	106
646.423	111
646.628	108
646.833	112
647.038	118
647.243	102
647.447	114
647.652	114
647.857	124
648.062	122
648.266	112
648.471	113
648.676	114
648.88	102
649.085	122
649.289	98
649.494	111
649.698	107
649.903	118
650.107	124
650.312	112
650.516	112
650.721	111
650.925	103
651.13	117
651.334	90
651.539	110
651.743	101
651.947	107
652.152	102
652.356	101
652.56	96
652.764	102
652.969	119
653.173	101
653.377	101
653.581	105
653.785	103
653.99	102
654.194	122
654.398	98
654.602	93
654.806	90
655.01	106
655.214	96
655.418	105
655.622	105
655.826	102
656.03	90
656.234	89
656.438	112
656.642	106
656.846	98
657.049	94
657.253	89
657.457	105
657.661	97
657.865	98
658.068	92
658.272	88
658.476	85
658.68	101
658.883	93
659.087	78
659.291	88
659.494	84
659.698	99
659.901	90
660.105	88
660.309	93
660.512	87
660.716	84
660.919	81
661.123	75
661.326	84
661.53	85
661.733	87
661.936	86
662.14	79
662.343	93
662.546	75
662.75	83
662.953	89
663.156	81
663.36	76
663.563	74
663.766	72
663.969	82
664.173	90
664.376	73
664.579	87
664.782	94
664.985	76
665.188	87
665.391	85
665.594	89
665.797	100
666	84
666.203	90
666.406	76
666.609	80
666.812	78
667.015	89
667.218	73
667.421	90
667.624	78
667.827	85
668.03	69
668.232	74
668.435	75
668.638	72
668.841	91
669.043	71
669.246	74
669.449	72
669.651	86
669.854	82
670.057	78
670.259	95
670.462	83
670.665	76
670.867	87
671.07	81
671.272	76
671.475	90
671.677	83
671.88	83
672.082	80
672.284	76
672.487	81
672.689	77
672.892	76
