Data from 0.5MCu(NO3)2.Standard.Lamp.E10.CV._HRD10591_16-06-22-753.txt Node
Date: Mon Jul 22 16:06:22 EDT 2019
User: cochatt
Spectrometer: HR+D1059
Trigger mode: 1
Integration Time (sec): 1.000000E-1
Scans to average: 1
Electric dark correction enabled: true
Nonlinearity correction enabled: false
Boxcar width: 0
XAxis mode: Wavelengths
Number of Pixels in Spectrum: 2048
>>>>>Begin Spectral Data<<<<<
223.165	-10.81
223.4	-10.81
223.635	-10.81
223.869	-18.81
224.104	-9.81
224.338	-15.81
224.573	-16.81
224.808	-3.81
225.042	-13.81
225.277	-13.81
225.511	6.19
225.746	8.19
225.98	3.19
226.215	10.19
226.449	8.19
226.683	13.19
226.918	26.19
227.152	28.19
227.387	50.19
227.621	36.19
227.856	46.19
228.09	51.19
228.324	51.19
228.559	57.19
228.793	59.19
229.027	67.19
229.262	67.19
229.496	85.19
229.73	74.19
229.964	78.19
230.199	82.19
230.433	73.19
230.667	81.19
230.901	83.19
231.136	63.19
231.37	90.19
231.604	101.19
231.838	95.19
232.072	96.19
232.306	101.19
232.541	97.19
232.775	92.19
233.009	94.19
233.243	103.19
233.477	94.19
233.711	101.19
233.945	92.19
234.179	84.19
234.413	97.19
234.647	114.19
234.881	95.19
235.115	83.19
235.349	91.19
235.583	89.19
235.817	96.19
236.051	91.19
236.285	83.19
236.519	97.19
236.753	111.19
236.987	108.19
237.221	88.19
237.455	82.19
237.689	95.19
237.922	99.19
238.156	94.19
238.39	98.19
238.624	96.19
238.858	98.19
239.091	103.19
239.325	84.19
239.559	87.19
239.793	93.19
240.027	108.19
240.26	86.19
240.494	104.19
240.728	100.19
240.961	90.19
241.195	99.19
241.429	90.19
241.662	92.19
241.896	92.19
242.13	84.19
242.363	99.19
242.597	76.19
242.83	96.19
243.064	96.19
243.298	96.19
243.531	97.19
243.765	103.19
243.998	94.19
244.232	100.19
244.465	98.19
244.699	107.19
244.932	96.19
245.166	102.19
245.399	118.19
245.633	88.19
245.866	105.19
246.099	109.19
246.333	100.19
246.566	103.19
246.8	113.19
247.033	100.19
247.266	109.19
247.5	112.19
247.733	109.19
247.966	105.19
248.2	109.19
248.433	110.19
248.666	107.19
248.899	105.19
249.133	104.19
249.366	106.19
249.599	112.19
249.832	120.19
250.066	114.19
250.299	108.19
250.532	117.19
250.765	123.19
250.998	121.19
251.231	116.19
251.465	122.19
251.698	126.19
251.931	124.19
252.164	124.19
252.397	109.19
252.63	126.19
252.863	131.19
253.096	118.19
253.329	118.19
253.562	111.19
253.795	108.19
254.028	124.19
254.261	113.19
254.494	122.19
254.727	113.19
254.96	122.19
255.193	134.19
255.426	120.19
255.659	118.19
255.892	126.19
256.124	100.19
256.357	110.19
256.59	136.19
256.823	116.19
257.056	128.19
257.289	113.19
257.521	114.19
257.754	116.19
257.987	107.19
258.22	113.19
258.452	124.19
258.685	126.19
258.918	128.19
259.151	117.19
259.383	123.19
259.616	112.19
259.849	128.19
260.081	130.19
260.314	132.19
260.547	110.19
260.779	125.19
261.012	124.19
261.244	129.19
261.477	120.19
261.71	129.19
261.942	109.19
262.175	128.19
262.407	116.19
262.64	140.19
262.872	147.19
263.105	133.19
263.337	132.19
263.57	131.19
263.802	136.19
264.035	136.19
264.267	123.19
264.499	122.19
264.732	126.19
264.964	125.19
265.197	138.19
265.429	138.19
265.661	140.19
265.894	143.19
266.126	132.19
266.358	138.19
266.591	151.19
266.823	141.19
267.055	134.19
267.287	135.19
267.52	124.19
267.752	142.19
267.984	138.19
268.216	134.19
268.448	146.19
268.681	149.19
268.913	138.19
269.145	155.19
269.377	153.19
269.609	152.19
269.841	148.19
270.073	146.19
270.306	149.19
270.538	147.19
270.77	130.19
271.002	146.19
271.234	148.19
271.466	160.19
271.698	147.19
271.93	139.19
272.162	154.19
272.394	154.19
272.626	143.19
272.858	153.19
273.09	150.19
273.322	149.19
273.553	140.19
273.785	138.19
274.017	141.19
274.249	154.19
274.481	148.19
274.713	153.19
274.945	147.19
275.176	161.19
275.408	148.19
275.64	148.19
275.872	148.19
276.104	141.19
276.335	152.19
276.567	146.19
276.799	161.19
277.031	154.19
277.262	162.19
277.494	163.19
277.726	145.19
277.957	159.19
278.189	153.19
278.421	158.19
278.652	161.19
278.884	174.19
279.115	164.19
279.347	169.19
279.579	159.19
279.81	159.19
280.042	148.19
280.273	158.19
280.505	165.19
280.736	167.19
280.968	170.19
281.199	164.19
281.431	164.19
281.662	162.19
281.894	158.19
282.125	155.19
282.356	160.19
282.588	172.19
282.819	181.19
283.051	162.19
283.282	171.19
283.513	176.19
283.745	164.19
283.976	180.19
284.207	176.19
284.439	166.19
284.67	178.19
284.901	163.19
285.132	186.19
285.364	173.19
285.595	171.19
285.826	160.19
286.057	177.19
286.288	162.19
286.52	178.19
286.751	154.19
286.982	168.19
287.213	193.19
287.444	180.19
287.675	174.19
287.906	186.19
288.138	178.19
288.369	180.19
288.6	190.19
288.831	173.19
289.062	192.19
289.293	178.19
289.524	194.19
289.755	189.19
289.986	177.19
290.217	169.19
290.448	180.19
290.679	162.19
290.91	191.19
291.141	184.19
291.371	173.19
291.602	190.19
291.833	182.19
292.064	173.19
292.295	189.19
292.526	193.19
292.757	183.19
292.987	193.19
293.218	190.19
293.449	173.19
293.68	194.19
293.91	187.19
294.141	191.19
294.372	189.19
294.603	189.19
294.833	199.19
295.064	184.19
295.295	198.19
295.525	194.19
295.756	192.19
295.987	196.19
296.217	180.19
296.448	196.19
296.679	179.19
296.909	199.19
297.14	201.19
297.37	202.19
297.601	187.19
297.831	177.19
298.062	191.19
298.292	201.19
298.523	206.19
298.753	202.19
298.984	200.19
299.214	201.19
299.445	203.19
299.675	194.19
299.905	197.19
300.136	200.19
300.366	201.19
300.597	216.19
300.827	208.19
301.057	210.19
301.288	201.19
301.518	196.19
301.748	229.19
301.979	224.19
302.209	205.19
302.439	209.19
302.669	208.19
302.9	201.19
303.13	197.19
303.36	200.19
303.59	213.19
303.82	196.19
304.051	205.19
304.281	200.19
304.511	206.19
304.741	212.19
304.971	197.19
305.201	194.19
305.431	217.19
305.661	196.19
305.891	198.19
306.121	198.19
306.352	200.19
306.582	201.19
306.812	199.19
307.042	196.19
307.272	204.19
307.502	204.19
307.731	204.19
307.961	199.19
308.191	187.19
308.421	192.19
308.651	194.19
308.881	176.19
309.111	180.19
309.341	198.19
309.571	184.19
309.8	204.19
310.03	197.19
310.26	205.19
310.49	200.19
310.72	194.19
310.949	190.19
311.179	186.19
311.409	208.19
311.639	203.19
311.868	206.19
312.098	192.19
312.328	203.19
312.557	204.19
312.787	198.19
313.017	205.19
313.246	212.19
313.476	224.19
313.706	223.19
313.935	216.19
314.165	211.19
314.394	197.19
314.624	235.19
314.853	212.19
315.083	217.19
315.312	218.19
315.542	208.19
315.771	210.19
316.001	210.19
316.23	201.19
316.46	197.19
316.689	210.19
316.919	221.19
317.148	216.19
317.377	214.19
317.607	209.19
317.836	204.19
318.065	214.19
318.295	200.19
318.524	216.19
318.753	197.19
318.983	202.19
319.212	204.19
319.441	206.19
319.67	215.19
319.9	206.19
320.129	203.19
320.358	218.19
320.587	206.19
320.816	191.19
321.046	207.19
321.275	209.19
321.504	212.19
321.733	214.19
321.962	218.19
322.191	219.19
322.42	207.19
322.649	202.19
322.878	207.19
323.108	205.19
323.337	221.19
323.566	225.19
323.795	208.19
324.024	226.19
324.253	219.19
324.482	210.19
324.71	219.19
324.939	214.19
325.168	215.19
325.397	219.19
325.626	215.19
325.855	221.19
326.084	224.19
326.313	215.19
326.542	229.19
326.77	237.19
326.999	224.19
327.228	216.19
327.457	212.19
327.686	211.19
327.914	224.19
328.143	234.19
328.372	229.19
328.6	224.19
328.829	215.19
329.058	212.19
329.287	226.19
329.515	229.19
329.744	235.19
329.972	225.19
330.201	211.19
330.43	229.19
330.658	240.19
330.887	220.19
331.115	233.19
331.344	228.19
331.572	221.19
331.801	236.19
332.03	222.19
332.258	259.19
332.486	249.19
332.715	253.19
332.943	253.19
333.172	271.19
333.4	299.19
333.629	274.19
333.857	298.19
334.085	296.19
334.314	271.19
334.542	278.19
334.771	254.19
334.999	277.19
335.227	258.19
335.455	270.19
335.684	247.19
335.912	262.19
336.14	246.19
336.369	266.19
336.597	250.19
336.825	252.19
337.053	247.19
337.281	260.19
337.51	240.19
337.738	229.19
337.966	230.19
338.194	228.19
338.422	215.19
338.65	243.19
338.878	252.19
339.106	237.19
339.334	240.19
339.562	250.19
339.79	230.19
340.018	225.19
340.246	214.19
340.474	225.19
340.702	234.19
340.93	260.19
341.158	234.19
341.386	230.19
341.614	227.19
341.842	216.19
342.07	231.19
342.298	221.19
342.526	230.19
342.754	224.19
342.981	224.19
343.209	225.19
343.437	239.19
343.665	233.19
343.893	256.19
344.12	278.19
344.348	275.19
344.576	251.19
344.804	235.19
345.031	235.19
345.259	222.19
345.487	232.19
345.714	235.19
345.942	232.19
346.17	228.19
346.397	215.19
346.625	220.19
346.853	209.19
347.08	214.19
347.308	217.19
347.535	220.19
347.763	226.19
347.99	235.19
348.218	224.19
348.445	243.19
348.673	214.19
348.9	217.19
349.128	243.19
349.355	228.19
349.583	212.19
349.81	223.19
350.037	236.19
350.265	203.19
350.492	223.19
350.72	214.19
350.947	202.19
351.174	224.19
351.402	203.19
351.629	206.19
351.856	212.19
352.083	215.19
352.311	212.19
352.538	225.19
352.765	209.19
352.992	227.19
353.22	237.19
353.447	228.19
353.674	224.19
353.901	214.19
354.128	206.19
354.355	212.19
354.583	221.19
354.81	228.19
355.037	213.19
355.264	226.19
355.491	188.19
355.718	221.19
355.945	230.19
356.172	222.19
356.399	234.19
356.626	221.19
356.853	218.19
357.08	210.19
357.307	228.19
357.534	197.19
357.761	226.19
357.988	215.19
358.215	219.19
358.441	222.19
358.668	225.19
358.895	218.19
359.122	204.19
359.349	222.19
359.576	216.19
359.802	220.19
360.029	221.19
360.256	215.19
360.483	212.19
360.709	219.19
360.936	209.19
361.163	230.19
361.39	209.19
361.616	208.19
361.843	225.19
362.07	220.19
362.296	211.19
362.523	210.19
362.749	228.19
362.976	213.19
363.203	216.19
363.429	226.19
363.656	202.19
363.882	226.19
364.109	193.19
364.335	228.19
364.562	201.19
364.788	210.19
365.015	203.19
365.241	225.19
365.468	222.19
365.694	204.19
365.92	190.19
366.147	197.19
366.373	230.19
366.599	210.19
366.826	208.19
367.052	218.19
367.278	206.19
367.505	219.19
367.731	217.19
367.957	209.19
368.184	213.19
368.41	213.19
368.636	233.19
368.862	230.19
369.089	211.19
369.315	214.19
369.541	210.19
369.767	231.19
369.993	226.19
370.219	217.19
370.445	233.19
370.672	229.19
370.898	230.19
371.124	234.19
371.35	228.19
371.576	221.19
371.802	220.19
372.028	219.19
372.254	238.19
372.48	228.19
372.706	225.19
372.932	249.19
373.158	229.19
373.384	229.19
373.61	226.19
373.835	235.19
374.061	228.19
374.287	242.19
374.513	226.19
374.739	243.19
374.965	233.19
375.191	264.19
375.416	256.19
375.642	235.19
375.868	233.19
376.094	233.19
376.319	251.19
376.545	226.19
376.771	232.19
376.997	233.19
377.222	241.19
377.448	240.19
377.674	219.19
377.899	229.19
378.125	213.19
378.35	232.19
378.576	208.19
378.802	228.19
379.027	222.19
379.253	220.19
379.478	220.19
379.704	233.19
379.929	244.19
380.155	216.19
380.38	234.19
380.606	232.19
380.831	217.19
381.057	212.19
381.282	225.19
381.507	222.19
381.733	222.19
381.958	228.19
382.184	235.19
382.409	216.19
382.634	235.19
382.86	225.19
383.085	228.19
383.31	253.19
383.535	244.19
383.761	251.19
383.986	229.19
384.211	253.19
384.436	262.19
384.662	260.19
384.887	282.19
385.112	260.19
385.337	269.19
385.562	269.19
385.787	260.19
386.013	281.19
386.238	260.19
386.463	262.19
386.688	258.19
386.913	256.19
387.138	266.19
387.363	266.19
387.588	254.19
387.813	259.19
388.038	246.19
388.263	278.19
388.488	258.19
388.713	267.19
388.938	249.19
389.163	257.19
389.387	257.19
389.612	253.19
389.837	233.19
390.062	234.19
390.287	252.19
390.512	246.19
390.736	252.19
390.961	246.19
391.186	247.19
391.411	268.19
391.636	264.19
391.86	274.19
392.085	276.19
392.31	265.19
392.534	268.19
392.759	262.19
392.984	267.19
393.208	267.19
393.433	262.19
393.658	279.19
393.882	264.19
394.107	280.19
394.331	283.19
394.556	261.19
394.78	285.19
395.005	275.19
395.229	258.19
395.454	288.19
395.678	293.19
395.903	289.19
396.127	280.19
396.352	259.19
396.576	275.19
396.801	271.19
397.025	274.19
397.249	269.19
397.474	263.19
397.698	277.19
397.922	281.19
398.147	268.19
398.371	274.19
398.595	289.19
398.82	293.19
399.044	336.19
399.268	344.19
399.492	392.19
399.717	456.19
399.941	436.19
400.165	402.19
400.389	355.19
400.613	342.19
400.837	314.19
401.062	324.19
401.286	301.19
401.51	304.19
401.734	299.19
401.958	332.19
402.182	309.19
402.406	322.19
402.63	333.19
402.854	334.19
403.078	350.19
403.302	355.19
403.526	366.19
403.75	346.19
403.974	365.19
404.198	368.19
404.422	362.19
404.645	358.19
404.869	384.19
405.093	355.19
405.317	308.19
405.541	356.19
405.765	328.19
405.988	327.19
406.212	330.19
406.436	330.19
406.66	327.19
406.883	343.19
407.107	365.19
407.331	364.19
407.555	374.19
407.778	386.19
408.002	371.19
408.226	347.19
408.449	345.19
408.673	347.19
408.896	341.19
409.12	321.19
409.344	335.19
409.567	335.19
409.791	343.19
410.014	352.19
410.238	341.19
410.461	354.19
410.685	342.19
410.908	334.19
411.132	318.19
411.355	323.19
411.578	333.19
411.802	302.19
412.025	316.19
412.249	311.19
412.472	319.19
412.695	323.19
412.919	321.19
413.142	307.19
413.365	295.19
413.589	297.19
413.812	305.19
414.035	301.19
414.258	328.19
414.482	322.19
414.705	285.19
414.928	309.19
415.151	330.19
415.374	293.19
415.597	314.19
415.821	304.19
416.044	312.19
416.267	291.19
416.49	305.19
416.713	268.19
416.936	306.19
417.159	300.19
417.382	287.19
417.605	309.19
417.828	288.19
418.051	301.19
418.274	317.19
418.497	307.19
418.72	319.19
418.943	323.19
419.166	344.19
419.389	333.19
419.611	328.19
419.834	316.19
420.057	332.19
420.28	295.19
420.503	293.19
420.726	293.19
420.948	292.19
421.171	294.19
421.394	317.19
421.617	294.19
421.839	296.19
422.062	298.19
422.285	297.19
422.507	309.19
422.73	308.19
422.953	318.19
423.175	325.19
423.398	315.19
423.621	324.19
423.843	328.19
424.066	327.19
424.288	315.19
424.511	316.19
424.733	330.19
424.956	306.19
425.178	322.19
425.401	308.19
425.623	278.19
425.846	283.19
426.068	283.19
426.291	288.19
426.513	276.19
426.735	281.19
426.958	276.19
427.18	270.19
427.402	261.19
427.625	286.19
427.847	289.19
428.069	269.19
428.292	291.19
428.514	277.19
428.736	271.19
428.958	267.19
429.181	280.19
429.403	281.19
429.625	288.19
429.847	278.19
430.069	275.19
430.292	275.19
430.514	260.19
430.736	273.19
430.958	262.19
431.18	249.19
431.402	236.19
431.624	276.19
431.846	286.19
432.068	270.19
432.29	268.19
432.512	271.19
432.734	283.19
432.956	263.19
433.178	274.19
433.4	264.19
433.622	260.19
433.844	278.19
434.066	277.19
434.287	285.19
434.509	297.19
434.731	296.19
434.953	313.19
435.175	320.19
435.397	300.19
435.618	284.19
435.84	277.19
436.062	274.19
436.284	270.19
436.505	277.19
436.727	278.19
436.949	273.19
437.17	276.19
437.392	259.19
437.614	256.19
437.835	293.19
438.057	273.19
438.278	265.19
438.5	266.19
438.721	265.19
438.943	268.19
439.165	264.19
439.386	260.19
439.608	276.19
439.829	276.19
440.05	268.19
440.272	300.19
440.493	269.19
440.715	275.19
440.936	264.19
441.158	278.19
441.379	296.19
441.6	296.19
441.822	312.19
442.043	317.19
442.264	291.19
442.486	290.19
442.707	294.19
442.928	286.19
443.149	296.19
443.371	307.19
443.592	290.19
443.813	288.19
444.034	318.19
444.255	326.19
444.476	318.19
444.698	347.19
444.919	353.19
445.14	419.19
445.361	364.19
445.582	318.19
445.803	290.19
446.024	292.19
446.245	283.19
446.466	297.19
446.687	282.19
446.908	269.19
447.129	269.19
447.35	271.19
447.571	268.19
447.792	262.19
448.013	261.19
448.234	265.19
448.455	253.19
448.675	243.19
448.896	249.19
449.117	254.19
449.338	263.19
449.559	233.19
449.779	255.19
450	258.19
450.221	257.19
450.442	270.19
450.662	276.19
450.883	268.19
451.104	276.19
451.324	248.19
451.545	259.19
451.766	274.19
451.986	263.19
452.207	233.19
452.428	247.19
452.648	264.19
452.869	265.19
453.089	264.19
453.31	268.19
453.53	249.19
453.751	240.19
453.971	248.19
454.192	237.19
454.412	244.19
454.633	258.19
454.853	256.19
455.073	237.19
455.294	260.19
455.514	227.19
455.734	232.19
455.955	241.19
456.175	249.19
456.395	262.19
456.616	229.19
456.836	234.19
457.056	252.19
457.276	235.19
457.497	234.19
457.717	251.19
457.937	245.19
458.157	239.19
458.377	252.19
458.598	238.19
458.818	256.19
459.038	258.19
459.258	249.19
459.478	264.19
459.698	299.19
459.918	299.19
460.138	303.19
460.358	310.19
460.578	308.19
460.798	320.19
461.018	312.19
461.238	310.19
461.458	326.19
461.678	307.19
461.898	326.19
462.118	325.19
462.338	327.19
462.558	334.19
462.777	354.19
462.997	385.19
463.217	417.19
463.437	406.19
463.657	393.19
463.876	368.19
464.096	386.19
464.316	358.19
464.536	373.19
464.755	352.19
464.975	348.19
465.195	329.19
465.414	320.19
465.634	285.19
465.854	303.19
466.073	268.19
466.293	266.19
466.512	277.19
466.732	284.19
466.951	274.19
467.171	275.19
467.391	276.19
467.61	266.19
467.829	268.19
468.049	243.19
468.268	243.19
468.488	244.19
468.707	254.19
468.927	260.19
469.146	260.19
469.365	267.19
469.585	256.19
469.804	269.19
470.023	286.19
470.243	285.19
470.462	288.19
470.681	292.19
470.901	295.19
471.12	268.19
471.339	273.19
471.558	267.19
471.777	254.19
471.997	262.19
472.216	266.19
472.435	244.19
472.654	253.19
472.873	240.19
473.092	258.19
473.311	255.19
473.53	250.19
473.749	251.19
473.968	265.19
474.187	262.19
474.406	257.19
474.625	242.19
474.844	268.19
475.063	257.19
475.282	267.19
475.501	263.19
475.72	273.19
475.939	260.19
476.158	263.19
476.377	242.19
476.596	264.19
476.814	277.19
477.033	254.19
477.252	280.19
477.471	285.19
477.69	305.19
477.908	304.19
478.127	294.19
478.346	311.19
478.564	315.19
478.783	292.19
479.002	306.19
479.22	307.19
479.439	308.19
479.658	310.19
479.876	326.19
480.095	305.19
480.313	321.19
480.532	349.19
480.751	349.19
480.969	318.19
481.188	327.19
481.406	314.19
481.624	306.19
481.843	277.19
482.061	301.19
482.28	300.19
482.498	282.19
482.717	288.19
482.935	280.19
483.153	287.19
483.372	288.19
483.59	288.19
483.808	310.19
484.027	326.19
484.245	297.19
484.463	285.19
484.681	297.19
484.9	298.19
485.118	302.19
485.336	315.19
485.554	311.19
485.772	298.19
485.99	294.19
486.209	331.19
486.427	339.19
486.645	316.19
486.863	332.19
487.081	327.19
487.299	310.19
487.517	329.19
487.735	317.19
487.953	328.19
488.171	317.19
488.389	320.19
488.607	300.19
488.825	327.19
489.043	294.19
489.261	304.19
489.479	308.19
489.696	304.19
489.914	286.19
490.132	299.19
490.35	306.19
490.568	304.19
490.786	302.19
491.003	337.19
491.221	317.19
491.439	310.19
491.657	314.19
491.874	334.19
492.092	314.19
492.31	332.19
492.527	317.19
492.745	333.19
492.963	311.19
493.18	340.19
493.398	316.19
493.615	316.19
493.833	311.19
494.05	307.19
494.268	329.19
494.485	315.19
494.703	325.19
494.92	325.19
495.138	318.19
495.355	319.19
495.573	326.19
495.79	309.19
496.008	327.19
496.225	333.19
496.442	321.19
496.66	318.19
496.877	320.19
497.094	342.19
497.312	325.19
497.529	338.19
497.746	344.19
497.963	377.19
498.181	383.19
498.398	403.19
498.615	390.19
498.832	422.19
499.049	462.19
499.267	486.19
499.484	533.19
499.701	588.19
499.918	627.19
500.135	750.19
500.352	852.19
500.569	894.19
500.786	883.19
501.003	827.19
501.22	724.19
501.437	626.19
501.654	566.19
501.871	513.19
502.088	488.19
502.305	456.19
502.522	431.19
502.739	409.19
502.956	412.19
503.172	379.19
503.389	343.19
503.606	344.19
503.823	350.19
504.04	361.19
504.256	367.19
504.473	384.19
504.69	388.19
504.907	389.19
505.123	334.19
505.34	339.19
505.557	326.19
505.773	302.19
505.99	328.19
506.207	299.19
506.423	296.19
506.64	299.19
506.856	286.19
507.073	295.19
507.289	282.19
507.506	304.19
507.722	299.19
507.939	272.19
508.155	287.19
508.372	275.19
508.588	286.19
508.805	270.19
509.021	263.19
509.238	290.19
509.454	277.19
509.67	269.19
509.887	289.19
510.103	293.19
510.319	283.19
510.536	288.19
510.752	275.19
510.968	284.19
511.184	255.19
511.401	278.19
511.617	270.19
511.833	264.19
512.049	278.19
512.265	270.19
512.481	272.19
512.698	266.19
512.914	277.19
513.13	267.19
513.346	270.19
513.562	285.19
513.778	269.19
513.994	274.19
514.21	276.19
514.426	280.19
514.642	286.19
514.858	283.19
515.074	269.19
515.29	294.19
515.506	289.19
515.721	281.19
515.937	294.19
516.153	297.19
516.369	288.19
516.585	285.19
516.801	317.19
517.016	325.19
517.232	334.19
517.448	347.19
517.664	370.19
517.879	368.19
518.095	365.19
518.311	359.19
518.527	344.19
518.742	348.19
518.958	325.19
519.173	307.19
519.389	313.19
519.605	299.19
519.82	276.19
520.036	270.19
520.251	287.19
520.467	302.19
520.682	297.19
520.898	289.19
521.113	286.19
521.329	288.19
521.544	279.19
521.76	281.19
521.975	266.19
522.19	265.19
522.406	283.19
522.621	260.19
522.836	265.19
523.052	269.19
523.267	259.19
523.482	265.19
523.698	267.19
523.913	256.19
524.128	256.19
524.343	267.19
524.559	261.19
524.774	249.19
524.989	261.19
525.204	257.19
525.419	255.19
525.634	261.19
525.849	251.19
526.064	257.19
526.28	271.19
526.495	267.19
526.71	247.19
526.925	256.19
527.14	250.19
527.355	247.19
527.57	245.19
527.785	273.19
527.999	243.19
528.214	262.19
528.429	268.19
528.644	260.19
528.859	232.19
529.074	266.19
529.289	283.19
529.503	269.19
529.718	258.19
529.933	245.19
530.148	237.19
530.363	255.19
530.577	250.19
530.792	257.19
531.007	254.19
531.221	252.19
531.436	276.19
531.651	257.19
531.865	260.19
532.08	253.19
532.295	249.19
532.509	259.19
532.724	262.19
532.938	266.19
533.153	248.19
533.367	257.19
533.582	264.19
533.796	260.19
534.011	280.19
534.225	262.19
534.44	256.19
534.654	259.19
534.868	263.19
535.083	275.19
535.297	265.19
535.511	270.19
535.726	257.19
535.94	261.19
536.154	245.19
536.369	250.19
536.583	235.19
536.797	240.19
537.011	241.19
537.225	252.19
537.44	243.19
537.654	237.19
537.868	240.19
538.082	242.19
538.296	262.19
538.51	238.19
538.724	241.19
538.938	241.19
539.153	252.19
539.367	254.19
539.581	230.19
539.795	245.19
540.009	244.19
540.222	260.19
540.436	241.19
540.65	243.19
540.864	240.19
541.078	241.19
541.292	249.19
541.506	246.19
541.72	236.19
541.934	236.19
542.147	237.19
542.361	227.19
542.575	243.19
542.789	223.19
543.002	228.19
543.216	230.19
543.43	244.19
543.644	242.19
543.857	226.19
544.071	235.19
544.285	234.19
544.498	238.19
544.712	249.19
544.925	241.19
545.139	244.19
545.352	238.19
545.566	246.19
545.779	243.19
545.993	257.19
546.206	242.19
546.42	251.19
546.633	226.19
546.847	231.19
547.06	254.19
547.274	246.19
547.487	244.19
547.7	269.19
547.914	256.19
548.127	244.19
548.34	247.19
548.554	246.19
548.767	249.19
548.98	256.19
549.193	246.19
549.407	243.19
549.62	253.19
549.833	270.19
550.046	271.19
550.259	269.19
550.473	243.19
550.686	246.19
550.899	242.19
551.112	229.19
551.325	238.19
551.538	240.19
551.751	253.19
551.964	240.19
552.177	264.19
552.39	265.19
552.603	256.19
552.816	269.19
553.029	281.19
553.242	269.19
553.455	285.19
553.667	271.19
553.88	261.19
554.093	266.19
554.306	261.19
554.519	240.19
554.732	250.19
554.944	261.19
555.157	258.19
555.37	236.19
555.583	246.19
555.795	234.19
556.008	244.19
556.221	223.19
556.433	218.19
556.646	231.19
556.859	226.19
557.071	227.19
557.284	210.19
557.496	235.19
557.709	236.19
557.921	196.19
558.134	227.19
558.346	218.19
558.559	227.19
558.771	224.19
558.984	213.19
559.196	216.19
559.409	223.19
559.621	225.19
559.833	210.19
560.046	212.19
560.258	216.19
560.47	217.19
560.683	219.19
560.895	195.19
561.107	226.19
561.32	234.19
561.532	224.19
561.744	210.19
561.956	213.19
562.168	198.19
562.381	212.19
562.593	219.19
562.805	218.19
563.017	207.19
563.229	234.19
563.441	224.19
563.653	231.19
563.865	219.19
564.077	189.19
564.289	230.19
564.501	237.19
564.713	234.19
564.925	240.19
565.137	236.19
565.349	245.19
565.561	240.19
565.773	247.19
565.985	261.19
566.197	268.19
566.408	292.19
566.62	302.19
566.832	333.19
567.044	343.19
567.255	326.19
567.467	328.19
567.679	358.19
567.891	381.19
568.102	391.19
568.314	402.19
568.526	324.19
568.737	314.19
568.949	294.19
569.161	277.19
569.372	231.19
569.584	237.19
569.795	224.19
570.007	233.19
570.218	223.19
570.43	229.19
570.641	227.19
570.853	233.19
571.064	238.19
571.276	220.19
571.487	233.19
571.698	233.19
571.91	230.19
572.121	213.19
572.333	198.19
572.544	189.19
572.755	208.19
572.966	215.19
573.178	217.19
573.389	197.19
573.6	193.19
573.811	201.19
574.023	188.19
574.234	193.19
574.445	180.19
574.656	185.19
574.867	190.19
575.078	186.19
575.289	186.19
575.501	179.19
575.712	194.19
575.923	196.19
576.134	202.19
576.345	195.19
576.556	180.19
576.767	174.19
576.978	200.19
577.188	197.19
577.399	197.19
577.61	186.19
577.821	178.19
578.032	187.19
578.243	186.19
578.454	198.19
578.665	186.19
578.875	193.19
579.086	174.19
579.297	176.19
579.508	188.19
579.718	182.19
579.929	173.19
580.14	184.19
580.35	178.19
580.561	178.19
580.772	173.19
580.982	176.19
581.193	172.19
581.403	180.19
581.614	182.19
581.825	183.19
582.035	171.19
582.246	180.19
582.456	170.19
582.667	165.19
582.877	157.19
583.087	197.19
583.298	192.19
583.508	170.19
583.719	178.19
583.929	173.19
584.139	153.19
584.35	161.19
584.56	178.19
584.77	186.19
584.981	176.19
585.191	167.19
585.401	182.19
585.611	174.19
585.821	184.19
586.032	174.19
586.242	173.19
586.452	154.19
586.662	179.19
586.872	176.19
587.082	170.19
587.292	179.19
587.502	194.19
587.713	181.19
587.923	171.19
588.133	176.19
588.343	178.19
588.553	171.19
588.762	169.19
588.972	167.19
589.182	161.19
589.392	180.19
589.602	174.19
589.812	171.19
590.022	181.19
590.232	175.19
590.441	179.19
590.651	185.19
590.861	170.19
591.071	177.19
591.281	189.19
591.49	198.19
591.7	188.19
591.91	178.19
592.119	197.19
592.329	202.19
592.539	198.19
592.748	201.19
592.958	200.19
593.167	204.19
593.377	201.19
593.587	213.19
593.796	218.19
594.006	228.19
594.215	216.19
594.424	211.19
594.634	220.19
594.843	188.19
595.053	203.19
595.262	197.19
595.472	188.19
595.681	192.19
595.89	182.19
596.1	156.19
596.309	174.19
596.518	180.19
596.727	171.19
596.937	163.19
597.146	163.19
597.355	177.19
597.564	160.19
597.774	160.19
597.983	156.19
598.192	145.19
598.401	163.19
598.61	164.19
598.819	155.19
599.028	163.19
599.237	160.19
599.446	144.19
599.655	143.19
599.864	142.19
600.073	155.19
600.282	172.19
600.491	153.19
600.7	142.19
600.909	150.19
601.118	161.19
601.327	162.19
601.536	153.19
601.745	154.19
601.953	153.19
602.162	154.19
602.371	156.19
602.58	157.19
602.789	167.19
602.997	139.19
603.206	154.19
603.415	155.19
603.623	149.19
603.832	161.19
604.041	163.19
604.249	154.19
604.458	146.19
604.666	154.19
604.875	146.19
605.084	136.19
605.292	136.19
605.501	157.19
605.709	158.19
605.918	161.19
606.126	134.19
606.334	153.19
606.543	156.19
606.751	149.19
606.96	149.19
607.168	145.19
607.376	152.19
607.585	163.19
607.793	151.19
608.001	160.19
608.21	146.19
608.418	149.19
608.626	134.19
608.834	155.19
609.043	156.19
609.251	149.19
609.459	141.19
609.667	144.19
609.875	160.19
610.083	143.19
610.291	152.19
610.499	141.19
610.707	145.19
610.916	149.19
611.124	161.19
611.332	160.19
611.54	136.19
611.748	137.19
611.955	145.19
612.163	146.19
612.371	148.19
612.579	150.19
612.787	144.19
612.995	153.19
613.203	148.19
613.411	135.19
613.618	136.19
613.826	147.19
614.034	152.19
614.242	141.19
614.449	141.19
614.657	162.19
614.865	147.19
615.072	128.19
615.28	148.19
615.488	142.19
615.695	139.19
615.903	141.19
616.111	169.19
616.318	153.19
616.526	150.19
616.733	154.19
616.941	138.19
617.148	144.19
617.356	158.19
617.563	162.19
617.771	156.19
617.978	145.19
618.185	127.19
618.393	142.19
618.6	154.19
618.807	141.19
619.015	148.19
619.222	146.19
619.429	141.19
619.637	136.19
619.844	149.19
620.051	147.19
620.258	155.19
620.466	131.19
620.673	140.19
620.88	133.19
621.087	137.19
621.294	146.19
621.501	146.19
621.708	138.19
621.915	137.19
622.122	139.19
622.329	140.19
622.536	150.19
622.743	150.19
622.95	118.19
623.157	133.19
623.364	135.19
623.571	138.19
623.778	136.19
623.985	141.19
624.192	139.19
624.399	142.19
624.606	142.19
624.812	141.19
625.019	156.19
625.226	141.19
625.433	136.19
625.639	128.19
625.846	131.19
626.053	146.19
626.259	132.19
626.466	139.19
626.673	152.19
626.879	125.19
627.086	120.19
627.293	130.19
627.499	148.19
627.706	128.19
627.912	136.19
628.119	138.19
628.325	142.19
628.532	150.19
628.738	135.19
628.945	144.19
629.151	123.19
629.357	144.19
629.564	131.19
629.77	140.19
629.976	142.19
630.183	130.19
630.389	133.19
630.595	133.19
630.802	122.19
631.008	135.19
631.214	128.19
631.42	129.19
631.627	127.19
631.833	121.19
632.039	127.19
632.245	141.19
632.451	117.19
632.657	118.19
632.863	122.19
633.069	135.19
633.275	122.19
633.481	134.19
633.688	127.19
633.893	132.19
634.099	147.19
634.305	125.19
634.511	136.19
634.717	130.19
634.923	129.19
635.129	118.19
635.335	123.19
635.541	131.19
635.747	128.19
635.952	146.19
636.158	123.19
636.364	126.19
636.57	124.19
636.775	124.19
636.981	126.19
637.187	112.19
637.392	100.19
637.598	124.19
637.804	122.19
638.009	142.19
638.215	115.19
638.421	122.19
638.626	125.19
638.832	122.19
639.037	122.19
639.243	118.19
639.448	145.19
639.654	120.19
639.859	112.19
640.065	114.19
640.27	115.19
640.475	106.19
640.681	124.19
640.886	126.19
641.091	132.19
641.297	141.19
641.502	111.19
641.707	108.19
641.913	110.19
642.118	125.19
642.323	118.19
642.528	119.19
642.733	119.19
642.939	109.19
643.144	121.19
643.349	117.19
643.554	125.19
643.759	114.19
643.964	133.19
644.169	101.19
644.374	120.19
644.579	114.19
644.784	113.19
644.989	122.19
645.194	112.19
645.399	89.19
645.604	104.19
645.809	106.19
646.014	122.19
646.219	132.19
646.423	113.19
646.628	115.19
646.833	125.19
647.038	123.19
647.243	110.19
647.447	122.19
647.652	117.19
647.857	114.19
648.062	144.19
648.266	144.19
648.471	126.19
648.676	122.19
648.88	116.19
649.085	119.19
649.289	129.19
649.494	108.19
649.698	104.19
649.903	117.19
650.107	134.19
650.312	132.19
650.516	110.19
650.721	115.19
650.925	124.19
651.13	110.19
651.334	116.19
651.539	96.19
651.743	112.19
651.947	119.19
652.152	108.19
652.356	116.19
652.56	113.19
652.764	116.19
652.969	104.19
653.173	116.19
653.377	94.19
653.581	124.19
653.785	121.19
653.99	98.19
654.194	96.19
654.398	93.19
654.602	98.19
654.806	108.19
655.01	114.19
655.214	97.19
655.418	116.19
655.622	103.19
655.826	106.19
656.03	115.19
656.234	87.19
656.438	106.19
656.642	122.19
656.846	119.19
657.049	122.19
657.253	104.19
657.457	104.19
657.661	112.19
657.865	107.19
658.068	90.19
658.272	90.19
658.476	81.19
658.68	79.19
658.883	92.19
659.087	97.19
659.291	88.19
659.494	89.19
659.698	103.19
659.901	84.19
660.105	90.19
660.309	93.19
660.512	75.19
660.716	89.19
660.919	91.19
661.123	93.19
661.326	94.19
661.53	91.19
661.733	85.19
661.936	97.19
662.14	88.19
662.343	79.19
662.546	87.19
662.75	84.19
662.953	88.19
663.156	82.19
663.36	83.19
663.563	93.19
663.766	76.19
663.969	66.19
664.173	80.19
664.376	83.19
664.579	77.19
664.782	93.19
664.985	73.19
665.188	68.19
665.391	73.19
665.594	100.19
665.797	95.19
666	85.19
666.203	89.19
666.406	81.19
666.609	75.19
666.812	91.19
667.015	78.19
667.218	103.19
667.421	85.19
667.624	86.19
667.827	93.19
668.03	82.19
668.232	77.19
668.435	92.19
668.638	91.19
668.841	82.19
669.043	90.19
669.246	79.19
669.449	83.19
669.651	97.19
669.854	85.19
670.057	87.19
670.259	78.19
670.462	84.19
670.665	86.19
670.867	74.19
671.07	96.19
671.272	90.19
671.475	86.19
671.677	70.19
671.88	76.19
672.082	87.19
672.284	91.19
672.487	72.19
672.689	79.19
672.892	81.19
