Data from 0.5MCu(NO3)2.Standard.Lamp.E10.CV._HRD10591_16-06-04-754.txt Node
Date: Mon Jul 22 16:06:04 EDT 2019
User: cochatt
Spectrometer: HR+D1059
Trigger mode: 1
Integration Time (sec): 1.000000E-1
Scans to average: 1
Electric dark correction enabled: true
Nonlinearity correction enabled: false
Boxcar width: 0
XAxis mode: Wavelengths
Number of Pixels in Spectrum: 2048
>>>>>Begin Spectral Data<<<<<
223.165	-21.81
223.4	-21.81
223.635	-21.81
223.869	-15.81
224.104	-17.81
224.338	-12.81
224.573	-13.81
224.808	-19.81
225.042	11.19
225.277	-9.81
225.511	7.19
225.746	-2.81
225.98	-1.81
226.215	15.19
226.449	20.19
226.683	19.19
226.918	17.19
227.152	26.19
227.387	23.19
227.621	28.19
227.856	51.19
228.09	43.19
228.324	41.19
228.559	61.19
228.793	52.19
229.027	57.19
229.262	70.19
229.496	56.19
229.73	70.19
229.964	72.19
230.199	82.19
230.433	89.19
230.667	83.19
230.901	79.19
231.136	83.19
231.37	83.19
231.604	96.19
231.838	91.19
232.072	88.19
232.306	91.19
232.541	90.19
232.775	94.19
233.009	78.19
233.243	76.19
233.477	77.19
233.711	92.19
233.945	87.19
234.179	90.19
234.413	97.19
234.647	80.19
234.881	86.19
235.115	96.19
235.349	82.19
235.583	84.19
235.817	88.19
236.051	85.19
236.285	88.19
236.519	85.19
236.753	94.19
236.987	92.19
237.221	85.19
237.455	91.19
237.689	86.19
237.922	83.19
238.156	70.19
238.39	74.19
238.624	71.19
238.858	87.19
239.091	84.19
239.325	82.19
239.559	88.19
239.793	96.19
240.027	78.19
240.26	96.19
240.494	91.19
240.728	89.19
240.961	82.19
241.195	97.19
241.429	91.19
241.662	74.19
241.896	85.19
242.13	80.19
242.363	79.19
242.597	96.19
242.83	98.19
243.064	88.19
243.298	86.19
243.531	95.19
243.765	108.19
243.998	96.19
244.232	90.19
244.465	100.19
244.699	83.19
244.932	90.19
245.166	88.19
245.399	91.19
245.633	91.19
245.866	98.19
246.099	80.19
246.333	84.19
246.566	96.19
246.8	84.19
247.033	103.19
247.266	87.19
247.5	87.19
247.733	106.19
247.966	91.19
248.2	107.19
248.433	95.19
248.666	85.19
248.899	95.19
249.133	99.19
249.366	109.19
249.599	82.19
249.832	92.19
250.066	107.19
250.299	99.19
250.532	99.19
250.765	96.19
250.998	112.19
251.231	114.19
251.465	111.19
251.698	106.19
251.931	114.19
252.164	99.19
252.397	114.19
252.63	110.19
252.863	106.19
253.096	116.19
253.329	88.19
253.562	88.19
253.795	99.19
254.028	96.19
254.261	90.19
254.494	90.19
254.727	102.19
254.96	107.19
255.193	95.19
255.426	105.19
255.659	98.19
255.892	107.19
256.124	111.19
256.357	103.19
256.59	118.19
256.823	120.19
257.056	115.19
257.289	101.19
257.521	112.19
257.754	115.19
257.987	116.19
258.22	115.19
258.452	115.19
258.685	112.19
258.918	106.19
259.151	119.19
259.383	104.19
259.616	109.19
259.849	114.19
260.081	104.19
260.314	120.19
260.547	108.19
260.779	114.19
261.012	121.19
261.244	121.19
261.477	127.19
261.71	104.19
261.942	104.19
262.175	97.19
262.407	115.19
262.64	119.19
262.872	116.19
263.105	119.19
263.337	116.19
263.57	105.19
263.802	130.19
264.035	114.19
264.267	118.19
264.499	117.19
264.732	112.19
264.964	114.19
265.197	120.19
265.429	119.19
265.661	103.19
265.894	122.19
266.126	116.19
266.358	117.19
266.591	114.19
266.823	115.19
267.055	122.19
267.287	117.19
267.52	106.19
267.752	116.19
267.984	114.19
268.216	119.19
268.448	136.19
268.681	122.19
268.913	116.19
269.145	119.19
269.377	114.19
269.609	123.19
269.841	114.19
270.073	119.19
270.306	122.19
270.538	120.19
270.77	133.19
271.002	117.19
271.234	121.19
271.466	123.19
271.698	119.19
271.93	131.19
272.162	122.19
272.394	124.19
272.626	121.19
272.858	118.19
273.09	129.19
273.322	124.19
273.553	127.19
273.785	131.19
274.017	131.19
274.249	131.19
274.481	133.19
274.713	140.19
274.945	131.19
275.176	126.19
275.408	132.19
275.64	146.19
275.872	135.19
276.104	131.19
276.335	133.19
276.567	133.19
276.799	127.19
277.031	136.19
277.262	130.19
277.494	128.19
277.726	142.19
277.957	131.19
278.189	147.19
278.421	140.19
278.652	136.19
278.884	144.19
279.115	133.19
279.347	125.19
279.579	134.19
279.81	120.19
280.042	124.19
280.273	125.19
280.505	141.19
280.736	135.19
280.968	139.19
281.199	124.19
281.431	150.19
281.662	129.19
281.894	138.19
282.125	145.19
282.356	158.19
282.588	154.19
282.819	133.19
283.051	152.19
283.282	138.19
283.513	154.19
283.745	134.19
283.976	151.19
284.207	142.19
284.439	156.19
284.67	154.19
284.901	133.19
285.132	136.19
285.364	142.19
285.595	158.19
285.826	142.19
286.057	150.19
286.288	143.19
286.52	146.19
286.751	138.19
286.982	145.19
287.213	150.19
287.444	141.19
287.675	163.19
287.906	146.19
288.138	158.19
288.369	134.19
288.6	147.19
288.831	162.19
289.062	157.19
289.293	147.19
289.524	146.19
289.755	152.19
289.986	146.19
290.217	148.19
290.448	163.19
290.679	162.19
290.91	159.19
291.141	158.19
291.371	154.19
291.602	150.19
291.833	146.19
292.064	157.19
292.295	154.19
292.526	146.19
292.757	156.19
292.987	152.19
293.218	152.19
293.449	164.19
293.68	164.19
293.91	151.19
294.141	161.19
294.372	163.19
294.603	167.19
294.833	138.19
295.064	136.19
295.295	159.19
295.525	153.19
295.756	161.19
295.987	153.19
296.217	154.19
296.448	160.19
296.679	156.19
296.909	163.19
297.14	182.19
297.37	160.19
297.601	164.19
297.831	153.19
298.062	170.19
298.292	150.19
298.523	166.19
298.753	169.19
298.984	165.19
299.214	151.19
299.445	161.19
299.675	162.19
299.905	163.19
300.136	163.19
300.366	146.19
300.597	157.19
300.827	174.19
301.057	165.19
301.288	171.19
301.518	159.19
301.748	170.19
301.979	174.19
302.209	164.19
302.439	176.19
302.669	170.19
302.9	165.19
303.13	176.19
303.36	153.19
303.59	168.19
303.82	156.19
304.051	162.19
304.281	170.19
304.511	171.19
304.741	169.19
304.971	165.19
305.201	148.19
305.431	167.19
305.661	177.19
305.891	161.19
306.121	170.19
306.352	170.19
306.582	162.19
306.812	171.19
307.042	157.19
307.272	162.19
307.502	168.19
307.731	168.19
307.961	163.19
308.191	162.19
308.421	160.19
308.651	162.19
308.881	151.19
309.111	165.19
309.341	168.19
309.571	160.19
309.8	172.19
310.03	174.19
310.26	156.19
310.49	164.19
310.72	158.19
310.949	169.19
311.179	163.19
311.409	155.19
311.639	169.19
311.868	154.19
312.098	180.19
312.328	160.19
312.557	166.19
312.787	169.19
313.017	159.19
313.246	167.19
313.476	185.19
313.706	172.19
313.935	162.19
314.165	167.19
314.394	175.19
314.624	193.19
314.853	183.19
315.083	162.19
315.312	152.19
315.542	158.19
315.771	178.19
316.001	179.19
316.23	163.19
316.46	169.19
316.689	166.19
316.919	164.19
317.148	185.19
317.377	174.19
317.607	177.19
317.836	169.19
318.065	160.19
318.295	164.19
318.524	158.19
318.753	156.19
318.983	172.19
319.212	180.19
319.441	151.19
319.67	182.19
319.9	176.19
320.129	174.19
320.358	177.19
320.587	192.19
320.816	169.19
321.046	166.19
321.275	178.19
321.504	158.19
321.733	170.19
321.962	173.19
322.191	182.19
322.42	169.19
322.649	183.19
322.878	175.19
323.108	167.19
323.337	174.19
323.566	170.19
323.795	198.19
324.024	176.19
324.253	183.19
324.482	158.19
324.71	169.19
324.939	170.19
325.168	167.19
325.397	174.19
325.626	187.19
325.855	163.19
326.084	182.19
326.313	174.19
326.542	190.19
326.77	175.19
326.999	194.19
327.228	198.19
327.457	193.19
327.686	188.19
327.914	200.19
328.143	190.19
328.372	182.19
328.6	193.19
328.829	190.19
329.058	174.19
329.287	182.19
329.515	190.19
329.744	186.19
329.972	201.19
330.201	192.19
330.43	183.19
330.658	192.19
330.887	176.19
331.115	190.19
331.344	192.19
331.572	192.19
331.801	194.19
332.03	212.19
332.258	192.19
332.486	203.19
332.715	194.19
332.943	215.19
333.172	215.19
333.4	218.19
333.629	223.19
333.857	216.19
334.085	223.19
334.314	211.19
334.542	210.19
334.771	211.19
334.999	227.19
335.227	202.19
335.455	201.19
335.684	216.19
335.912	212.19
336.14	196.19
336.369	211.19
336.597	205.19
336.825	208.19
337.053	209.19
337.281	204.19
337.51	195.19
337.738	192.19
337.966	193.19
338.194	192.19
338.422	191.19
338.65	210.19
338.878	194.19
339.106	194.19
339.334	203.19
339.562	196.19
339.79	176.19
340.018	183.19
340.246	182.19
340.474	186.19
340.702	182.19
340.93	198.19
341.158	195.19
341.386	186.19
341.614	201.19
341.842	181.19
342.07	197.19
342.298	174.19
342.526	185.19
342.754	183.19
342.981	196.19
343.209	199.19
343.437	189.19
343.665	199.19
343.893	221.19
344.12	223.19
344.348	222.19
344.576	219.19
344.804	200.19
345.031	188.19
345.259	186.19
345.487	184.19
345.714	193.19
345.942	195.19
346.17	177.19
346.397	178.19
346.625	183.19
346.853	190.19
347.08	181.19
347.308	174.19
347.535	185.19
347.763	169.19
347.99	190.19
348.218	184.19
348.445	190.19
348.673	179.19
348.9	188.19
349.128	185.19
349.355	180.19
349.583	191.19
349.81	167.19
350.037	187.19
350.265	192.19
350.492	170.19
350.72	192.19
350.947	183.19
351.174	180.19
351.402	185.19
351.629	182.19
351.856	191.19
352.083	188.19
352.311	170.19
352.538	166.19
352.765	172.19
352.992	176.19
353.22	161.19
353.447	181.19
353.674	185.19
353.901	186.19
354.128	177.19
354.355	176.19
354.583	190.19
354.81	172.19
355.037	178.19
355.264	176.19
355.491	186.19
355.718	171.19
355.945	175.19
356.172	190.19
356.399	195.19
356.626	170.19
356.853	182.19
357.08	156.19
357.307	178.19
357.534	178.19
357.761	179.19
357.988	189.19
358.215	178.19
358.441	181.19
358.668	163.19
358.895	191.19
359.122	184.19
359.349	180.19
359.576	178.19
359.802	175.19
360.029	169.19
360.256	165.19
360.483	173.19
360.709	180.19
360.936	175.19
361.163	162.19
361.39	158.19
361.616	193.19
361.843	176.19
362.07	182.19
362.296	184.19
362.523	169.19
362.749	179.19
362.976	165.19
363.203	194.19
363.429	184.19
363.656	182.19
363.882	174.19
364.109	178.19
364.335	185.19
364.562	188.19
364.788	180.19
365.015	187.19
365.241	163.19
365.468	176.19
365.694	188.19
365.92	180.19
366.147	171.19
366.373	198.19
366.599	182.19
366.826	167.19
367.052	181.19
367.278	188.19
367.505	156.19
367.731	186.19
367.957	178.19
368.184	188.19
368.41	181.19
368.636	171.19
368.862	171.19
369.089	177.19
369.315	178.19
369.541	175.19
369.767	167.19
369.993	189.19
370.219	195.19
370.445	188.19
370.672	178.19
370.898	174.19
371.124	190.19
371.35	184.19
371.576	187.19
371.802	183.19
372.028	172.19
372.254	192.19
372.48	201.19
372.706	182.19
372.932	210.19
373.158	194.19
373.384	210.19
373.61	189.19
373.835	190.19
374.061	178.19
374.287	188.19
374.513	184.19
374.739	193.19
374.965	195.19
375.191	208.19
375.416	208.19
375.642	193.19
375.868	200.19
376.094	204.19
376.319	193.19
376.545	200.19
376.771	196.19
376.997	194.19
377.222	188.19
377.448	194.19
377.674	177.19
377.899	177.19
378.125	195.19
378.35	192.19
378.576	185.19
378.802	177.19
379.027	180.19
379.253	187.19
379.478	178.19
379.704	185.19
379.929	178.19
380.155	172.19
380.38	176.19
380.606	197.19
380.831	198.19
381.057	194.19
381.282	184.19
381.507	192.19
381.733	189.19
381.958	203.19
382.184	190.19
382.409	200.19
382.634	199.19
382.86	189.19
383.085	183.19
383.31	198.19
383.535	202.19
383.761	208.19
383.986	221.19
384.211	199.19
384.436	200.19
384.662	212.19
384.887	206.19
385.112	206.19
385.337	210.19
385.562	196.19
385.787	204.19
386.013	209.19
386.238	218.19
386.463	214.19
386.688	207.19
386.913	208.19
387.138	202.19
387.363	208.19
387.588	194.19
387.813	208.19
388.038	207.19
388.263	214.19
388.488	194.19
388.713	211.19
388.938	200.19
389.163	214.19
389.387	215.19
389.612	201.19
389.837	198.19
390.062	207.19
390.287	200.19
390.512	201.19
390.736	225.19
390.961	198.19
391.186	220.19
391.411	211.19
391.636	232.19
391.86	232.19
392.085	232.19
392.31	234.19
392.534	219.19
392.759	217.19
392.984	212.19
393.208	214.19
393.433	229.19
393.658	216.19
393.882	208.19
394.107	212.19
394.331	221.19
394.556	215.19
394.78	204.19
395.005	239.19
395.229	227.19
395.454	219.19
395.678	211.19
395.903	202.19
396.127	235.19
396.352	228.19
396.576	197.19
396.801	210.19
397.025	220.19
397.249	215.19
397.474	230.19
397.698	217.19
397.922	201.19
398.147	232.19
398.371	226.19
398.595	246.19
398.82	240.19
399.044	264.19
399.268	271.19
399.492	297.19
399.717	350.19
399.941	325.19
400.165	304.19
400.389	283.19
400.613	267.19
400.837	248.19
401.062	251.19
401.286	255.19
401.51	247.19
401.734	252.19
401.958	267.19
402.182	248.19
402.406	256.19
402.63	250.19
402.854	245.19
403.078	271.19
403.302	264.19
403.526	265.19
403.75	267.19
403.974	279.19
404.198	298.19
404.422	291.19
404.645	274.19
404.869	284.19
405.093	268.19
405.317	259.19
405.541	260.19
405.765	261.19
405.988	266.19
406.212	240.19
406.436	284.19
406.66	261.19
406.883	267.19
407.107	310.19
407.331	308.19
407.555	299.19
407.778	314.19
408.002	295.19
408.226	276.19
408.449	289.19
408.673	258.19
408.896	273.19
409.12	264.19
409.344	256.19
409.567	281.19
409.791	282.19
410.014	280.19
410.238	267.19
410.461	278.19
410.685	256.19
410.908	262.19
411.132	264.19
411.355	238.19
411.578	238.19
411.802	243.19
412.025	263.19
412.249	264.19
412.472	263.19
412.695	242.19
412.919	240.19
413.142	241.19
413.365	247.19
413.589	241.19
413.812	238.19
414.035	263.19
414.258	240.19
414.482	246.19
414.705	239.19
414.928	236.19
415.151	254.19
415.374	239.19
415.597	252.19
415.821	244.19
416.044	262.19
416.267	239.19
416.49	249.19
416.713	233.19
416.936	216.19
417.159	248.19
417.382	232.19
417.605	242.19
417.828	245.19
418.051	246.19
418.274	252.19
418.497	244.19
418.72	246.19
418.943	241.19
419.166	264.19
419.389	266.19
419.611	265.19
419.834	259.19
420.057	259.19
420.28	236.19
420.503	246.19
420.726	246.19
420.948	235.19
421.171	259.19
421.394	245.19
421.617	244.19
421.839	246.19
422.062	245.19
422.285	242.19
422.507	259.19
422.73	268.19
422.953	269.19
423.175	264.19
423.398	244.19
423.621	274.19
423.843	257.19
424.066	254.19
424.288	251.19
424.511	251.19
424.733	258.19
424.956	232.19
425.178	247.19
425.401	235.19
425.623	251.19
425.846	231.19
426.068	263.19
426.291	224.19
426.513	226.19
426.735	238.19
426.958	217.19
427.18	235.19
427.402	224.19
427.625	227.19
427.847	210.19
428.069	217.19
428.292	230.19
428.514	213.19
428.736	239.19
428.958	221.19
429.181	225.19
429.403	202.19
429.625	206.19
429.847	193.19
430.069	227.19
430.292	213.19
430.514	218.19
430.736	218.19
430.958	218.19
431.18	219.19
431.402	219.19
431.624	214.19
431.846	225.19
432.068	241.19
432.29	219.19
432.512	216.19
432.734	217.19
432.956	214.19
433.178	222.19
433.4	221.19
433.622	213.19
433.844	217.19
434.066	220.19
434.287	241.19
434.509	225.19
434.731	251.19
434.953	246.19
435.175	232.19
435.397	246.19
435.618	242.19
435.84	218.19
436.062	222.19
436.284	226.19
436.505	226.19
436.727	214.19
436.949	215.19
437.17	221.19
437.392	204.19
437.614	222.19
437.835	219.19
438.057	214.19
438.278	222.19
438.5	229.19
438.721	219.19
438.943	225.19
439.165	216.19
439.386	226.19
439.608	240.19
439.829	224.19
440.05	221.19
440.272	219.19
440.493	240.19
440.715	237.19
440.936	235.19
441.158	225.19
441.379	226.19
441.6	231.19
441.822	243.19
442.043	262.19
442.264	235.19
442.486	240.19
442.707	234.19
442.928	236.19
443.149	250.19
443.371	248.19
443.592	229.19
443.813	234.19
444.034	238.19
444.255	274.19
444.476	252.19
444.698	274.19
444.919	283.19
445.14	356.19
445.361	294.19
445.582	254.19
445.803	244.19
446.024	232.19
446.245	201.19
446.466	228.19
446.687	220.19
446.908	199.19
447.129	227.19
447.35	210.19
447.571	216.19
447.792	203.19
448.013	209.19
448.234	203.19
448.455	196.19
448.675	209.19
448.896	214.19
449.117	208.19
449.338	188.19
449.559	208.19
449.779	206.19
450	202.19
450.221	203.19
450.442	202.19
450.662	201.19
450.883	219.19
451.104	220.19
451.324	229.19
451.545	226.19
451.766	222.19
451.986	200.19
452.207	219.19
452.428	211.19
452.648	212.19
452.869	211.19
453.089	208.19
453.31	209.19
453.53	224.19
453.751	197.19
453.971	187.19
454.192	196.19
454.412	184.19
454.633	199.19
454.853	206.19
455.073	208.19
455.294	186.19
455.514	207.19
455.734	184.19
455.955	195.19
456.175	188.19
456.395	188.19
456.616	210.19
456.836	196.19
457.056	206.19
457.276	182.19
457.497	183.19
457.717	185.19
457.937	195.19
458.157	188.19
458.377	206.19
458.598	216.19
458.818	214.19
459.038	213.19
459.258	219.19
459.478	230.19
459.698	234.19
459.918	227.19
460.138	217.19
460.358	258.19
460.578	241.19
460.798	249.19
461.018	252.19
461.238	258.19
461.458	246.19
461.678	251.19
461.898	272.19
462.118	272.19
462.338	264.19
462.558	278.19
462.777	261.19
462.997	310.19
463.217	338.19
463.437	335.19
463.657	304.19
463.876	287.19
464.096	295.19
464.316	292.19
464.536	309.19
464.755	282.19
464.975	260.19
465.195	246.19
465.414	258.19
465.634	244.19
465.854	233.19
466.073	242.19
466.293	229.19
466.512	214.19
466.732	209.19
466.951	219.19
467.171	233.19
467.391	200.19
467.61	220.19
467.829	223.19
468.049	219.19
468.268	229.19
468.488	214.19
468.707	207.19
468.927	212.19
469.146	212.19
469.365	224.19
469.585	215.19
469.804	220.19
470.023	222.19
470.243	241.19
470.462	233.19
470.681	240.19
470.901	226.19
471.12	221.19
471.339	215.19
471.558	216.19
471.777	223.19
471.997	208.19
472.216	215.19
472.435	197.19
472.654	215.19
472.873	209.19
473.092	221.19
473.311	205.19
473.53	214.19
473.749	198.19
473.968	201.19
474.187	208.19
474.406	207.19
474.625	235.19
474.844	208.19
475.063	202.19
475.282	210.19
475.501	210.19
475.72	216.19
475.939	193.19
476.158	218.19
476.377	225.19
476.596	203.19
476.814	222.19
477.033	214.19
477.252	216.19
477.471	228.19
477.69	228.19
477.908	240.19
478.127	242.19
478.346	245.19
478.564	246.19
478.783	232.19
479.002	258.19
479.22	254.19
479.439	235.19
479.658	229.19
479.876	245.19
480.095	248.19
480.313	267.19
480.532	264.19
480.751	253.19
480.969	248.19
481.188	238.19
481.406	242.19
481.624	232.19
481.843	220.19
482.061	255.19
482.28	236.19
482.498	225.19
482.717	233.19
482.935	219.19
483.153	257.19
483.372	242.19
483.59	219.19
483.808	238.19
484.027	236.19
484.245	262.19
484.463	241.19
484.681	243.19
484.9	235.19
485.118	245.19
485.336	238.19
485.554	264.19
485.772	254.19
485.99	276.19
486.209	260.19
486.427	251.19
486.645	264.19
486.863	266.19
487.081	262.19
487.299	253.19
487.517	243.19
487.735	250.19
487.953	258.19
488.171	251.19
488.389	253.19
488.607	240.19
488.825	246.19
489.043	243.19
489.261	245.19
489.479	227.19
489.696	254.19
489.914	256.19
490.132	258.19
490.35	245.19
490.568	270.19
490.786	238.19
491.003	258.19
491.221	243.19
491.439	259.19
491.657	250.19
491.874	266.19
492.092	246.19
492.31	261.19
492.527	265.19
492.745	264.19
492.963	247.19
493.18	264.19
493.398	255.19
493.615	249.19
493.833	263.19
494.05	269.19
494.268	265.19
494.485	257.19
494.703	265.19
494.92	256.19
495.138	256.19
495.355	256.19
495.573	266.19
495.79	262.19
496.008	245.19
496.225	272.19
496.442	280.19
496.66	268.19
496.877	275.19
497.094	269.19
497.312	283.19
497.529	272.19
497.746	283.19
497.963	304.19
498.181	280.19
498.398	306.19
498.615	330.19
498.832	342.19
499.049	338.19
499.267	376.19
499.484	419.19
499.701	455.19
499.918	498.19
500.135	580.19
500.352	643.19
500.569	680.19
500.786	707.19
501.003	645.19
501.22	567.19
501.437	489.19
501.654	449.19
501.871	425.19
502.088	378.19
502.305	359.19
502.522	345.19
502.739	336.19
502.956	326.19
503.172	302.19
503.389	294.19
503.606	305.19
503.823	291.19
504.04	287.19
504.256	271.19
504.473	279.19
504.69	295.19
504.907	312.19
505.123	302.19
505.34	260.19
505.557	243.19
505.773	259.19
505.99	255.19
506.207	251.19
506.423	240.19
506.64	233.19
506.856	239.19
507.073	244.19
507.289	245.19
507.506	238.19
507.722	230.19
507.939	227.19
508.155	230.19
508.372	224.19
508.588	227.19
508.805	234.19
509.021	232.19
509.238	237.19
509.454	232.19
509.67	210.19
509.887	220.19
510.103	219.19
510.319	222.19
510.536	232.19
510.752	235.19
510.968	217.19
511.184	214.19
511.401	218.19
511.617	223.19
511.833	241.19
512.049	218.19
512.265	238.19
512.481	225.19
512.698	225.19
512.914	215.19
513.13	232.19
513.346	205.19
513.562	216.19
513.778	223.19
513.994	221.19
514.21	214.19
514.426	228.19
514.642	220.19
514.858	228.19
515.074	228.19
515.29	231.19
515.506	234.19
515.721	226.19
515.937	252.19
516.153	240.19
516.369	237.19
516.585	247.19
516.801	254.19
517.016	265.19
517.232	260.19
517.448	276.19
517.664	283.19
517.879	295.19
518.095	314.19
518.311	281.19
518.527	294.19
518.742	279.19
518.958	253.19
519.173	258.19
519.389	262.19
519.605	227.19
519.82	232.19
520.036	236.19
520.251	223.19
520.467	220.19
520.682	215.19
520.898	227.19
521.113	214.19
521.329	218.19
521.544	231.19
521.76	223.19
521.975	222.19
522.19	220.19
522.406	224.19
522.621	218.19
522.836	206.19
523.052	214.19
523.267	225.19
523.482	211.19
523.698	224.19
523.913	223.19
524.128	216.19
524.343	206.19
524.559	223.19
524.774	222.19
524.989	204.19
525.204	222.19
525.419	223.19
525.634	206.19
525.849	214.19
526.064	196.19
526.28	214.19
526.495	226.19
526.71	215.19
526.925	210.19
527.14	206.19
527.355	214.19
527.57	214.19
527.785	215.19
527.999	205.19
528.214	218.19
528.429	204.19
528.644	217.19
528.859	217.19
529.074	206.19
529.289	220.19
529.503	211.19
529.718	219.19
529.933	212.19
530.148	198.19
530.363	211.19
530.577	211.19
530.792	218.19
531.007	200.19
531.221	208.19
531.436	201.19
531.651	212.19
531.865	214.19
532.08	200.19
532.295	211.19
532.509	212.19
532.724	216.19
532.938	189.19
533.153	211.19
533.367	204.19
533.582	203.19
533.796	218.19
534.011	216.19
534.225	196.19
534.44	202.19
534.654	203.19
534.868	210.19
535.083	197.19
535.297	207.19
535.511	188.19
535.726	229.19
535.94	210.19
536.154	221.19
536.369	205.19
536.583	194.19
536.797	208.19
537.011	200.19
537.225	186.19
537.44	199.19
537.654	196.19
537.868	203.19
538.082	198.19
538.296	192.19
538.51	204.19
538.724	212.19
538.938	211.19
539.153	190.19
539.367	222.19
539.581	210.19
539.795	195.19
540.009	205.19
540.222	190.19
540.436	209.19
540.65	186.19
540.864	194.19
541.078	188.19
541.292	202.19
541.506	210.19
541.72	197.19
541.934	198.19
542.147	208.19
542.361	204.19
542.575	211.19
542.789	195.19
543.002	193.19
543.216	209.19
543.43	180.19
543.644	183.19
543.857	182.19
544.071	215.19
544.285	215.19
544.498	211.19
544.712	216.19
544.925	203.19
545.139	204.19
545.352	202.19
545.566	201.19
545.779	211.19
545.993	204.19
546.206	197.19
546.42	208.19
546.633	222.19
546.847	207.19
547.06	176.19
547.274	202.19
547.487	205.19
547.7	198.19
547.914	208.19
548.127	199.19
548.34	202.19
548.554	207.19
548.767	214.19
548.98	204.19
549.193	191.19
549.407	204.19
549.62	210.19
549.833	205.19
550.046	203.19
550.259	187.19
550.473	202.19
550.686	210.19
550.899	201.19
551.112	204.19
551.325	192.19
551.538	211.19
551.751	217.19
551.964	199.19
552.177	202.19
552.39	210.19
552.603	209.19
552.816	210.19
553.029	212.19
553.242	256.19
553.455	226.19
553.667	221.19
553.88	218.19
554.093	215.19
554.306	207.19
554.519	222.19
554.732	212.19
554.944	204.19
555.157	191.19
555.37	207.19
555.583	192.19
555.795	196.19
556.008	199.19
556.221	193.19
556.433	198.19
556.646	183.19
556.859	185.19
557.071	189.19
557.284	200.19
557.496	182.19
557.709	178.19
557.921	185.19
558.134	180.19
558.346	188.19
558.559	186.19
558.771	184.19
558.984	168.19
559.196	187.19
559.409	182.19
559.621	187.19
559.833	189.19
560.046	182.19
560.258	198.19
560.47	193.19
560.683	192.19
560.895	192.19
561.107	184.19
561.32	164.19
561.532	186.19
561.744	194.19
561.956	162.19
562.168	178.19
562.381	177.19
562.593	181.19
562.805	181.19
563.017	184.19
563.229	186.19
563.441	199.19
563.653	184.19
563.865	184.19
564.077	192.19
564.289	186.19
564.501	191.19
564.713	190.19
564.925	195.19
565.137	203.19
565.349	192.19
565.561	214.19
565.773	197.19
565.985	204.19
566.197	210.19
566.408	220.19
566.62	244.19
566.832	258.19
567.044	261.19
567.255	274.19
567.467	272.19
567.679	280.19
567.891	310.19
568.102	318.19
568.314	296.19
568.526	294.19
568.737	270.19
568.949	243.19
569.161	219.19
569.372	196.19
569.584	191.19
569.795	203.19
570.007	190.19
570.218	191.19
570.43	194.19
570.641	179.19
570.853	205.19
571.064	203.19
571.276	210.19
571.487	191.19
571.698	191.19
571.91	187.19
572.121	177.19
572.333	179.19
572.544	177.19
572.755	166.19
572.966	168.19
573.178	176.19
573.389	166.19
573.6	172.19
573.811	176.19
574.023	155.19
574.234	169.19
574.445	166.19
574.656	131.19
574.867	178.19
575.078	166.19
575.289	172.19
575.501	169.19
575.712	167.19
575.923	151.19
576.134	167.19
576.345	182.19
576.556	161.19
576.767	165.19
576.978	156.19
577.188	150.19
577.399	163.19
577.61	159.19
577.821	161.19
578.032	153.19
578.243	132.19
578.454	154.19
578.665	150.19
578.875	141.19
579.086	148.19
579.297	153.19
579.508	157.19
579.718	148.19
579.929	163.19
580.14	164.19
580.35	158.19
580.561	143.19
580.772	148.19
580.982	175.19
581.193	138.19
581.403	140.19
581.614	159.19
581.825	152.19
582.035	151.19
582.246	174.19
582.456	139.19
582.667	147.19
582.877	146.19
583.087	158.19
583.298	141.19
583.508	146.19
583.719	151.19
583.929	136.19
584.139	152.19
584.35	159.19
584.56	146.19
584.77	163.19
584.981	160.19
585.191	164.19
585.401	150.19
585.611	144.19
585.821	144.19
586.032	152.19
586.242	152.19
586.452	154.19
586.662	158.19
586.872	151.19
587.082	143.19
587.292	163.19
587.502	157.19
587.713	149.19
587.923	141.19
588.133	152.19
588.343	122.19
588.553	140.19
588.762	149.19
588.972	158.19
589.182	158.19
589.392	159.19
589.602	146.19
589.812	144.19
590.022	158.19
590.232	143.19
590.441	146.19
590.651	149.19
590.861	149.19
591.071	147.19
591.281	154.19
591.49	146.19
591.7	142.19
591.91	164.19
592.119	153.19
592.329	158.19
592.539	167.19
592.748	156.19
592.958	164.19
593.167	166.19
593.377	196.19
593.587	159.19
593.796	177.19
594.006	170.19
594.215	197.19
594.424	182.19
594.634	168.19
594.843	163.19
595.053	178.19
595.262	159.19
595.472	172.19
595.681	166.19
595.89	162.19
596.1	147.19
596.309	148.19
596.518	153.19
596.727	154.19
596.937	146.19
597.146	131.19
597.355	127.19
597.564	144.19
597.774	139.19
597.983	134.19
598.192	126.19
598.401	139.19
598.61	132.19
598.819	130.19
599.028	145.19
599.237	146.19
599.446	133.19
599.655	135.19
599.864	146.19
600.073	106.19
600.282	122.19
600.491	147.19
600.7	143.19
600.909	142.19
601.118	141.19
601.327	135.19
601.536	134.19
601.745	131.19
601.953	127.19
602.162	130.19
602.371	135.19
602.58	127.19
602.789	130.19
602.997	144.19
603.206	147.19
603.415	150.19
603.623	139.19
603.832	133.19
604.041	129.19
604.249	130.19
604.458	131.19
604.666	127.19
604.875	116.19
605.084	118.19
605.292	122.19
605.501	144.19
605.709	142.19
605.918	139.19
606.126	131.19
606.334	139.19
606.543	112.19
606.751	143.19
606.96	140.19
607.168	130.19
607.376	127.19
607.585	126.19
607.793	122.19
608.001	127.19
608.21	137.19
608.418	134.19
608.626	123.19
608.834	128.19
609.043	132.19
609.251	124.19
609.459	135.19
609.667	128.19
609.875	122.19
610.083	133.19
610.291	115.19
610.499	131.19
610.707	129.19
610.916	128.19
611.124	124.19
611.332	118.19
611.54	139.19
611.748	134.19
611.955	121.19
612.163	136.19
612.371	133.19
612.579	127.19
612.787	122.19
612.995	120.19
613.203	134.19
613.411	139.19
613.618	124.19
613.826	137.19
614.034	137.19
614.242	120.19
614.449	122.19
614.657	122.19
614.865	129.19
615.072	131.19
615.28	128.19
615.488	130.19
615.695	114.19
615.903	132.19
616.111	141.19
616.318	138.19
616.526	128.19
616.733	134.19
616.941	139.19
617.148	137.19
617.356	144.19
617.563	118.19
617.771	129.19
617.978	118.19
618.185	139.19
618.393	120.19
618.6	121.19
618.807	132.19
619.015	132.19
619.222	118.19
619.429	113.19
619.637	135.19
619.844	124.19
620.051	106.19
620.258	129.19
620.466	127.19
620.673	131.19
620.88	122.19
621.087	127.19
621.294	124.19
621.501	132.19
621.708	126.19
621.915	139.19
622.122	138.19
622.329	128.19
622.536	138.19
622.743	122.19
622.95	121.19
623.157	107.19
623.364	118.19
623.571	132.19
623.778	119.19
623.985	120.19
624.192	103.19
624.399	106.19
624.606	123.19
624.812	110.19
625.019	119.19
625.226	116.19
625.433	123.19
625.639	108.19
625.846	111.19
626.053	112.19
626.259	112.19
626.466	113.19
626.673	121.19
626.879	105.19
627.086	107.19
627.293	99.19
627.499	118.19
627.706	101.19
627.912	138.19
628.119	116.19
628.325	107.19
628.532	106.19
628.738	112.19
628.945	125.19
629.151	114.19
629.357	112.19
629.564	113.19
629.77	125.19
629.976	115.19
630.183	116.19
630.389	98.19
630.595	115.19
630.802	118.19
631.008	120.19
631.214	115.19
631.42	120.19
631.627	120.19
631.833	131.19
632.039	110.19
632.245	112.19
632.451	119.19
632.657	118.19
632.863	110.19
633.069	122.19
633.275	120.19
633.481	106.19
633.688	122.19
633.893	124.19
634.099	121.19
634.305	107.19
634.511	102.19
634.717	120.19
634.923	115.19
635.129	122.19
635.335	124.19
635.541	127.19
635.747	119.19
635.952	111.19
636.158	107.19
636.364	108.19
636.57	115.19
636.775	120.19
636.981	104.19
637.187	103.19
637.392	103.19
637.598	112.19
637.804	103.19
638.009	110.19
638.215	111.19
638.421	113.19
638.626	118.19
638.832	105.19
639.037	117.19
639.243	127.19
639.448	122.19
639.654	115.19
639.859	117.19
640.065	120.19
640.27	117.19
640.475	105.19
640.681	115.19
640.886	106.19
641.091	116.19
641.297	104.19
641.502	114.19
641.707	114.19
641.913	116.19
642.118	107.19
642.323	113.19
642.528	118.19
642.733	120.19
642.939	104.19
643.144	109.19
643.349	120.19
643.554	121.19
643.759	114.19
643.964	116.19
644.169	111.19
644.374	112.19
644.579	116.19
644.784	107.19
644.989	111.19
645.194	99.19
645.399	104.19
645.604	106.19
645.809	113.19
646.014	120.19
646.219	102.19
646.423	110.19
646.628	100.19
646.833	115.19
647.038	94.19
647.243	98.19
647.447	94.19
647.652	118.19
647.857	113.19
648.062	107.19
648.266	118.19
648.471	124.19
648.676	111.19
648.88	116.19
649.085	104.19
649.289	110.19
649.494	90.19
649.698	114.19
649.903	93.19
650.107	112.19
650.312	105.19
650.516	110.19
650.721	99.19
650.925	94.19
651.13	110.19
651.334	111.19
651.539	114.19
651.743	88.19
651.947	123.19
652.152	103.19
652.356	85.19
652.56	97.19
652.764	109.19
652.969	110.19
653.173	106.19
653.377	98.19
653.581	95.19
653.785	117.19
653.99	110.19
654.194	106.19
654.398	90.19
654.602	95.19
654.806	96.19
655.01	112.19
655.214	90.19
655.418	116.19
655.622	104.19
655.826	104.19
656.03	83.19
656.234	104.19
656.438	107.19
656.642	112.19
656.846	100.19
657.049	111.19
657.253	103.19
657.457	80.19
657.661	95.19
657.865	91.19
658.068	89.19
658.272	98.19
658.476	91.19
658.68	92.19
658.883	77.19
659.087	82.19
659.291	111.19
659.494	77.19
659.698	88.19
659.901	99.19
660.105	85.19
660.309	74.19
660.512	86.19
660.716	94.19
660.919	74.19
661.123	89.19
661.326	90.19
661.53	94.19
661.733	78.19
661.936	76.19
662.14	77.19
662.343	74.19
662.546	78.19
662.75	75.19
662.953	82.19
663.156	86.19
663.36	69.19
663.563	82.19
663.766	97.19
663.969	96.19
664.173	83.19
664.376	79.19
664.579	71.19
664.782	76.19
664.985	89.19
665.188	89.19
665.391	86.19
665.594	78.19
665.797	66.19
666	89.19
666.203	84.19
666.406	79.19
666.609	75.19
666.812	79.19
667.015	69.19
667.218	81.19
667.421	78.19
667.624	81.19
667.827	76.19
668.03	80.19
668.232	81.19
668.435	86.19
668.638	90.19
668.841	96.19
669.043	77.19
669.246	89.19
669.449	74.19
669.651	59.19
669.854	81.19
670.057	96.19
670.259	79.19
670.462	73.19
670.665	92.19
670.867	83.19
671.07	69.19
671.272	78.19
671.475	93.19
671.677	78.19
671.88	76.19
672.082	86.19
672.284	83.19
672.487	80.19
672.689	82.19
672.892	87.19
