Data from 0.5MCu(NO3)2.Standard.Lamp.E10.CV._HRD10591_16-04-38-752.txt Node
Date: Mon Jul 22 16:04:38 EDT 2019
User: cochatt
Spectrometer: HR+D1059
Trigger mode: 1
Integration Time (sec): 1.000000E-1
Scans to average: 1
Electric dark correction enabled: true
Nonlinearity correction enabled: false
Boxcar width: 0
XAxis mode: Wavelengths
Number of Pixels in Spectrum: 2048
>>>>>Begin Spectral Data<<<<<
223.165	-19.69
223.4	-19.69
223.635	-19.69
223.869	-15.69
224.104	-27.69
224.338	-14.69
224.573	-30.69
224.808	-13.69
225.042	-1.69
225.277	-11.69
225.511	-8.69
225.746	7.31
225.98	10.31
226.215	20.31
226.449	8.31
226.683	37.31
226.918	28.31
227.152	32.31
227.387	40.31
227.621	32.31
227.856	51.31
228.09	48.31
228.324	40.31
228.559	46.31
228.793	62.31
229.027	79.31
229.262	78.31
229.496	70.31
229.73	78.31
229.964	82.31
230.199	70.31
230.433	78.31
230.667	79.31
230.901	85.31
231.136	84.31
231.37	92.31
231.604	82.31
231.838	77.31
232.072	88.31
232.306	99.31
232.541	89.31
232.775	89.31
233.009	82.31
233.243	86.31
233.477	76.31
233.711	70.31
233.945	92.31
234.179	83.31
234.413	90.31
234.647	82.31
234.881	89.31
235.115	97.31
235.349	82.31
235.583	88.31
235.817	83.31
236.051	84.31
236.285	99.31
236.519	81.31
236.753	96.31
236.987	93.31
237.221	86.31
237.455	91.31
237.689	87.31
237.922	86.31
238.156	97.31
238.39	94.31
238.624	78.31
238.858	81.31
239.091	92.31
239.325	87.31
239.559	88.31
239.793	81.31
240.027	96.31
240.26	89.31
240.494	79.31
240.728	86.31
240.961	99.31
241.195	97.31
241.429	96.31
241.662	94.31
241.896	93.31
242.13	80.31
242.363	72.31
242.597	105.31
242.83	88.31
243.064	84.31
243.298	93.31
243.531	87.31
243.765	83.31
243.998	99.31
244.232	91.31
244.465	86.31
244.699	97.31
244.932	95.31
245.166	72.31
245.399	94.31
245.633	108.31
245.866	102.31
246.099	82.31
246.333	85.31
246.566	79.31
246.8	104.31
247.033	97.31
247.266	95.31
247.5	97.31
247.733	99.31
247.966	100.31
248.2	98.31
248.433	103.31
248.666	93.31
248.899	95.31
249.133	97.31
249.366	104.31
249.599	105.31
249.832	108.31
250.066	95.31
250.299	80.31
250.532	97.31
250.765	109.31
250.998	110.31
251.231	93.31
251.465	104.31
251.698	99.31
251.931	117.31
252.164	98.31
252.397	105.31
252.63	104.31
252.863	98.31
253.096	99.31
253.329	102.31
253.562	106.31
253.795	104.31
254.028	107.31
254.261	110.31
254.494	100.31
254.727	102.31
254.96	101.31
255.193	118.31
255.426	105.31
255.659	110.31
255.892	116.31
256.124	119.31
256.357	121.31
256.59	118.31
256.823	108.31
257.056	108.31
257.289	128.31
257.521	108.31
257.754	95.31
257.987	115.31
258.22	95.31
258.452	98.31
258.685	96.31
258.918	111.31
259.151	100.31
259.383	102.31
259.616	95.31
259.849	120.31
260.081	114.31
260.314	108.31
260.547	113.31
260.779	109.31
261.012	114.31
261.244	114.31
261.477	114.31
261.71	111.31
261.942	115.31
262.175	115.31
262.407	124.31
262.64	112.31
262.872	122.31
263.105	125.31
263.337	122.31
263.57	118.31
263.802	126.31
264.035	117.31
264.267	105.31
264.499	120.31
264.732	114.31
264.964	125.31
265.197	111.31
265.429	117.31
265.661	127.31
265.894	121.31
266.126	122.31
266.358	115.31
266.591	125.31
266.823	128.31
267.055	119.31
267.287	132.31
267.52	124.31
267.752	109.31
267.984	120.31
268.216	131.31
268.448	136.31
268.681	124.31
268.913	115.31
269.145	128.31
269.377	132.31
269.609	122.31
269.841	135.31
270.073	113.31
270.306	119.31
270.538	117.31
270.77	136.31
271.002	126.31
271.234	116.31
271.466	125.31
271.698	128.31
271.93	114.31
272.162	133.31
272.394	120.31
272.626	132.31
272.858	130.31
273.09	135.31
273.322	120.31
273.553	124.31
273.785	127.31
274.017	129.31
274.249	127.31
274.481	133.31
274.713	125.31
274.945	133.31
275.176	131.31
275.408	132.31
275.64	129.31
275.872	122.31
276.104	130.31
276.335	145.31
276.567	124.31
276.799	129.31
277.031	158.31
277.262	133.31
277.494	144.31
277.726	129.31
277.957	121.31
278.189	146.31
278.421	135.31
278.652	138.31
278.884	124.31
279.115	150.31
279.347	134.31
279.579	127.31
279.81	144.31
280.042	137.31
280.273	133.31
280.505	130.31
280.736	138.31
280.968	138.31
281.199	141.31
281.431	132.31
281.662	136.31
281.894	152.31
282.125	131.31
282.356	148.31
282.588	143.31
282.819	139.31
283.051	140.31
283.282	130.31
283.513	152.31
283.745	159.31
283.976	145.31
284.207	147.31
284.439	150.31
284.67	147.31
284.901	149.31
285.132	141.31
285.364	152.31
285.595	152.31
285.826	156.31
286.057	150.31
286.288	136.31
286.52	145.31
286.751	137.31
286.982	152.31
287.213	149.31
287.444	141.31
287.675	151.31
287.906	152.31
288.138	156.31
288.369	151.31
288.6	138.31
288.831	155.31
289.062	152.31
289.293	157.31
289.524	146.31
289.755	162.31
289.986	147.31
290.217	148.31
290.448	156.31
290.679	151.31
290.91	151.31
291.141	158.31
291.371	160.31
291.602	150.31
291.833	157.31
292.064	163.31
292.295	152.31
292.526	151.31
292.757	152.31
292.987	151.31
293.218	159.31
293.449	163.31
293.68	153.31
293.91	158.31
294.141	154.31
294.372	158.31
294.603	153.31
294.833	153.31
295.064	179.31
295.295	168.31
295.525	163.31
295.756	164.31
295.987	144.31
296.217	151.31
296.448	165.31
296.679	158.31
296.909	166.31
297.14	167.31
297.37	171.31
297.601	152.31
297.831	163.31
298.062	158.31
298.292	165.31
298.523	166.31
298.753	180.31
298.984	166.31
299.214	180.31
299.445	186.31
299.675	154.31
299.905	160.31
300.136	156.31
300.366	170.31
300.597	180.31
300.827	163.31
301.057	160.31
301.288	161.31
301.518	180.31
301.748	177.31
301.979	164.31
302.209	190.31
302.439	164.31
302.669	172.31
302.9	173.31
303.13	179.31
303.36	179.31
303.59	178.31
303.82	172.31
304.051	175.31
304.281	168.31
304.511	181.31
304.741	184.31
304.971	182.31
305.201	165.31
305.431	150.31
305.661	144.31
305.891	151.31
306.121	174.31
306.352	160.31
306.582	166.31
306.812	164.31
307.042	166.31
307.272	188.31
307.502	154.31
307.731	171.31
307.961	176.31
308.191	166.31
308.421	177.31
308.651	161.31
308.881	167.31
309.111	162.31
309.341	153.31
309.571	166.31
309.8	153.31
310.03	149.31
310.26	154.31
310.49	169.31
310.72	184.31
310.949	166.31
311.179	168.31
311.409	191.31
311.639	175.31
311.868	169.31
312.098	178.31
312.328	176.31
312.557	164.31
312.787	184.31
313.017	174.31
313.246	192.31
313.476	172.31
313.706	176.31
313.935	153.31
314.165	157.31
314.394	174.31
314.624	184.31
314.853	178.31
315.083	178.31
315.312	182.31
315.542	173.31
315.771	180.31
316.001	161.31
316.23	158.31
316.46	162.31
316.689	159.31
316.919	164.31
317.148	184.31
317.377	174.31
317.607	173.31
317.836	183.31
318.065	182.31
318.295	166.31
318.524	170.31
318.753	168.31
318.983	174.31
319.212	161.31
319.441	168.31
319.67	166.31
319.9	179.31
320.129	170.31
320.358	162.31
320.587	174.31
320.816	172.31
321.046	155.31
321.275	168.31
321.504	176.31
321.733	188.31
321.962	167.31
322.191	195.31
322.42	174.31
322.649	188.31
322.878	177.31
323.108	183.31
323.337	175.31
323.566	178.31
323.795	180.31
324.024	169.31
324.253	170.31
324.482	188.31
324.71	179.31
324.939	184.31
325.168	196.31
325.397	189.31
325.626	174.31
325.855	176.31
326.084	185.31
326.313	197.31
326.542	190.31
326.77	177.31
326.999	180.31
327.228	197.31
327.457	189.31
327.686	166.31
327.914	198.31
328.143	176.31
328.372	183.31
328.6	182.31
328.829	174.31
329.058	175.31
329.287	167.31
329.515	186.31
329.744	187.31
329.972	200.31
330.201	182.31
330.43	176.31
330.658	182.31
330.887	183.31
331.115	192.31
331.344	196.31
331.572	182.31
331.801	210.31
332.03	185.31
332.258	201.31
332.486	196.31
332.715	201.31
332.943	200.31
333.172	220.31
333.4	215.31
333.629	234.31
333.857	221.31
334.085	233.31
334.314	229.31
334.542	221.31
334.771	222.31
334.999	218.31
335.227	188.31
335.455	228.31
335.684	216.31
335.912	204.31
336.14	210.31
336.369	201.31
336.597	208.31
336.825	208.31
337.053	202.31
337.281	214.31
337.51	194.31
337.738	204.31
337.966	203.31
338.194	199.31
338.422	198.31
338.65	194.31
338.878	197.31
339.106	193.31
339.334	185.31
339.562	200.31
339.79	189.31
340.018	188.31
340.246	207.31
340.474	180.31
340.702	187.31
340.93	168.31
341.158	185.31
341.386	168.31
341.614	187.31
341.842	176.31
342.07	193.31
342.298	192.31
342.526	177.31
342.754	195.31
342.981	188.31
343.209	212.31
343.437	201.31
343.665	198.31
343.893	211.31
344.12	215.31
344.348	200.31
344.576	208.31
344.804	196.31
345.031	195.31
345.259	194.31
345.487	186.31
345.714	203.31
345.942	191.31
346.17	185.31
346.397	191.31
346.625	188.31
346.853	189.31
347.08	182.31
347.308	209.31
347.535	180.31
347.763	188.31
347.99	188.31
348.218	187.31
348.445	200.31
348.673	202.31
348.9	178.31
349.128	179.31
349.355	170.31
349.583	181.31
349.81	188.31
350.037	197.31
350.265	207.31
350.492	183.31
350.72	172.31
350.947	157.31
351.174	169.31
351.402	163.31
351.629	175.31
351.856	188.31
352.083	204.31
352.311	176.31
352.538	187.31
352.765	182.31
352.992	172.31
353.22	177.31
353.447	168.31
353.674	166.31
353.901	179.31
354.128	184.31
354.355	179.31
354.583	173.31
354.81	167.31
355.037	180.31
355.264	175.31
355.491	184.31
355.718	188.31
355.945	172.31
356.172	191.31
356.399	182.31
356.626	182.31
356.853	181.31
357.08	165.31
357.307	167.31
357.534	182.31
357.761	169.31
357.988	196.31
358.215	181.31
358.441	173.31
358.668	183.31
358.895	188.31
359.122	178.31
359.349	178.31
359.576	192.31
359.802	173.31
360.029	172.31
360.256	193.31
360.483	178.31
360.709	188.31
360.936	172.31
361.163	154.31
361.39	172.31
361.616	173.31
361.843	172.31
362.07	162.31
362.296	179.31
362.523	179.31
362.749	170.31
362.976	172.31
363.203	183.31
363.429	176.31
363.656	195.31
363.882	177.31
364.109	174.31
364.335	197.31
364.562	180.31
364.788	172.31
365.015	178.31
365.241	166.31
365.468	172.31
365.694	172.31
365.92	192.31
366.147	180.31
366.373	184.31
366.599	178.31
366.826	189.31
367.052	189.31
367.278	178.31
367.505	197.31
367.731	168.31
367.957	182.31
368.184	194.31
368.41	182.31
368.636	196.31
368.862	173.31
369.089	179.31
369.315	189.31
369.541	174.31
369.767	178.31
369.993	168.31
370.219	164.31
370.445	174.31
370.672	164.31
370.898	179.31
371.124	188.31
371.35	178.31
371.576	194.31
371.802	195.31
372.028	201.31
372.254	192.31
372.48	205.31
372.706	189.31
372.932	173.31
373.158	182.31
373.384	182.31
373.61	198.31
373.835	183.31
374.061	190.31
374.287	186.31
374.513	204.31
374.739	185.31
374.965	210.31
375.191	216.31
375.416	203.31
375.642	195.31
375.868	220.31
376.094	212.31
376.319	185.31
376.545	180.31
376.771	193.31
376.997	174.31
377.222	201.31
377.448	190.31
377.674	185.31
377.899	183.31
378.125	201.31
378.35	191.31
378.576	199.31
378.802	183.31
379.027	183.31
379.253	200.31
379.478	185.31
379.704	185.31
379.929	198.31
380.155	176.31
380.38	176.31
380.606	203.31
380.831	188.31
381.057	180.31
381.282	182.31
381.507	174.31
381.733	201.31
381.958	183.31
382.184	187.31
382.409	188.31
382.634	203.31
382.86	196.31
383.085	180.31
383.31	198.31
383.535	209.31
383.761	205.31
383.986	206.31
384.211	212.31
384.436	199.31
384.662	213.31
384.887	223.31
385.112	222.31
385.337	221.31
385.562	217.31
385.787	214.31
386.013	227.31
386.238	213.31
386.463	221.31
386.688	224.31
386.913	231.31
387.138	220.31
387.363	211.31
387.588	208.31
387.813	202.31
388.038	220.31
388.263	208.31
388.488	211.31
388.713	199.31
388.938	193.31
389.163	181.31
389.387	230.31
389.612	203.31
389.837	206.31
390.062	204.31
390.287	198.31
390.512	209.31
390.736	222.31
390.961	195.31
391.186	213.31
391.411	214.31
391.636	218.31
391.86	233.31
392.085	222.31
392.31	253.31
392.534	235.31
392.759	228.31
392.984	218.31
393.208	208.31
393.433	208.31
393.658	193.31
393.882	231.31
394.107	219.31
394.331	234.31
394.556	223.31
394.78	221.31
395.005	229.31
395.229	233.31
395.454	230.31
395.678	268.31
395.903	240.31
396.127	230.31
396.352	218.31
396.576	208.31
396.801	230.31
397.025	230.31
397.249	218.31
397.474	233.31
397.698	234.31
397.922	226.31
398.147	218.31
398.371	245.31
398.595	244.31
398.82	226.31
399.044	250.31
399.268	268.31
399.492	311.31
399.717	339.31
399.941	327.31
400.165	334.31
400.389	284.31
400.613	285.31
400.837	253.31
401.062	235.31
401.286	261.31
401.51	250.31
401.734	245.31
401.958	242.31
402.182	253.31
402.406	266.31
402.63	249.31
402.854	266.31
403.078	287.31
403.302	248.31
403.526	267.31
403.75	287.31
403.974	278.31
404.198	286.31
404.422	292.31
404.645	287.31
404.869	282.31
405.093	281.31
405.317	271.31
405.541	283.31
405.765	284.31
405.988	274.31
406.212	258.31
406.436	264.31
406.66	270.31
406.883	264.31
407.107	294.31
407.331	305.31
407.555	292.31
407.778	305.31
408.002	286.31
408.226	285.31
408.449	266.31
408.673	279.31
408.896	285.31
409.12	278.31
409.344	291.31
409.567	277.31
409.791	304.31
410.014	279.31
410.238	287.31
410.461	271.31
410.685	268.31
410.908	279.31
411.132	272.31
411.355	245.31
411.578	235.31
411.802	252.31
412.025	258.31
412.249	259.31
412.472	261.31
412.695	248.31
412.919	239.31
413.142	248.31
413.365	240.31
413.589	241.31
413.812	259.31
414.035	240.31
414.258	229.31
414.482	256.31
414.705	249.31
414.928	247.31
415.151	260.31
415.374	253.31
415.597	256.31
415.821	234.31
416.044	245.31
416.267	251.31
416.49	265.31
416.713	265.31
416.936	225.31
417.159	237.31
417.382	255.31
417.605	249.31
417.828	272.31
418.051	242.31
418.274	249.31
418.497	249.31
418.72	247.31
418.943	249.31
419.166	264.31
419.389	264.31
419.611	278.31
419.834	274.31
420.057	248.31
420.28	265.31
420.503	249.31
420.726	242.31
420.948	232.31
421.171	252.31
421.394	254.31
421.617	232.31
421.839	224.31
422.062	245.31
422.285	244.31
422.507	250.31
422.73	242.31
422.953	250.31
423.175	253.31
423.398	273.31
423.621	256.31
423.843	274.31
424.066	266.31
424.288	266.31
424.511	249.31
424.733	258.31
424.956	237.31
425.178	245.31
425.401	242.31
425.623	246.31
425.846	236.31
426.068	240.31
426.291	243.31
426.513	230.31
426.735	242.31
426.958	232.31
427.18	221.31
427.402	248.31
427.625	244.31
427.847	244.31
428.069	226.31
428.292	213.31
428.514	250.31
428.736	222.31
428.958	228.31
429.181	240.31
429.403	221.31
429.625	222.31
429.847	210.31
430.069	238.31
430.292	243.31
430.514	229.31
430.736	220.31
430.958	217.31
431.18	231.31
431.402	230.31
431.624	248.31
431.846	237.31
432.068	225.31
432.29	236.31
432.512	233.31
432.734	229.31
432.956	224.31
433.178	217.31
433.4	217.31
433.622	228.31
433.844	218.31
434.066	240.31
434.287	220.31
434.509	238.31
434.731	239.31
434.953	255.31
435.175	242.31
435.397	249.31
435.618	246.31
435.84	241.31
436.062	215.31
436.284	232.31
436.505	203.31
436.727	224.31
436.949	218.31
437.17	233.31
437.392	221.31
437.614	224.31
437.835	215.31
438.057	218.31
438.278	217.31
438.5	213.31
438.721	213.31
438.943	214.31
439.165	238.31
439.386	215.31
439.608	223.31
439.829	231.31
440.05	210.31
440.272	218.31
440.493	220.31
440.715	215.31
440.936	238.31
441.158	246.31
441.379	230.31
441.6	253.31
441.822	252.31
442.043	253.31
442.264	261.31
442.486	239.31
442.707	238.31
442.928	244.31
443.149	236.31
443.371	231.31
443.592	222.31
443.813	250.31
444.034	246.31
444.255	248.31
444.476	272.31
444.698	274.31
444.919	292.31
445.14	392.31
445.361	336.31
445.582	268.31
445.803	237.31
446.024	239.31
446.245	218.31
446.466	238.31
446.687	230.31
446.908	227.31
447.129	215.31
447.35	217.31
447.571	213.31
447.792	216.31
448.013	215.31
448.234	215.31
448.455	200.31
448.675	214.31
448.896	217.31
449.117	199.31
449.338	203.31
449.559	214.31
449.779	209.31
450	222.31
450.221	215.31
450.442	217.31
450.662	202.31
450.883	246.31
451.104	226.31
451.324	217.31
451.545	227.31
451.766	215.31
451.986	209.31
452.207	219.31
452.428	209.31
452.648	220.31
452.869	214.31
453.089	190.31
453.31	221.31
453.53	221.31
453.751	202.31
453.971	209.31
454.192	209.31
454.412	192.31
454.633	205.31
454.853	219.31
455.073	196.31
455.294	222.31
455.514	198.31
455.734	211.31
455.955	207.31
456.175	199.31
456.395	174.31
456.616	190.31
456.836	201.31
457.056	206.31
457.276	197.31
457.497	205.31
457.717	176.31
457.937	195.31
458.157	197.31
458.377	212.31
458.598	209.31
458.818	212.31
459.038	245.31
459.258	216.31
459.478	226.31
459.698	239.31
459.918	246.31
460.138	235.31
460.358	245.31
460.578	250.31
460.798	256.31
461.018	264.31
461.238	272.31
461.458	265.31
461.678	240.31
461.898	254.31
462.118	259.31
462.338	271.31
462.558	264.31
462.777	272.31
462.997	328.31
463.217	342.31
463.437	343.31
463.657	277.31
463.876	311.31
464.096	306.31
464.316	309.31
464.536	318.31
464.755	297.31
464.975	284.31
465.195	260.31
465.414	263.31
465.634	249.31
465.854	234.31
466.073	240.31
466.293	227.31
466.512	219.31
466.732	236.31
466.951	206.31
467.171	217.31
467.391	229.31
467.61	202.31
467.829	210.31
468.049	223.31
468.268	208.31
468.488	222.31
468.707	205.31
468.927	226.31
469.146	217.31
469.365	223.31
469.585	213.31
469.804	210.31
470.023	220.31
470.243	242.31
470.462	227.31
470.681	247.31
470.901	232.31
471.12	225.31
471.339	222.31
471.558	228.31
471.777	209.31
471.997	206.31
472.216	221.31
472.435	209.31
472.654	207.31
472.873	222.31
473.092	212.31
473.311	209.31
473.53	218.31
473.749	213.31
473.968	222.31
474.187	209.31
474.406	222.31
474.625	216.31
474.844	220.31
475.063	205.31
475.282	206.31
475.501	224.31
475.72	222.31
475.939	207.31
476.158	228.31
476.377	214.31
476.596	212.31
476.814	224.31
477.033	228.31
477.252	236.31
477.471	232.31
477.69	240.31
477.908	239.31
478.127	270.31
478.346	254.31
478.564	246.31
478.783	276.31
479.002	277.31
479.22	266.31
479.439	258.31
479.658	250.31
479.876	250.31
480.095	251.31
480.313	272.31
480.532	281.31
480.751	270.31
480.969	277.31
481.188	257.31
481.406	240.31
481.624	243.31
481.843	240.31
482.061	245.31
482.28	238.31
482.498	254.31
482.717	246.31
482.935	232.31
483.153	228.31
483.372	233.31
483.59	246.31
483.808	264.31
484.027	249.31
484.245	266.31
484.463	252.31
484.681	271.31
484.9	256.31
485.118	245.31
485.336	265.31
485.554	239.31
485.772	265.31
485.99	252.31
486.209	262.31
486.427	241.31
486.645	254.31
486.863	259.31
487.081	261.31
487.299	249.31
487.517	247.31
487.735	256.31
487.953	258.31
488.171	275.31
488.389	264.31
488.607	250.31
488.825	240.31
489.043	255.31
489.261	239.31
489.479	223.31
489.696	259.31
489.914	256.31
490.132	259.31
490.35	248.31
490.568	254.31
490.786	264.31
491.003	248.31
491.221	249.31
491.439	264.31
491.657	263.31
491.874	253.31
492.092	223.31
492.31	268.31
492.527	270.31
492.745	272.31
492.963	255.31
493.18	273.31
493.398	261.31
493.615	266.31
493.833	253.31
494.05	255.31
494.268	288.31
494.485	277.31
494.703	266.31
494.92	278.31
495.138	270.31
495.355	258.31
495.573	281.31
495.79	278.31
496.008	266.31
496.225	270.31
496.442	271.31
496.66	275.31
496.877	285.31
497.094	285.31
497.312	290.31
497.529	290.31
497.746	303.31
497.963	290.31
498.181	302.31
498.398	303.31
498.615	329.31
498.832	341.31
499.049	356.31
499.267	382.31
499.484	441.31
499.701	475.31
499.918	519.31
500.135	586.31
500.352	670.31
500.569	716.31
500.786	697.31
501.003	660.31
501.22	594.31
501.437	498.31
501.654	454.31
501.871	415.31
502.088	386.31
502.305	361.31
502.522	365.31
502.739	330.31
502.956	323.31
503.172	317.31
503.389	317.31
503.606	278.31
503.823	295.31
504.04	288.31
504.256	295.31
504.473	308.31
504.69	297.31
504.907	310.31
505.123	286.31
505.34	278.31
505.557	272.31
505.773	268.31
505.99	261.31
506.207	256.31
506.423	256.31
506.64	258.31
506.856	236.31
507.073	270.31
507.289	253.31
507.506	253.31
507.722	253.31
507.939	222.31
508.155	232.31
508.372	232.31
508.588	239.31
508.805	231.31
509.021	229.31
509.238	237.31
509.454	242.31
509.67	232.31
509.887	226.31
510.103	230.31
510.319	228.31
510.536	233.31
510.752	235.31
510.968	240.31
511.184	238.31
511.401	242.31
511.617	245.31
511.833	228.31
512.049	223.31
512.265	236.31
512.481	238.31
512.698	231.31
512.914	222.31
513.13	217.31
513.346	239.31
513.562	220.31
513.778	225.31
513.994	237.31
514.21	224.31
514.426	230.31
514.642	250.31
514.858	227.31
515.074	237.31
515.29	238.31
515.506	239.31
515.721	244.31
515.937	232.31
516.153	240.31
516.369	268.31
516.585	237.31
516.801	232.31
517.016	264.31
517.232	292.31
517.448	290.31
517.664	302.31
517.879	310.31
518.095	319.31
518.311	281.31
518.527	294.31
518.742	284.31
518.958	260.31
519.173	262.31
519.389	249.31
519.605	262.31
519.82	246.31
520.036	229.31
520.251	240.31
520.467	256.31
520.682	231.31
520.898	228.31
521.113	236.31
521.329	224.31
521.544	228.31
521.76	209.31
521.975	223.31
522.19	234.31
522.406	221.31
522.621	220.31
522.836	225.31
523.052	223.31
523.267	217.31
523.482	224.31
523.698	213.31
523.913	221.31
524.128	231.31
524.343	224.31
524.559	215.31
524.774	197.31
524.989	228.31
525.204	224.31
525.419	215.31
525.634	218.31
525.849	219.31
526.064	210.31
526.28	225.31
526.495	209.31
526.71	213.31
526.925	225.31
527.14	203.31
527.355	219.31
527.57	209.31
527.785	200.31
527.999	212.31
528.214	220.31
528.429	212.31
528.644	211.31
528.859	223.31
529.074	236.31
529.289	222.31
529.503	229.31
529.718	215.31
529.933	213.31
530.148	219.31
530.363	231.31
530.577	212.31
530.792	222.31
531.007	224.31
531.221	222.31
531.436	221.31
531.651	198.31
531.865	218.31
532.08	217.31
532.295	209.31
532.509	222.31
532.724	202.31
532.938	209.31
533.153	204.31
533.367	212.31
533.582	213.31
533.796	222.31
534.011	223.31
534.225	216.31
534.44	204.31
534.654	205.31
534.868	213.31
535.083	223.31
535.297	210.31
535.511	224.31
535.726	210.31
535.94	213.31
536.154	206.31
536.369	201.31
536.583	196.31
536.797	210.31
537.011	214.31
537.225	217.31
537.44	206.31
537.654	213.31
537.868	216.31
538.082	206.31
538.296	208.31
538.51	201.31
538.724	190.31
538.938	207.31
539.153	218.31
539.367	199.31
539.581	211.31
539.795	209.31
540.009	202.31
540.222	225.31
540.436	182.31
540.65	205.31
540.864	196.31
541.078	202.31
541.292	191.31
541.506	213.31
541.72	209.31
541.934	223.31
542.147	201.31
542.361	202.31
542.575	188.31
542.789	195.31
543.002	193.31
543.216	196.31
543.43	208.31
543.644	179.31
543.857	205.31
544.071	210.31
544.285	225.31
544.498	210.31
544.712	208.31
544.925	204.31
545.139	210.31
545.352	220.31
545.566	218.31
545.779	208.31
545.993	227.31
546.206	207.31
546.42	211.31
546.633	216.31
546.847	219.31
547.06	216.31
547.274	200.31
547.487	209.31
547.7	213.31
547.914	204.31
548.127	210.31
548.34	214.31
548.554	209.31
548.767	209.31
548.98	218.31
549.193	217.31
549.407	199.31
549.62	216.31
549.833	204.31
550.046	204.31
550.259	204.31
550.473	218.31
550.686	202.31
550.899	222.31
551.112	212.31
551.325	202.31
551.538	197.31
551.751	204.31
551.964	197.31
552.177	220.31
552.39	211.31
552.603	209.31
552.816	225.31
553.029	221.31
553.242	231.31
553.455	242.31
553.667	236.31
553.88	219.31
554.093	204.31
554.306	216.31
554.519	225.31
554.732	199.31
554.944	210.31
555.157	210.31
555.37	208.31
555.583	193.31
555.795	197.31
556.008	200.31
556.221	191.31
556.433	193.31
556.646	190.31
556.859	202.31
557.071	183.31
557.284	198.31
557.496	206.31
557.709	174.31
557.921	190.31
558.134	194.31
558.346	187.31
558.559	192.31
558.771	196.31
558.984	179.31
559.196	180.31
559.409	177.31
559.621	200.31
559.833	192.31
560.046	197.31
560.258	193.31
560.47	188.31
560.683	172.31
560.895	205.31
561.107	190.31
561.32	180.31
561.532	183.31
561.744	169.31
561.956	172.31
562.168	190.31
562.381	196.31
562.593	182.31
562.805	195.31
563.017	178.31
563.229	196.31
563.441	198.31
563.653	192.31
563.865	187.31
564.077	184.31
564.289	192.31
564.501	201.31
564.713	193.31
564.925	196.31
565.137	195.31
565.349	193.31
565.561	193.31
565.773	195.31
565.985	214.31
566.197	220.31
566.408	214.31
566.62	251.31
566.832	280.31
567.044	267.31
567.255	266.31
567.467	286.31
567.679	300.31
567.891	308.31
568.102	327.31
568.314	312.31
568.526	276.31
568.737	262.31
568.949	238.31
569.161	210.31
569.372	206.31
569.584	204.31
569.795	216.31
570.007	191.31
570.218	195.31
570.43	189.31
570.641	197.31
570.853	198.31
571.064	184.31
571.276	195.31
571.487	193.31
571.698	189.31
571.91	175.31
572.121	164.31
572.333	165.31
572.544	165.31
572.755	182.31
572.966	183.31
573.178	161.31
573.389	164.31
573.6	174.31
573.811	189.31
574.023	167.31
574.234	160.31
574.445	159.31
574.656	189.31
574.867	158.31
575.078	160.31
575.289	156.31
575.501	159.31
575.712	179.31
575.923	166.31
576.134	151.31
576.345	161.31
576.556	174.31
576.767	158.31
576.978	166.31
577.188	162.31
577.399	174.31
577.61	166.31
577.821	157.31
578.032	159.31
578.243	160.31
578.454	154.31
578.665	150.31
578.875	158.31
579.086	161.31
579.297	160.31
579.508	149.31
579.718	165.31
579.929	161.31
580.14	164.31
580.35	145.31
580.561	147.31
580.772	154.31
580.982	162.31
581.193	153.31
581.403	152.31
581.614	159.31
581.825	149.31
582.035	165.31
582.246	151.31
582.456	158.31
582.667	147.31
582.877	137.31
583.087	154.31
583.298	154.31
583.508	151.31
583.719	167.31
583.929	143.31
584.139	154.31
584.35	154.31
584.56	134.31
584.77	151.31
584.981	135.31
585.191	142.31
585.401	156.31
585.611	158.31
585.821	175.31
586.032	146.31
586.242	153.31
586.452	135.31
586.662	142.31
586.872	156.31
587.082	144.31
587.292	152.31
587.502	150.31
587.713	137.31
587.923	164.31
588.133	151.31
588.343	139.31
588.553	143.31
588.762	157.31
588.972	158.31
589.182	162.31
589.392	168.31
589.602	153.31
589.812	161.31
590.022	154.31
590.232	165.31
590.441	144.31
590.651	158.31
590.861	154.31
591.071	136.31
591.281	147.31
591.49	157.31
591.7	169.31
591.91	181.31
592.119	163.31
592.329	154.31
592.539	150.31
592.748	185.31
592.958	160.31
593.167	181.31
593.377	171.31
593.587	183.31
593.796	172.31
594.006	192.31
594.215	177.31
594.424	193.31
594.634	180.31
594.843	165.31
595.053	159.31
595.262	164.31
595.472	174.31
595.681	153.31
595.89	152.31
596.1	166.31
596.309	152.31
596.518	152.31
596.727	146.31
596.937	158.31
597.146	151.31
597.355	158.31
597.564	152.31
597.774	152.31
597.983	141.31
598.192	146.31
598.401	128.31
598.61	133.31
598.819	131.31
599.028	131.31
599.237	124.31
599.446	127.31
599.655	127.31
599.864	130.31
600.073	151.31
600.282	144.31
600.491	134.31
600.7	150.31
600.909	124.31
601.118	143.31
601.327	129.31
601.536	132.31
601.745	145.31
601.953	154.31
602.162	141.31
602.371	141.31
602.58	146.31
602.789	132.31
602.997	136.31
603.206	125.31
603.415	130.31
603.623	133.31
603.832	136.31
604.041	135.31
604.249	131.31
604.458	128.31
604.666	132.31
604.875	124.31
605.084	128.31
605.292	118.31
605.501	142.31
605.709	137.31
605.918	138.31
606.126	126.31
606.334	129.31
606.543	132.31
606.751	140.31
606.96	151.31
607.168	132.31
607.376	132.31
607.585	145.31
607.793	131.31
608.001	131.31
608.21	126.31
608.418	137.31
608.626	134.31
608.834	136.31
609.043	121.31
609.251	145.31
609.459	137.31
609.667	138.31
609.875	128.31
610.083	118.31
610.291	137.31
610.499	113.31
610.707	125.31
610.916	142.31
611.124	131.31
611.332	136.31
611.54	132.31
611.748	132.31
611.955	134.31
612.163	125.31
612.371	136.31
612.579	121.31
612.787	142.31
612.995	123.31
613.203	140.31
613.411	132.31
613.618	137.31
613.826	136.31
614.034	120.31
614.242	127.31
614.449	130.31
614.657	130.31
614.865	138.31
615.072	136.31
615.28	129.31
615.488	134.31
615.695	129.31
615.903	126.31
616.111	139.31
616.318	149.31
616.526	128.31
616.733	134.31
616.941	127.31
617.148	131.31
617.356	128.31
617.563	136.31
617.771	124.31
617.978	125.31
618.185	144.31
618.393	123.31
618.6	137.31
618.807	136.31
619.015	134.31
619.222	132.31
619.429	131.31
619.637	123.31
619.844	137.31
620.051	125.31
620.258	131.31
620.466	127.31
620.673	121.31
620.88	113.31
621.087	119.31
621.294	118.31
621.501	128.31
621.708	129.31
621.915	121.31
622.122	119.31
622.329	113.31
622.536	118.31
622.743	120.31
622.95	117.31
623.157	122.31
623.364	110.31
623.571	118.31
623.778	124.31
623.985	122.31
624.192	126.31
624.399	132.31
624.606	124.31
624.812	109.31
625.019	125.31
625.226	117.31
625.433	132.31
625.639	116.31
625.846	120.31
626.053	134.31
626.259	128.31
626.466	124.31
626.673	119.31
626.879	126.31
627.086	122.31
627.293	114.31
627.499	116.31
627.706	143.31
627.912	119.31
628.119	114.31
628.325	115.31
628.532	135.31
628.738	122.31
628.945	118.31
629.151	120.31
629.357	111.31
629.564	118.31
629.77	118.31
629.976	119.31
630.183	112.31
630.389	122.31
630.595	110.31
630.802	112.31
631.008	118.31
631.214	106.31
631.42	101.31
631.627	117.31
631.833	110.31
632.039	111.31
632.245	111.31
632.451	105.31
632.657	130.31
632.863	116.31
633.069	119.31
633.275	104.31
633.481	114.31
633.688	108.31
633.893	125.31
634.099	122.31
634.305	102.31
634.511	116.31
634.717	114.31
634.923	118.31
635.129	117.31
635.335	110.31
635.541	106.31
635.747	112.31
635.952	124.31
636.158	106.31
636.364	119.31
636.57	113.31
636.775	108.31
636.981	117.31
637.187	116.31
637.392	117.31
637.598	116.31
637.804	109.31
638.009	106.31
638.215	109.31
638.421	100.31
638.626	112.31
638.832	118.31
639.037	132.31
639.243	114.31
639.448	107.31
639.654	114.31
639.859	104.31
640.065	111.31
640.27	118.31
640.475	95.31
640.681	109.31
640.886	109.31
641.091	114.31
641.297	103.31
641.502	110.31
641.707	108.31
641.913	97.31
642.118	99.31
642.323	113.31
642.528	118.31
642.733	103.31
642.939	111.31
643.144	112.31
643.349	104.31
643.554	105.31
643.759	98.31
643.964	95.31
644.169	104.31
644.374	122.31
644.579	104.31
644.784	104.31
644.989	103.31
645.194	118.31
645.399	96.31
645.604	102.31
645.809	101.31
646.014	112.31
646.219	102.31
646.423	113.31
646.628	113.31
646.833	121.31
647.038	119.31
647.243	112.31
647.447	112.31
647.652	119.31
647.857	119.31
648.062	118.31
648.266	99.31
648.471	107.31
648.676	117.31
648.88	117.31
649.085	104.31
649.289	107.31
649.494	109.31
649.698	99.31
649.903	119.31
650.107	105.31
650.312	106.31
650.516	104.31
650.721	105.31
650.925	103.31
651.13	88.31
651.334	128.31
651.539	116.31
651.743	101.31
651.947	97.31
652.152	109.31
652.356	95.31
652.56	106.31
652.764	109.31
652.969	104.31
653.173	94.31
653.377	83.31
653.581	91.31
653.785	105.31
653.99	110.31
654.194	103.31
654.398	109.31
654.602	111.31
654.806	96.31
655.01	100.31
655.214	89.31
655.418	95.31
655.622	88.31
655.826	98.31
656.03	97.31
656.234	112.31
656.438	103.31
656.642	107.31
656.846	98.31
657.049	94.31
657.253	104.31
657.457	92.31
657.661	101.31
657.865	89.31
658.068	91.31
658.272	96.31
658.476	93.31
658.68	76.31
658.883	101.31
659.087	85.31
659.291	77.31
659.494	83.31
659.698	85.31
659.901	81.31
660.105	77.31
660.309	72.31
660.512	70.31
660.716	80.31
660.919	92.31
661.123	101.31
661.326	94.31
661.53	80.31
661.733	80.31
661.936	77.31
662.14	78.31
662.343	77.31
662.546	89.31
662.75	85.31
662.953	78.31
663.156	71.31
663.36	80.31
663.563	80.31
663.766	73.31
663.969	84.31
664.173	75.31
664.376	71.31
664.579	88.31
664.782	86.31
664.985	77.31
665.188	83.31
665.391	85.31
665.594	71.31
665.797	74.31
666	74.31
666.203	84.31
666.406	75.31
666.609	87.31
666.812	88.31
667.015	73.31
667.218	76.31
667.421	72.31
667.624	61.31
667.827	73.31
668.03	71.31
668.232	73.31
668.435	83.31
668.638	82.31
668.841	70.31
669.043	85.31
669.246	86.31
669.449	87.31
669.651	89.31
669.854	63.31
670.057	80.31
670.259	83.31
670.462	83.31
670.665	71.31
670.867	72.31
671.07	74.31
671.272	74.31
671.475	87.31
671.677	88.31
671.88	83.31
672.082	71.31
672.284	70.31
672.487	81.31
672.689	87.31
672.892	85.31
