Data from 0.5MCu(NO3)2.Standard.Lamp.E10.CV._HRD10591_16-06-01-754.txt Node
Date: Mon Jul 22 16:06:01 EDT 2019
User: cochatt
Spectrometer: HR+D1059
Trigger mode: 1
Integration Time (sec): 1.000000E-1
Scans to average: 1
Electric dark correction enabled: true
Nonlinearity correction enabled: false
Boxcar width: 0
XAxis mode: Wavelengths
Number of Pixels in Spectrum: 2048
>>>>>Begin Spectral Data<<<<<
223.165	-8.69
223.4	-8.69
223.635	-8.69
223.869	-30.69
224.104	-17.69
224.338	-16.69
224.573	-21.69
224.808	-13.69
225.042	-8.69
225.277	-7.69
225.511	-1.69
225.746	9.31
225.98	2.31
226.215	-5.69
226.449	23.31
226.683	34.31
226.918	28.31
227.152	35.31
227.387	42.31
227.621	35.31
227.856	54.31
228.09	49.31
228.324	58.31
228.559	61.31
228.793	61.31
229.027	47.31
229.262	65.31
229.496	74.31
229.73	82.31
229.964	72.31
230.199	85.31
230.433	83.31
230.667	98.31
230.901	74.31
231.136	74.31
231.37	76.31
231.604	83.31
231.838	88.31
232.072	92.31
232.306	75.31
232.541	90.31
232.775	80.31
233.009	81.31
233.243	84.31
233.477	87.31
233.711	86.31
233.945	77.31
234.179	69.31
234.413	93.31
234.647	96.31
234.881	77.31
235.115	84.31
235.349	75.31
235.583	92.31
235.817	90.31
236.051	83.31
236.285	92.31
236.519	92.31
236.753	87.31
236.987	93.31
237.221	77.31
237.455	87.31
237.689	88.31
237.922	76.31
238.156	83.31
238.39	89.31
238.624	78.31
238.858	80.31
239.091	81.31
239.325	84.31
239.559	89.31
239.793	74.31
240.027	103.31
240.26	88.31
240.494	94.31
240.728	90.31
240.961	97.31
241.195	96.31
241.429	95.31
241.662	78.31
241.896	90.31
242.13	86.31
242.363	93.31
242.597	84.31
242.83	93.31
243.064	76.31
243.298	90.31
243.531	79.31
243.765	87.31
243.998	95.31
244.232	90.31
244.465	92.31
244.699	90.31
244.932	96.31
245.166	97.31
245.399	97.31
245.633	103.31
245.866	91.31
246.099	96.31
246.333	93.31
246.566	85.31
246.8	90.31
247.033	108.31
247.266	87.31
247.5	83.31
247.733	81.31
247.966	106.31
248.2	104.31
248.433	104.31
248.666	104.31
248.899	76.31
249.133	92.31
249.366	98.31
249.599	95.31
249.832	93.31
250.066	101.31
250.299	105.31
250.532	100.31
250.765	102.31
250.998	110.31
251.231	101.31
251.465	108.31
251.698	100.31
251.931	102.31
252.164	87.31
252.397	108.31
252.63	108.31
252.863	103.31
253.096	84.31
253.329	108.31
253.562	109.31
253.795	117.31
254.028	99.31
254.261	116.31
254.494	118.31
254.727	90.31
254.96	105.31
255.193	109.31
255.426	125.31
255.659	107.31
255.892	103.31
256.124	92.31
256.357	110.31
256.59	101.31
256.823	118.31
257.056	108.31
257.289	111.31
257.521	100.31
257.754	113.31
257.987	103.31
258.22	119.31
258.452	118.31
258.685	102.31
258.918	116.31
259.151	129.31
259.383	126.31
259.616	93.31
259.849	87.31
260.081	120.31
260.314	101.31
260.547	98.31
260.779	119.31
261.012	117.31
261.244	103.31
261.477	112.31
261.71	102.31
261.942	111.31
262.175	116.31
262.407	114.31
262.64	118.31
262.872	107.31
263.105	112.31
263.337	122.31
263.57	117.31
263.802	118.31
264.035	120.31
264.267	119.31
264.499	114.31
264.732	111.31
264.964	118.31
265.197	120.31
265.429	117.31
265.661	108.31
265.894	114.31
266.126	126.31
266.358	122.31
266.591	122.31
266.823	105.31
267.055	124.31
267.287	127.31
267.52	126.31
267.752	121.31
267.984	115.31
268.216	117.31
268.448	110.31
268.681	138.31
268.913	120.31
269.145	131.31
269.377	137.31
269.609	117.31
269.841	139.31
270.073	141.31
270.306	125.31
270.538	113.31
270.77	116.31
271.002	116.31
271.234	120.31
271.466	129.31
271.698	119.31
271.93	136.31
272.162	111.31
272.394	132.31
272.626	132.31
272.858	125.31
273.09	132.31
273.322	135.31
273.553	124.31
273.785	137.31
274.017	128.31
274.249	126.31
274.481	131.31
274.713	132.31
274.945	143.31
275.176	116.31
275.408	145.31
275.64	138.31
275.872	137.31
276.104	127.31
276.335	136.31
276.567	121.31
276.799	143.31
277.031	152.31
277.262	134.31
277.494	146.31
277.726	132.31
277.957	129.31
278.189	146.31
278.421	137.31
278.652	138.31
278.884	146.31
279.115	133.31
279.347	143.31
279.579	140.31
279.81	132.31
280.042	130.31
280.273	149.31
280.505	130.31
280.736	120.31
280.968	143.31
281.199	138.31
281.431	142.31
281.662	141.31
281.894	144.31
282.125	153.31
282.356	134.31
282.588	151.31
282.819	147.31
283.051	144.31
283.282	153.31
283.513	138.31
283.745	139.31
283.976	137.31
284.207	128.31
284.439	154.31
284.67	148.31
284.901	153.31
285.132	136.31
285.364	148.31
285.595	150.31
285.826	138.31
286.057	157.31
286.288	146.31
286.52	138.31
286.751	154.31
286.982	147.31
287.213	139.31
287.444	149.31
287.675	141.31
287.906	145.31
288.138	146.31
288.369	148.31
288.6	153.31
288.831	150.31
289.062	153.31
289.293	150.31
289.524	153.31
289.755	150.31
289.986	165.31
290.217	142.31
290.448	159.31
290.679	158.31
290.91	150.31
291.141	164.31
291.371	148.31
291.602	156.31
291.833	152.31
292.064	156.31
292.295	155.31
292.526	161.31
292.757	156.31
292.987	158.31
293.218	177.31
293.449	160.31
293.68	155.31
293.91	159.31
294.141	170.31
294.372	159.31
294.603	158.31
294.833	165.31
295.064	159.31
295.295	160.31
295.525	159.31
295.756	161.31
295.987	160.31
296.217	172.31
296.448	161.31
296.679	163.31
296.909	163.31
297.14	172.31
297.37	162.31
297.601	161.31
297.831	157.31
298.062	166.31
298.292	174.31
298.523	170.31
298.753	179.31
298.984	170.31
299.214	153.31
299.445	163.31
299.675	156.31
299.905	155.31
300.136	170.31
300.366	163.31
300.597	178.31
300.827	168.31
301.057	178.31
301.288	169.31
301.518	185.31
301.748	172.31
301.979	173.31
302.209	196.31
302.439	187.31
302.669	168.31
302.9	165.31
303.13	180.31
303.36	153.31
303.59	153.31
303.82	161.31
304.051	167.31
304.281	177.31
304.511	167.31
304.741	178.31
304.971	172.31
305.201	182.31
305.431	165.31
305.661	166.31
305.891	174.31
306.121	173.31
306.352	167.31
306.582	164.31
306.812	162.31
307.042	164.31
307.272	166.31
307.502	158.31
307.731	165.31
307.961	177.31
308.191	168.31
308.421	171.31
308.651	166.31
308.881	152.31
309.111	174.31
309.341	173.31
309.571	176.31
309.8	204.31
310.03	165.31
310.26	168.31
310.49	177.31
310.72	150.31
310.949	174.31
311.179	166.31
311.409	181.31
311.639	176.31
311.868	180.31
312.098	188.31
312.328	174.31
312.557	177.31
312.787	173.31
313.017	169.31
313.246	172.31
313.476	166.31
313.706	174.31
313.935	174.31
314.165	185.31
314.394	177.31
314.624	182.31
314.853	185.31
315.083	179.31
315.312	185.31
315.542	161.31
315.771	166.31
316.001	180.31
316.23	172.31
316.46	168.31
316.689	168.31
316.919	162.31
317.148	183.31
317.377	178.31
317.607	170.31
317.836	172.31
318.065	176.31
318.295	161.31
318.524	175.31
318.753	164.31
318.983	163.31
319.212	184.31
319.441	159.31
319.67	172.31
319.9	153.31
320.129	170.31
320.358	175.31
320.587	166.31
320.816	162.31
321.046	170.31
321.275	181.31
321.504	165.31
321.733	172.31
321.962	169.31
322.191	172.31
322.42	172.31
322.649	169.31
322.878	167.31
323.108	180.31
323.337	188.31
323.566	167.31
323.795	176.31
324.024	180.31
324.253	166.31
324.482	189.31
324.71	169.31
324.939	179.31
325.168	193.31
325.397	193.31
325.626	182.31
325.855	168.31
326.084	176.31
326.313	191.31
326.542	181.31
326.77	191.31
326.999	185.31
327.228	163.31
327.457	185.31
327.686	188.31
327.914	177.31
328.143	195.31
328.372	190.31
328.6	185.31
328.829	178.31
329.058	177.31
329.287	196.31
329.515	188.31
329.744	183.31
329.972	195.31
330.201	200.31
330.43	182.31
330.658	202.31
330.887	190.31
331.115	194.31
331.344	189.31
331.572	193.31
331.801	193.31
332.03	187.31
332.258	209.31
332.486	205.31
332.715	221.31
332.943	218.31
333.172	227.31
333.4	239.31
333.629	244.31
333.857	236.31
334.085	239.31
334.314	216.31
334.542	202.31
334.771	221.31
334.999	220.31
335.227	212.31
335.455	214.31
335.684	216.31
335.912	214.31
336.14	210.31
336.369	217.31
336.597	208.31
336.825	220.31
337.053	227.31
337.281	223.31
337.51	203.31
337.738	205.31
337.966	200.31
338.194	194.31
338.422	196.31
338.65	207.31
338.878	201.31
339.106	192.31
339.334	198.31
339.562	176.31
339.79	180.31
340.018	201.31
340.246	179.31
340.474	192.31
340.702	187.31
340.93	192.31
341.158	197.31
341.386	183.31
341.614	198.31
341.842	193.31
342.07	192.31
342.298	182.31
342.526	197.31
342.754	188.31
342.981	188.31
343.209	200.31
343.437	192.31
343.665	211.31
343.893	209.31
344.12	225.31
344.348	230.31
344.576	204.31
344.804	202.31
345.031	190.31
345.259	194.31
345.487	197.31
345.714	180.31
345.942	198.31
346.17	178.31
346.397	191.31
346.625	206.31
346.853	187.31
347.08	198.31
347.308	196.31
347.535	176.31
347.763	201.31
347.99	185.31
348.218	199.31
348.445	181.31
348.673	201.31
348.9	196.31
349.128	195.31
349.355	187.31
349.583	185.31
349.81	180.31
350.037	192.31
350.265	182.31
350.492	189.31
350.72	188.31
350.947	182.31
351.174	169.31
351.402	190.31
351.629	176.31
351.856	165.31
352.083	165.31
352.311	176.31
352.538	174.31
352.765	178.31
352.992	189.31
353.22	190.31
353.447	196.31
353.674	173.31
353.901	194.31
354.128	180.31
354.355	184.31
354.583	189.31
354.81	180.31
355.037	173.31
355.264	183.31
355.491	182.31
355.718	184.31
355.945	188.31
356.172	183.31
356.399	180.31
356.626	182.31
356.853	177.31
357.08	188.31
357.307	189.31
357.534	173.31
357.761	169.31
357.988	163.31
358.215	179.31
358.441	173.31
358.668	177.31
358.895	177.31
359.122	192.31
359.349	167.31
359.576	198.31
359.802	185.31
360.029	197.31
360.256	185.31
360.483	179.31
360.709	172.31
360.936	184.31
361.163	164.31
361.39	179.31
361.616	166.31
361.843	172.31
362.07	173.31
362.296	173.31
362.523	193.31
362.749	191.31
362.976	175.31
363.203	165.31
363.429	174.31
363.656	193.31
363.882	184.31
364.109	181.31
364.335	202.31
364.562	177.31
364.788	176.31
365.015	191.31
365.241	172.31
365.468	172.31
365.694	164.31
365.92	173.31
366.147	189.31
366.373	169.31
366.599	173.31
366.826	169.31
367.052	193.31
367.278	184.31
367.505	184.31
367.731	196.31
367.957	181.31
368.184	153.31
368.41	178.31
368.636	166.31
368.862	182.31
369.089	181.31
369.315	174.31
369.541	184.31
369.767	199.31
369.993	195.31
370.219	169.31
370.445	192.31
370.672	191.31
370.898	186.31
371.124	192.31
371.35	211.31
371.576	194.31
371.802	181.31
372.028	166.31
372.254	180.31
372.48	193.31
372.706	195.31
372.932	194.31
373.158	191.31
373.384	194.31
373.61	205.31
373.835	199.31
374.061	200.31
374.287	206.31
374.513	194.31
374.739	191.31
374.965	187.31
375.191	194.31
375.416	211.31
375.642	197.31
375.868	194.31
376.094	194.31
376.319	192.31
376.545	196.31
376.771	195.31
376.997	187.31
377.222	193.31
377.448	193.31
377.674	181.31
377.899	191.31
378.125	178.31
378.35	177.31
378.576	184.31
378.802	207.31
379.027	175.31
379.253	192.31
379.478	196.31
379.704	198.31
379.929	182.31
380.155	185.31
380.38	176.31
380.606	177.31
380.831	173.31
381.057	180.31
381.282	194.31
381.507	197.31
381.733	178.31
381.958	180.31
382.184	190.31
382.409	197.31
382.634	197.31
382.86	189.31
383.085	208.31
383.31	195.31
383.535	206.31
383.761	206.31
383.986	199.31
384.211	210.31
384.436	213.31
384.662	213.31
384.887	228.31
385.112	209.31
385.337	205.31
385.562	222.31
385.787	202.31
386.013	224.31
386.238	226.31
386.463	208.31
386.688	230.31
386.913	217.31
387.138	202.31
387.363	221.31
387.588	220.31
387.813	203.31
388.038	222.31
388.263	204.31
388.488	225.31
388.713	204.31
388.938	216.31
389.163	209.31
389.387	224.31
389.612	216.31
389.837	209.31
390.062	202.31
390.287	200.31
390.512	210.31
390.736	204.31
390.961	201.31
391.186	194.31
391.411	217.31
391.636	233.31
391.86	233.31
392.085	249.31
392.31	254.31
392.534	225.31
392.759	226.31
392.984	225.31
393.208	215.31
393.433	230.31
393.658	233.31
393.882	206.31
394.107	232.31
394.331	228.31
394.556	235.31
394.78	227.31
395.005	219.31
395.229	223.31
395.454	232.31
395.678	225.31
395.903	245.31
396.127	220.31
396.352	230.31
396.576	229.31
396.801	227.31
397.025	232.31
397.249	244.31
397.474	231.31
397.698	245.31
397.922	238.31
398.147	231.31
398.371	234.31
398.595	246.31
398.82	229.31
399.044	277.31
399.268	281.31
399.492	334.31
399.717	385.31
399.941	378.31
400.165	310.31
400.389	282.31
400.613	266.31
400.837	262.31
401.062	224.31
401.286	250.31
401.51	236.31
401.734	247.31
401.958	238.31
402.182	262.31
402.406	247.31
402.63	246.31
402.854	253.31
403.078	272.31
403.302	280.31
403.526	276.31
403.75	291.31
403.974	280.31
404.198	287.31
404.422	289.31
404.645	292.31
404.869	291.31
405.093	270.31
405.317	273.31
405.541	278.31
405.765	271.31
405.988	283.31
406.212	257.31
406.436	264.31
406.66	267.31
406.883	269.31
407.107	303.31
407.331	326.31
407.555	323.31
407.778	308.31
408.002	316.31
408.226	295.31
408.449	278.31
408.673	283.31
408.896	268.31
409.12	292.31
409.344	281.31
409.567	291.31
409.791	279.31
410.014	269.31
410.238	274.31
410.461	269.31
410.685	285.31
410.908	278.31
411.132	287.31
411.355	257.31
411.578	263.31
411.802	277.31
412.025	256.31
412.249	269.31
412.472	267.31
412.695	261.31
412.919	248.31
413.142	233.31
413.365	266.31
413.589	261.31
413.812	249.31
414.035	253.31
414.258	246.31
414.482	257.31
414.705	247.31
414.928	258.31
415.151	253.31
415.374	256.31
415.597	236.31
415.821	228.31
416.044	247.31
416.267	242.31
416.49	240.31
416.713	245.31
416.936	255.31
417.159	259.31
417.382	230.31
417.605	258.31
417.828	248.31
418.051	246.31
418.274	257.31
418.497	232.31
418.72	258.31
418.943	258.31
419.166	268.31
419.389	271.31
419.611	251.31
419.834	254.31
420.057	260.31
420.28	245.31
420.503	255.31
420.726	255.31
420.948	241.31
421.171	271.31
421.394	256.31
421.617	250.31
421.839	262.31
422.062	272.31
422.285	245.31
422.507	248.31
422.73	242.31
422.953	279.31
423.175	268.31
423.398	258.31
423.621	270.31
423.843	261.31
424.066	263.31
424.288	265.31
424.511	282.31
424.733	272.31
424.956	251.31
425.178	240.31
425.401	232.31
425.623	254.31
425.846	246.31
426.068	232.31
426.291	235.31
426.513	245.31
426.735	247.31
426.958	239.31
427.18	227.31
427.402	229.31
427.625	224.31
427.847	238.31
428.069	244.31
428.292	227.31
428.514	222.31
428.736	221.31
428.958	211.31
429.181	218.31
429.403	234.31
429.625	219.31
429.847	223.31
430.069	223.31
430.292	249.31
430.514	210.31
430.736	235.31
430.958	229.31
431.18	219.31
431.402	215.31
431.624	238.31
431.846	228.31
432.068	214.31
432.29	228.31
432.512	238.31
432.734	223.31
432.956	217.31
433.178	220.31
433.4	200.31
433.622	213.31
433.844	221.31
434.066	254.31
434.287	208.31
434.509	239.31
434.731	265.31
434.953	260.31
435.175	256.31
435.397	245.31
435.618	261.31
435.84	218.31
436.062	219.31
436.284	231.31
436.505	215.31
436.727	240.31
436.949	225.31
437.17	227.31
437.392	221.31
437.614	217.31
437.835	205.31
438.057	223.31
438.278	228.31
438.5	230.31
438.721	216.31
438.943	213.31
439.165	214.31
439.386	209.31
439.608	234.31
439.829	212.31
440.05	223.31
440.272	230.31
440.493	242.31
440.715	234.31
440.936	221.31
441.158	236.31
441.379	247.31
441.6	249.31
441.822	256.31
442.043	249.31
442.264	230.31
442.486	245.31
442.707	258.31
442.928	242.31
443.149	246.31
443.371	259.31
443.592	245.31
443.813	241.31
444.034	257.31
444.255	246.31
444.476	258.31
444.698	274.31
444.919	305.31
445.14	360.31
445.361	326.31
445.582	261.31
445.803	265.31
446.024	218.31
446.245	250.31
446.466	244.31
446.687	223.31
446.908	224.31
447.129	209.31
447.35	229.31
447.571	198.31
447.792	208.31
448.013	205.31
448.234	212.31
448.455	232.31
448.675	212.31
448.896	222.31
449.117	214.31
449.338	208.31
449.559	214.31
449.779	220.31
450	195.31
450.221	191.31
450.442	220.31
450.662	225.31
450.883	225.31
451.104	207.31
451.324	218.31
451.545	210.31
451.766	221.31
451.986	221.31
452.207	204.31
452.428	224.31
452.648	224.31
452.869	221.31
453.089	205.31
453.31	186.31
453.53	218.31
453.751	209.31
453.971	209.31
454.192	202.31
454.412	202.31
454.633	206.31
454.853	208.31
455.073	206.31
455.294	227.31
455.514	216.31
455.734	190.31
455.955	197.31
456.175	212.31
456.395	183.31
456.616	199.31
456.836	223.31
457.056	205.31
457.276	201.31
457.497	213.31
457.717	192.31
457.937	212.31
458.157	221.31
458.377	214.31
458.598	192.31
458.818	212.31
459.038	219.31
459.258	224.31
459.478	242.31
459.698	236.31
459.918	228.31
460.138	240.31
460.358	258.31
460.578	251.31
460.798	274.31
461.018	272.31
461.238	255.31
461.458	249.31
461.678	264.31
461.898	234.31
462.118	238.31
462.338	297.31
462.558	289.31
462.777	277.31
462.997	307.31
463.217	334.31
463.437	341.31
463.657	316.31
463.876	318.31
464.096	297.31
464.316	305.31
464.536	300.31
464.755	292.31
464.975	284.31
465.195	272.31
465.414	261.31
465.634	239.31
465.854	253.31
466.073	229.31
466.293	234.31
466.512	237.31
466.732	232.31
466.951	236.31
467.171	231.31
467.391	218.31
467.61	212.31
467.829	218.31
468.049	220.31
468.268	237.31
468.488	201.31
468.707	187.31
468.927	225.31
469.146	212.31
469.365	233.31
469.585	209.31
469.804	225.31
470.023	217.31
470.243	231.31
470.462	229.31
470.681	231.31
470.901	228.31
471.12	230.31
471.339	230.31
471.558	235.31
471.777	219.31
471.997	229.31
472.216	209.31
472.435	214.31
472.654	218.31
472.873	198.31
473.092	211.31
473.311	215.31
473.53	221.31
473.749	215.31
473.968	205.31
474.187	216.31
474.406	210.31
474.625	221.31
474.844	207.31
475.063	218.31
475.282	215.31
475.501	218.31
475.72	221.31
475.939	220.31
476.158	228.31
476.377	225.31
476.596	226.31
476.814	221.31
477.033	212.31
477.252	224.31
477.471	224.31
477.69	225.31
477.908	238.31
478.127	236.31
478.346	254.31
478.564	251.31
478.783	248.31
479.002	247.31
479.22	261.31
479.439	272.31
479.658	258.31
479.876	280.31
480.095	243.31
480.313	261.31
480.532	268.31
480.751	285.31
480.969	263.31
481.188	261.31
481.406	233.31
481.624	247.31
481.843	242.31
482.061	234.31
482.28	238.31
482.498	233.31
482.717	250.31
482.935	245.31
483.153	241.31
483.372	252.31
483.59	234.31
483.808	242.31
484.027	254.31
484.245	267.31
484.463	245.31
484.681	257.31
484.9	253.31
485.118	255.31
485.336	261.31
485.554	254.31
485.772	268.31
485.99	261.31
486.209	264.31
486.427	246.31
486.645	265.31
486.863	264.31
487.081	266.31
487.299	260.31
487.517	257.31
487.735	256.31
487.953	258.31
488.171	266.31
488.389	261.31
488.607	266.31
488.825	236.31
489.043	246.31
489.261	237.31
489.479	266.31
489.696	259.31
489.914	260.31
490.132	260.31
490.35	255.31
490.568	249.31
490.786	250.31
491.003	257.31
491.221	251.31
491.439	269.31
491.657	264.31
491.874	264.31
492.092	239.31
492.31	280.31
492.527	258.31
492.745	265.31
492.963	276.31
493.18	268.31
493.398	263.31
493.615	272.31
493.833	263.31
494.05	259.31
494.268	246.31
494.485	263.31
494.703	269.31
494.92	267.31
495.138	263.31
495.355	258.31
495.573	267.31
495.79	273.31
496.008	280.31
496.225	275.31
496.442	284.31
496.66	266.31
496.877	269.31
497.094	278.31
497.312	296.31
497.529	308.31
497.746	294.31
497.963	280.31
498.181	316.31
498.398	324.31
498.615	327.31
498.832	372.31
499.049	382.31
499.267	406.31
499.484	433.31
499.701	473.31
499.918	520.31
500.135	608.31
500.352	681.31
500.569	716.31
500.786	726.31
501.003	684.31
501.22	599.31
501.437	502.31
501.654	458.31
501.871	407.31
502.088	371.31
502.305	376.31
502.522	357.31
502.739	334.31
502.956	322.31
503.172	336.31
503.389	300.31
503.606	307.31
503.823	300.31
504.04	298.31
504.256	311.31
504.473	319.31
504.69	329.31
504.907	310.31
505.123	274.31
505.34	257.31
505.557	271.31
505.773	266.31
505.99	260.31
506.207	252.31
506.423	258.31
506.64	254.31
506.856	248.31
507.073	244.31
507.289	254.31
507.506	248.31
507.722	240.31
507.939	248.31
508.155	252.31
508.372	238.31
508.588	232.31
508.805	250.31
509.021	244.31
509.238	241.31
509.454	242.31
509.67	226.31
509.887	238.31
510.103	234.31
510.319	225.31
510.536	226.31
510.752	226.31
510.968	227.31
511.184	242.31
511.401	221.31
511.617	230.31
511.833	215.31
512.049	231.31
512.265	239.31
512.481	230.31
512.698	231.31
512.914	234.31
513.13	230.31
513.346	228.31
513.562	244.31
513.778	224.31
513.994	241.31
514.21	232.31
514.426	235.31
514.642	237.31
514.858	243.31
515.074	224.31
515.29	233.31
515.506	242.31
515.721	241.31
515.937	241.31
516.153	255.31
516.369	244.31
516.585	260.31
516.801	271.31
517.016	265.31
517.232	280.31
517.448	314.31
517.664	313.31
517.879	300.31
518.095	300.31
518.311	323.31
518.527	293.31
518.742	290.31
518.958	252.31
519.173	245.31
519.389	243.31
519.605	234.31
519.82	243.31
520.036	230.31
520.251	223.31
520.467	243.31
520.682	230.31
520.898	218.31
521.113	245.31
521.329	240.31
521.544	221.31
521.76	224.31
521.975	220.31
522.19	233.31
522.406	201.31
522.621	230.31
522.836	228.31
523.052	210.31
523.267	217.31
523.482	223.31
523.698	213.31
523.913	208.31
524.128	230.31
524.343	217.31
524.559	216.31
524.774	246.31
524.989	239.31
525.204	233.31
525.419	230.31
525.634	222.31
525.849	222.31
526.064	215.31
526.28	208.31
526.495	208.31
526.71	215.31
526.925	207.31
527.14	211.31
527.355	206.31
527.57	226.31
527.785	206.31
527.999	206.31
528.214	210.31
528.429	218.31
528.644	231.31
528.859	213.31
529.074	236.31
529.289	212.31
529.503	209.31
529.718	229.31
529.933	215.31
530.148	220.31
530.363	227.31
530.577	214.31
530.792	221.31
531.007	212.31
531.221	202.31
531.436	220.31
531.651	222.31
531.865	215.31
532.08	207.31
532.295	214.31
532.509	226.31
532.724	221.31
532.938	237.31
533.153	224.31
533.367	204.31
533.582	209.31
533.796	217.31
534.011	216.31
534.225	222.31
534.44	217.31
534.654	201.31
534.868	208.31
535.083	214.31
535.297	221.31
535.511	211.31
535.726	198.31
535.94	202.31
536.154	221.31
536.369	207.31
536.583	208.31
536.797	216.31
537.011	216.31
537.225	204.31
537.44	213.31
537.654	201.31
537.868	218.31
538.082	213.31
538.296	197.31
538.51	193.31
538.724	179.31
538.938	215.31
539.153	210.31
539.367	217.31
539.581	205.31
539.795	194.31
540.009	203.31
540.222	219.31
540.436	198.31
540.65	199.31
540.864	200.31
541.078	190.31
541.292	221.31
541.506	206.31
541.72	230.31
541.934	205.31
542.147	198.31
542.361	202.31
542.575	207.31
542.789	198.31
543.002	208.31
543.216	210.31
543.43	205.31
543.644	200.31
543.857	194.31
544.071	219.31
544.285	202.31
544.498	231.31
544.712	191.31
544.925	213.31
545.139	222.31
545.352	202.31
545.566	216.31
545.779	207.31
545.993	219.31
546.206	213.31
546.42	220.31
546.633	216.31
546.847	210.31
547.06	229.31
547.274	206.31
547.487	209.31
547.7	196.31
547.914	213.31
548.127	216.31
548.34	208.31
548.554	223.31
548.767	215.31
548.98	199.31
549.193	217.31
549.407	213.31
549.62	224.31
549.833	239.31
550.046	196.31
550.259	197.31
550.473	201.31
550.686	207.31
550.899	210.31
551.112	197.31
551.325	208.31
551.538	193.31
551.751	201.31
551.964	209.31
552.177	215.31
552.39	209.31
552.603	221.31
552.816	213.31
553.029	227.31
553.242	221.31
553.455	231.31
553.667	221.31
553.88	240.31
554.093	211.31
554.306	226.31
554.519	226.31
554.732	213.31
554.944	222.31
555.157	202.31
555.37	212.31
555.583	206.31
555.795	199.31
556.008	201.31
556.221	203.31
556.433	186.31
556.646	183.31
556.859	214.31
557.071	196.31
557.284	179.31
557.496	186.31
557.709	199.31
557.921	189.31
558.134	192.31
558.346	192.31
558.559	188.31
558.771	190.31
558.984	179.31
559.196	195.31
559.409	193.31
559.621	180.31
559.833	181.31
560.046	206.31
560.258	189.31
560.47	192.31
560.683	180.31
560.895	192.31
561.107	195.31
561.32	191.31
561.532	192.31
561.744	201.31
561.956	199.31
562.168	172.31
562.381	172.31
562.593	176.31
562.805	183.31
563.017	177.31
563.229	173.31
563.441	182.31
563.653	203.31
563.865	200.31
564.077	190.31
564.289	200.31
564.501	186.31
564.713	187.31
564.925	189.31
565.137	203.31
565.349	190.31
565.561	209.31
565.773	229.31
565.985	227.31
566.197	224.31
566.408	242.31
566.62	264.31
566.832	267.31
567.044	275.31
567.255	262.31
567.467	274.31
567.679	274.31
567.891	309.31
568.102	340.31
568.314	313.31
568.526	306.31
568.737	258.31
568.949	247.31
569.161	232.31
569.372	212.31
569.584	203.31
569.795	201.31
570.007	192.31
570.218	200.31
570.43	196.31
570.641	185.31
570.853	210.31
571.064	181.31
571.276	182.31
571.487	206.31
571.698	196.31
571.91	182.31
572.121	177.31
572.333	174.31
572.544	173.31
572.755	162.31
572.966	176.31
573.178	172.31
573.389	183.31
573.6	161.31
573.811	160.31
574.023	164.31
574.234	169.31
574.445	166.31
574.656	162.31
574.867	160.31
575.078	166.31
575.289	167.31
575.501	168.31
575.712	149.31
575.923	164.31
576.134	170.31
576.345	153.31
576.556	161.31
576.767	145.31
576.978	169.31
577.188	154.31
577.399	162.31
577.61	167.31
577.821	161.31
578.032	160.31
578.243	182.31
578.454	145.31
578.665	157.31
578.875	162.31
579.086	160.31
579.297	152.31
579.508	172.31
579.718	157.31
579.929	164.31
580.14	162.31
580.35	162.31
580.561	155.31
580.772	161.31
580.982	166.31
581.193	154.31
581.403	154.31
581.614	160.31
581.825	148.31
582.035	154.31
582.246	154.31
582.456	160.31
582.667	153.31
582.877	156.31
583.087	157.31
583.298	153.31
583.508	133.31
583.719	182.31
583.929	147.31
584.139	156.31
584.35	143.31
584.56	147.31
584.77	154.31
584.981	161.31
585.191	154.31
585.401	157.31
585.611	152.31
585.821	154.31
586.032	146.31
586.242	148.31
586.452	152.31
586.662	163.31
586.872	149.31
587.082	142.31
587.292	151.31
587.502	152.31
587.713	150.31
587.923	148.31
588.133	151.31
588.343	140.31
588.553	150.31
588.762	151.31
588.972	134.31
589.182	140.31
589.392	152.31
589.602	151.31
589.812	146.31
590.022	166.31
590.232	134.31
590.441	143.31
590.651	153.31
590.861	149.31
591.071	142.31
591.281	151.31
591.49	152.31
591.7	147.31
591.91	149.31
592.119	168.31
592.329	166.31
592.539	174.31
592.748	165.31
592.958	174.31
593.167	193.31
593.377	180.31
593.587	187.31
593.796	182.31
594.006	182.31
594.215	199.31
594.424	190.31
594.634	189.31
594.843	169.31
595.053	188.31
595.262	161.31
595.472	177.31
595.681	156.31
595.89	169.31
596.1	151.31
596.309	155.31
596.518	142.31
596.727	140.31
596.937	136.31
597.146	144.31
597.355	148.31
597.564	138.31
597.774	162.31
597.983	134.31
598.192	147.31
598.401	139.31
598.61	146.31
598.819	146.31
599.028	132.31
599.237	138.31
599.446	137.31
599.655	134.31
599.864	138.31
600.073	151.31
600.282	135.31
600.491	127.31
600.7	134.31
600.909	137.31
601.118	128.31
601.327	142.31
601.536	145.31
601.745	128.31
601.953	131.31
602.162	146.31
602.371	135.31
602.58	132.31
602.789	142.31
602.997	142.31
603.206	137.31
603.415	134.31
603.623	134.31
603.832	142.31
604.041	129.31
604.249	134.31
604.458	133.31
604.666	134.31
604.875	127.31
605.084	119.31
605.292	121.31
605.501	142.31
605.709	151.31
605.918	144.31
606.126	139.31
606.334	138.31
606.543	130.31
606.751	135.31
606.96	133.31
607.168	145.31
607.376	133.31
607.585	135.31
607.793	138.31
608.001	123.31
608.21	133.31
608.418	129.31
608.626	126.31
608.834	140.31
609.043	134.31
609.251	133.31
609.459	133.31
609.667	152.31
609.875	121.31
610.083	138.31
610.291	139.31
610.499	129.31
610.707	145.31
610.916	142.31
611.124	132.31
611.332	133.31
611.54	130.31
611.748	142.31
611.955	119.31
612.163	137.31
612.371	138.31
612.579	146.31
612.787	133.31
612.995	137.31
613.203	138.31
613.411	126.31
613.618	137.31
613.826	123.31
614.034	121.31
614.242	132.31
614.449	118.31
614.657	121.31
614.865	131.31
615.072	117.31
615.28	131.31
615.488	122.31
615.695	137.31
615.903	133.31
616.111	129.31
616.318	131.31
616.526	138.31
616.733	139.31
616.941	126.31
617.148	151.31
617.356	134.31
617.563	128.31
617.771	129.31
617.978	123.31
618.185	134.31
618.393	136.31
618.6	124.31
618.807	120.31
619.015	132.31
619.222	124.31
619.429	124.31
619.637	146.31
619.844	140.31
620.051	126.31
620.258	122.31
620.466	130.31
620.673	150.31
620.88	136.31
621.087	130.31
621.294	124.31
621.501	124.31
621.708	129.31
621.915	120.31
622.122	112.31
622.329	134.31
622.536	118.31
622.743	123.31
622.95	119.31
623.157	126.31
623.364	127.31
623.571	129.31
623.778	114.31
623.985	116.31
624.192	135.31
624.399	117.31
624.606	114.31
624.812	124.31
625.019	120.31
625.226	109.31
625.433	116.31
625.639	126.31
625.846	135.31
626.053	131.31
626.259	130.31
626.466	132.31
626.673	112.31
626.879	115.31
627.086	121.31
627.293	124.31
627.499	118.31
627.706	126.31
627.912	116.31
628.119	126.31
628.325	125.31
628.532	129.31
628.738	119.31
628.945	115.31
629.151	130.31
629.357	128.31
629.564	117.31
629.77	127.31
629.976	113.31
630.183	112.31
630.389	114.31
630.595	115.31
630.802	116.31
631.008	119.31
631.214	116.31
631.42	118.31
631.627	117.31
631.833	104.31
632.039	119.31
632.245	113.31
632.451	117.31
632.657	123.31
632.863	116.31
633.069	124.31
633.275	122.31
633.481	128.31
633.688	115.31
633.893	118.31
634.099	118.31
634.305	110.31
634.511	122.31
634.717	117.31
634.923	100.31
635.129	106.31
635.335	115.31
635.541	102.31
635.747	120.31
635.952	116.31
636.158	115.31
636.364	104.31
636.57	118.31
636.775	110.31
636.981	115.31
637.187	117.31
637.392	120.31
637.598	115.31
637.804	113.31
638.009	120.31
638.215	119.31
638.421	116.31
638.626	113.31
638.832	108.31
639.037	110.31
639.243	108.31
639.448	115.31
639.654	114.31
639.859	106.31
640.065	114.31
640.27	121.31
640.475	114.31
640.681	117.31
640.886	110.31
641.091	107.31
641.297	114.31
641.502	96.31
641.707	116.31
641.913	112.31
642.118	105.31
642.323	107.31
642.528	104.31
642.733	113.31
642.939	97.31
643.144	94.31
643.349	103.31
643.554	94.31
643.759	107.31
643.964	103.31
644.169	105.31
644.374	110.31
644.579	97.31
644.784	95.31
644.989	108.31
645.194	90.31
645.399	114.31
645.604	97.31
645.809	112.31
646.014	116.31
646.219	111.31
646.423	100.31
646.628	112.31
646.833	118.31
647.038	129.31
647.243	116.31
647.447	104.31
647.652	117.31
647.857	100.31
648.062	113.31
648.266	108.31
648.471	112.31
648.676	119.31
648.88	118.31
649.085	94.31
649.289	104.31
649.494	128.31
649.698	116.31
649.903	102.31
650.107	110.31
650.312	103.31
650.516	112.31
650.721	107.31
650.925	104.31
651.13	93.31
651.334	99.31
651.539	114.31
651.743	105.31
651.947	98.31
652.152	96.31
652.356	100.31
652.56	113.31
652.764	114.31
652.969	120.31
653.173	96.31
653.377	105.31
653.581	111.31
653.785	95.31
653.99	104.31
654.194	100.31
654.398	103.31
654.602	108.31
654.806	95.31
655.01	100.31
655.214	89.31
655.418	95.31
655.622	100.31
655.826	100.31
656.03	96.31
656.234	113.31
656.438	102.31
656.642	110.31
656.846	103.31
657.049	88.31
657.253	87.31
657.457	102.31
657.661	105.31
657.865	86.31
658.068	85.31
658.272	89.31
658.476	84.31
658.68	96.31
658.883	87.31
659.087	84.31
659.291	71.31
659.494	92.31
659.698	86.31
659.901	74.31
660.105	81.31
660.309	81.31
660.512	77.31
660.716	80.31
660.919	71.31
661.123	92.31
661.326	68.31
661.53	82.31
661.733	80.31
661.936	86.31
662.14	74.31
662.343	76.31
662.546	77.31
662.75	83.31
662.953	83.31
663.156	82.31
663.36	83.31
663.563	72.31
663.766	83.31
663.969	85.31
664.173	73.31
664.376	90.31
664.579	80.31
664.782	79.31
664.985	85.31
665.188	81.31
665.391	86.31
665.594	83.31
665.797	91.31
666	91.31
666.203	83.31
666.406	70.31
666.609	84.31
666.812	78.31
667.015	86.31
667.218	72.31
667.421	88.31
667.624	80.31
667.827	82.31
668.03	89.31
668.232	86.31
668.435	93.31
668.638	80.31
668.841	64.31
669.043	83.31
669.246	88.31
669.449	85.31
669.651	73.31
669.854	77.31
670.057	84.31
670.259	73.31
670.462	87.31
670.665	68.31
670.867	79.31
671.07	71.31
671.272	96.31
671.475	74.31
671.677	71.31
671.88	73.31
672.082	78.31
672.284	87.31
672.487	83.31
672.689	87.31
672.892	81.31
