Data from Fe(NO3)3@0.025M.TitratingCurve.Agarose3%dH2O.NegLispCup.LampEnergy10.LIBS07252019_HRD10591_16-55-31-335.txt Node
Date: Thu Jul 25 16:55:31 EDT 2019
User: cochatt
Spectrometer: HR+D1059
Trigger mode: 1
Integration Time (sec): 1.000000E-1
Scans to average: 1
Electric dark correction enabled: true
Nonlinearity correction enabled: false
Boxcar width: 0
XAxis mode: Wavelengths
Number of Pixels in Spectrum: 2048
>>>>>Begin Spectral Data<<<<<
223.165	-6
223.4	-6
223.635	-6
223.869	-34
224.104	-18
224.338	-19
224.573	-17
224.808	-9
225.042	-1
225.277	-1
225.511	8
225.746	14
225.98	-1
226.215	4
226.449	18
226.683	19
226.918	13
227.152	30
227.387	27
227.621	31
227.856	46
228.09	45
228.324	46
228.559	58
228.793	50
229.027	71
229.262	75
229.496	72
229.73	72
229.964	91
230.199	80
230.433	86
230.667	72
230.901	95
231.136	79
231.37	99
231.604	82
231.838	77
232.072	81
232.306	84
232.541	93
232.775	86
233.009	91
233.243	88
233.477	92
233.711	95
233.945	99
234.179	98
234.413	101
234.647	107
234.881	98
235.115	86
235.349	83
235.583	104
235.817	95
236.051	92
236.285	84
236.519	93
236.753	85
236.987	91
237.221	83
237.455	83
237.689	112
237.922	98
238.156	100
238.39	99
238.624	115
238.858	103
239.091	87
239.325	95
239.559	105
239.793	97
240.027	118
240.26	94
240.494	103
240.728	84
240.961	82
241.195	93
241.429	101
241.662	96
241.896	103
242.13	93
242.363	104
242.597	95
242.83	107
243.064	89
243.298	88
243.531	99
243.765	89
243.998	108
244.232	92
244.465	99
244.699	97
244.932	95
245.166	93
245.399	102
245.633	92
245.866	98
246.099	114
246.333	119
246.566	95
246.8	98
247.033	99
247.266	98
247.5	108
247.733	104
247.966	102
248.2	92
248.433	107
248.666	124
248.899	103
249.133	108
249.366	110
249.599	103
249.832	112
250.066	118
250.299	105
250.532	128
250.765	105
250.998	111
251.231	114
251.465	117
251.698	110
251.931	118
252.164	110
252.397	99
252.63	123
252.863	117
253.096	110
253.329	118
253.562	119
253.795	129
254.028	121
254.261	120
254.494	106
254.727	123
254.96	108
255.193	98
255.426	116
255.659	116
255.892	115
256.124	119
256.357	121
256.59	120
256.823	122
257.056	124
257.289	133
257.521	128
257.754	118
257.987	123
258.22	116
258.452	112
258.685	113
258.918	114
259.151	109
259.383	131
259.616	111
259.849	124
260.081	124
260.314	111
260.547	124
260.779	103
261.012	118
261.244	130
261.477	132
261.71	123
261.942	126
262.175	133
262.407	142
262.64	127
262.872	125
263.105	143
263.337	135
263.57	130
263.802	131
264.035	135
264.267	124
264.499	130
264.732	123
264.964	122
265.197	125
265.429	138
265.661	133
265.894	117
266.126	140
266.358	132
266.591	125
266.823	126
267.055	133
267.287	136
267.52	127
267.752	132
267.984	125
268.216	129
268.448	141
268.681	143
268.913	140
269.145	132
269.377	131
269.609	129
269.841	138
270.073	134
270.306	136
270.538	143
270.77	111
271.002	132
271.234	139
271.466	155
271.698	140
271.93	138
272.162	137
272.394	140
272.626	130
272.858	128
273.09	133
273.322	133
273.553	135
273.785	142
274.017	142
274.249	133
274.481	143
274.713	164
274.945	132
275.176	130
275.408	157
275.64	154
275.872	131
276.104	146
276.335	140
276.567	147
276.799	143
277.031	151
277.262	144
277.494	148
277.726	159
277.957	155
278.189	135
278.421	153
278.652	142
278.884	144
279.115	154
279.347	142
279.579	158
279.81	157
280.042	147
280.273	149
280.505	158
280.736	165
280.968	157
281.199	159
281.431	159
281.662	159
281.894	131
282.125	158
282.356	149
282.588	149
282.819	158
283.051	168
283.282	149
283.513	159
283.745	149
283.976	165
284.207	155
284.439	167
284.67	162
284.901	165
285.132	185
285.364	166
285.595	159
285.826	171
286.057	141
286.288	163
286.52	162
286.751	149
286.982	173
287.213	174
287.444	178
287.675	170
287.906	174
288.138	164
288.369	150
288.6	171
288.831	171
289.062	178
289.293	171
289.524	168
289.755	157
289.986	172
290.217	167
290.448	149
290.679	179
290.91	174
291.141	172
291.371	187
291.602	174
291.833	167
292.064	160
292.295	168
292.526	186
292.757	186
292.987	183
293.218	167
293.449	183
293.68	183
293.91	165
294.141	179
294.372	182
294.603	178
294.833	179
295.064	179
295.295	181
295.525	186
295.756	176
295.987	178
296.217	170
296.448	186
296.679	182
296.909	187
297.14	175
297.37	191
297.601	194
297.831	179
298.062	179
298.292	180
298.523	186
298.753	197
298.984	186
299.214	185
299.445	199
299.675	191
299.905	173
300.136	201
300.366	200
300.597	169
300.827	182
301.057	195
301.288	200
301.518	185
301.748	183
301.979	188
302.209	192
302.439	203
302.669	190
302.9	191
303.13	206
303.36	195
303.59	208
303.82	195
304.051	217
304.281	190
304.511	199
304.741	207
304.971	204
305.201	192
305.431	207
305.661	178
305.891	180
306.121	191
306.352	202
306.582	216
306.812	208
307.042	215
307.272	194
307.502	223
307.731	194
307.961	198
308.191	182
308.421	199
308.651	214
308.881	195
309.111	205
309.341	194
309.571	203
309.8	193
310.03	201
310.26	204
310.49	214
310.72	207
310.949	229
311.179	209
311.409	214
311.639	192
311.868	217
312.098	219
312.328	223
312.557	226
312.787	221
313.017	221
313.246	199
313.476	205
313.706	215
313.935	205
314.165	215
314.394	218
314.624	228
314.853	231
315.083	218
315.312	212
315.542	212
315.771	219
316.001	210
316.23	206
316.46	220
316.689	215
316.919	223
317.148	221
317.377	218
317.607	221
317.836	217
318.065	220
318.295	222
318.524	212
318.753	234
318.983	224
319.212	219
319.441	219
319.67	223
319.9	207
320.129	207
320.358	212
320.587	238
320.816	234
321.046	223
321.275	231
321.504	205
321.733	219
321.962	239
322.191	215
322.42	221
322.649	228
322.878	216
323.108	222
323.337	238
323.566	219
323.795	238
324.024	244
324.253	224
324.482	228
324.71	235
324.939	230
325.168	236
325.397	244
325.626	247
325.855	221
326.084	240
326.313	231
326.542	226
326.77	245
326.999	236
327.228	230
327.457	244
327.686	250
327.914	232
328.143	238
328.372	231
328.6	230
328.829	238
329.058	216
329.287	232
329.515	241
329.744	242
329.972	246
330.201	248
330.43	245
330.658	236
330.887	256
331.115	239
331.344	252
331.572	263
331.801	263
332.03	263
332.258	258
332.486	258
332.715	262
332.943	260
333.172	239
333.4	270
333.629	266
333.857	270
334.085	281
334.314	266
334.542	280
334.771	270
334.999	279
335.227	276
335.455	276
335.684	288
335.912	289
336.14	271
336.369	279
336.597	262
336.825	280
337.053	283
337.281	283
337.51	285
337.738	275
337.966	258
338.194	266
338.422	272
338.65	267
338.878	276
339.106	275
339.334	257
339.562	262
339.79	270
340.018	267
340.246	274
340.474	259
340.702	239
340.93	258
341.158	258
341.386	258
341.614	254
341.842	246
342.07	267
342.298	246
342.526	259
342.754	263
342.981	232
343.209	266
343.437	294
343.665	284
343.893	271
344.12	272
344.348	278
344.576	269
344.804	271
345.031	260
345.259	299
345.487	276
345.714	258
345.942	239
346.17	248
346.397	266
346.625	263
346.853	265
347.08	267
347.308	260
347.535	242
347.763	247
347.99	252
348.218	262
348.445	236
348.673	230
348.9	269
349.128	245
349.355	234
349.583	236
349.81	259
350.037	244
350.265	248
350.492	260
350.72	245
350.947	237
351.174	246
351.402	250
351.629	237
351.856	252
352.083	238
352.311	240
352.538	258
352.765	254
352.992	231
353.22	252
353.447	247
353.674	247
353.901	256
354.128	262
354.355	264
354.583	242
354.81	250
355.037	249
355.264	239
355.491	252
355.718	266
355.945	254
356.172	271
356.399	239
356.626	254
356.853	262
357.08	264
357.307	264
357.534	254
357.761	262
357.988	274
358.215	240
358.441	258
358.668	246
358.895	231
359.122	254
359.349	254
359.576	256
359.802	251
360.029	265
360.256	258
360.483	264
360.709	268
360.936	273
361.163	260
361.39	243
361.616	258
361.843	245
362.07	254
362.296	252
362.523	239
362.749	258
362.976	250
363.203	262
363.429	235
363.656	250
363.882	258
364.109	268
364.335	266
364.562	244
364.788	274
365.015	261
365.241	262
365.468	249
365.694	249
365.92	265
366.147	257
366.373	260
366.599	260
366.826	259
367.052	250
367.278	247
367.505	268
367.731	264
367.957	290
368.184	275
368.41	251
368.636	267
368.862	268
369.089	285
369.315	276
369.541	266
369.767	283
369.993	266
370.219	264
370.445	285
370.672	269
370.898	274
371.124	268
371.35	284
371.576	273
371.802	283
372.028	299
372.254	296
372.48	289
372.706	279
372.932	294
373.158	292
373.384	278
373.61	290
373.835	291
374.061	279
374.287	303
374.513	278
374.739	301
374.965	292
375.191	286
375.416	295
375.642	286
375.868	288
376.094	302
376.319	274
376.545	289
376.771	268
376.997	282
377.222	280
377.448	268
377.674	283
377.899	267
378.125	295
378.35	284
378.576	276
378.802	269
379.027	276
379.253	274
379.478	267
379.704	270
379.929	283
380.155	271
380.38	251
380.606	253
380.831	270
381.057	277
381.282	278
381.507	280
381.733	284
381.958	296
382.184	294
382.409	290
382.634	282
382.86	294
383.085	292
383.31	276
383.535	294
383.761	308
383.986	306
384.211	304
384.436	278
384.662	299
384.887	313
385.112	318
385.337	323
385.562	326
385.787	306
386.013	354
386.238	317
386.463	298
386.688	314
386.913	318
387.138	328
387.363	326
387.588	328
387.813	336
388.038	332
388.263	326
388.488	310
388.713	322
388.938	317
389.163	343
389.387	312
389.612	315
389.837	319
390.062	324
390.287	336
390.512	315
390.736	338
390.961	323
391.186	344
391.411	318
391.636	327
391.86	328
392.085	361
392.31	330
392.534	327
392.759	331
392.984	340
393.208	343
393.433	330
393.658	346
393.882	332
394.107	335
394.331	324
394.556	344
394.78	338
395.005	358
395.229	333
395.454	350
395.678	343
395.903	357
396.127	381
396.352	360
396.576	367
396.801	362
397.025	377
397.249	361
397.474	357
397.698	371
397.922	386
398.147	347
398.371	375
398.595	374
398.82	397
399.044	386
399.268	420
399.492	452
399.717	448
399.941	471
400.165	456
400.389	425
400.613	437
400.837	400
401.062	413
401.286	387
401.51	404
401.734	392
401.958	381
402.182	383
402.406	387
402.63	388
402.854	390
403.078	392
403.302	392
403.526	388
403.75	378
403.974	406
404.198	386
404.422	402
404.645	413
404.869	392
405.093	386
405.317	406
405.541	412
405.765	394
405.988	400
406.212	381
406.436	399
406.66	404
406.883	415
407.107	441
407.331	436
407.555	445
407.778	445
408.002	433
408.226	441
408.449	439
408.673	421
408.896	400
409.12	393
409.344	410
409.567	400
409.791	434
410.014	396
410.238	398
410.461	390
410.685	391
410.908	410
411.132	400
411.355	406
411.578	400
411.802	386
412.025	404
412.249	407
412.472	384
412.695	402
412.919	410
413.142	373
413.365	384
413.589	390
413.812	381
414.035	382
414.258	382
414.482	357
414.705	392
414.928	379
415.151	366
415.374	382
415.597	381
415.821	365
416.044	376
416.267	352
416.49	372
416.713	370
416.936	373
417.159	362
417.382	372
417.605	367
417.828	371
418.051	367
418.274	367
418.497	362
418.72	360
418.943	371
419.166	381
419.389	417
419.611	396
419.834	388
420.057	364
420.28	354
420.503	363
420.726	350
420.948	380
421.171	360
421.394	353
421.617	382
421.839	367
422.062	372
422.285	372
422.507	379
422.73	379
422.953	375
423.175	361
423.398	362
423.621	363
423.843	356
424.066	364
424.288	337
424.511	351
424.733	384
424.956	375
425.178	387
425.401	357
425.623	358
425.846	380
426.068	359
426.291	356
426.513	359
426.735	342
426.958	361
427.18	347
427.402	364
427.625	340
427.847	323
428.069	325
428.292	354
428.514	330
428.736	350
428.958	366
429.181	337
429.403	346
429.625	336
429.847	344
430.069	373
430.292	346
430.514	336
430.736	352
430.958	358
431.18	359
431.402	345
431.624	351
431.846	356
432.068	341
432.29	358
432.512	330
432.734	332
432.956	350
433.178	340
433.4	354
433.622	349
433.844	343
434.066	350
434.287	373
434.509	358
434.731	367
434.953	360
435.175	356
435.397	362
435.618	352
435.84	368
436.062	336
436.284	340
436.505	351
436.727	342
436.949	355
437.17	310
437.392	334
437.614	331
437.835	334
438.057	341
438.278	330
438.5	340
438.721	331
438.943	322
439.165	314
439.386	329
439.608	350
439.829	336
440.05	316
440.272	337
440.493	348
440.715	354
440.936	344
441.158	351
441.379	358
441.6	357
441.822	344
442.043	363
442.264	369
442.486	356
442.707	354
442.928	371
443.149	367
443.371	368
443.592	365
443.813	349
444.034	354
444.255	349
444.476	359
444.698	395
444.919	372
445.14	447
445.361	398
445.582	363
445.803	360
446.024	347
446.245	351
446.466	348
446.687	343
446.908	338
447.129	327
447.35	338
447.571	335
447.792	328
448.013	327
448.234	333
448.455	320
448.675	314
448.896	327
449.117	323
449.338	310
449.559	339
449.779	324
450	326
450.221	300
450.442	318
450.662	327
450.883	296
451.104	338
451.324	295
451.545	302
451.766	340
451.986	321
452.207	324
452.428	325
452.648	329
452.869	329
453.089	304
453.31	309
453.53	298
453.751	293
453.971	312
454.192	296
454.412	275
454.633	294
454.853	300
455.073	295
455.294	282
455.514	312
455.734	295
455.955	305
456.175	299
456.395	312
456.616	300
456.836	311
457.056	314
457.276	303
457.497	326
457.717	318
457.937	311
458.157	330
458.377	324
458.598	308
458.818	314
459.038	334
459.258	327
459.478	345
459.698	374
459.918	363
460.138	350
460.358	370
460.578	386
460.798	384
461.018	405
461.238	383
461.458	390
461.678	379
461.898	407
462.118	380
462.338	400
462.558	403
462.777	416
462.997	404
463.217	455
463.437	446
463.657	427
463.876	428
464.096	437
464.316	416
464.536	404
464.755	387
464.975	394
465.195	390
465.414	391
465.634	380
465.854	376
466.073	365
466.293	342
466.512	339
466.732	349
466.951	328
467.171	334
467.391	359
467.61	335
467.829	342
468.049	337
468.268	335
468.488	332
468.707	323
468.927	327
469.146	320
469.365	342
469.585	340
469.804	345
470.023	350
470.243	344
470.462	366
470.681	354
470.901	342
471.12	331
471.339	339
471.558	359
471.777	337
471.997	323
472.216	340
472.435	331
472.654	335
472.873	335
473.092	336
473.311	350
473.53	327
473.749	356
473.968	346
474.187	319
474.406	331
474.625	354
474.844	335
475.063	330
475.282	337
475.501	359
475.72	327
475.939	349
476.158	341
476.377	351
476.596	335
476.814	360
477.033	361
477.252	353
477.471	362
477.69	359
477.908	378
478.127	380
478.346	379
478.564	376
478.783	379
479.002	408
479.22	394
479.439	406
479.658	390
479.876	400
480.095	401
480.313	410
480.532	412
480.751	401
480.969	412
481.188	382
481.406	399
481.624	384
481.843	404
482.061	380
482.28	398
482.498	395
482.717	389
482.935	388
483.153	398
483.372	399
483.59	396
483.808	383
484.027	358
484.245	374
484.463	395
484.681	391
484.9	378
485.118	388
485.336	378
485.554	388
485.772	388
485.99	377
486.209	388
486.427	394
486.645	408
486.863	406
487.081	398
487.299	388
487.517	378
487.735	412
487.953	407
488.171	414
488.389	397
488.607	390
488.825	395
489.043	396
489.261	398
489.479	385
489.696	400
489.914	399
490.132	390
490.35	427
490.568	401
490.786	410
491.003	379
491.221	379
491.439	392
491.657	410
491.874	386
492.092	429
492.31	398
492.527	401
492.745	408
492.963	423
493.18	414
493.398	423
493.615	428
493.833	413
494.05	419
494.268	419
494.485	397
494.703	416
494.92	440
495.138	434
495.355	422
495.573	426
495.79	431
496.008	455
496.225	461
496.442	451
496.66	450
496.877	494
497.094	484
497.312	443
497.529	472
497.746	474
497.963	492
498.181	517
498.398	538
498.615	553
498.832	563
499.049	572
499.267	614
499.484	627
499.701	667
499.918	696
500.135	740
500.352	737
500.569	738
500.786	741
501.003	723
501.22	697
501.437	686
501.654	644
501.871	611
502.088	591
502.305	578
502.522	555
502.739	550
502.956	525
503.172	531
503.389	518
503.606	496
503.823	477
504.04	484
504.256	498
504.473	453
504.69	472
504.907	455
505.123	463
505.34	448
505.557	436
505.773	420
505.99	417
506.207	413
506.423	392
506.64	396
506.856	369
507.073	384
507.289	392
507.506	372
507.722	378
507.939	376
508.155	404
508.372	381
508.588	388
508.805	388
509.021	366
509.238	375
509.454	387
509.67	380
509.887	363
510.103	352
510.319	378
510.536	371
510.752	358
510.968	368
511.184	357
511.401	358
511.617	365
511.833	346
512.049	355
512.265	355
512.481	365
512.698	354
512.914	367
513.13	356
513.346	350
513.562	355
513.778	370
513.994	374
514.21	363
514.426	337
514.642	350
514.858	353
515.074	385
515.29	367
515.506	374
515.721	371
515.937	384
516.153	382
516.369	393
516.585	404
516.801	395
517.016	396
517.232	411
517.448	420
517.664	406
517.879	416
518.095	421
518.311	394
518.527	398
518.742	396
518.958	390
519.173	384
519.389	390
519.605	384
519.82	386
520.036	379
520.251	360
520.467	373
520.682	360
520.898	370
521.113	374
521.329	367
521.544	352
521.76	350
521.975	353
522.19	343
522.406	347
522.621	339
522.836	358
523.052	352
523.267	327
523.482	334
523.698	327
523.913	339
524.128	340
524.343	344
524.559	348
524.774	350
524.989	336
525.204	336
525.419	331
525.634	334
525.849	327
526.064	335
526.28	334
526.495	331
526.71	337
526.925	338
527.14	341
527.355	333
527.57	323
527.785	320
527.999	332
528.214	321
528.429	330
528.644	329
528.859	333
529.074	325
529.289	329
529.503	326
529.718	332
529.933	316
530.148	322
530.363	329
530.577	315
530.792	322
531.007	337
531.221	334
531.436	326
531.651	321
531.865	322
532.08	326
532.295	332
532.509	322
532.724	326
532.938	324
533.153	319
533.367	334
533.582	328
533.796	332
534.011	328
534.225	343
534.44	334
534.654	333
534.868	309
535.083	326
535.297	322
535.511	308
535.726	301
535.94	318
536.154	311
536.369	317
536.583	312
536.797	306
537.011	324
537.225	310
537.44	316
537.654	312
537.868	310
538.082	298
538.296	326
538.51	294
538.724	301
538.938	311
539.153	319
539.367	297
539.581	315
539.795	327
540.009	323
540.222	325
540.436	312
540.65	311
540.864	315
541.078	310
541.292	315
541.506	312
541.72	317
541.934	297
542.147	324
542.361	306
542.575	311
542.789	332
543.002	297
543.216	288
543.43	314
543.644	315
543.857	311
544.071	334
544.285	306
544.498	308
544.712	316
544.925	317
545.139	314
545.352	322
545.566	288
545.779	299
545.993	324
546.206	318
546.42	327
546.633	307
546.847	301
547.06	314
547.274	318
547.487	311
547.7	313
547.914	322
548.127	323
548.34	313
548.554	303
548.767	305
548.98	306
549.193	303
549.407	310
549.62	318
549.833	319
550.046	324
550.259	319
550.473	311
550.686	309
550.899	314
551.112	314
551.325	310
551.538	322
551.751	328
551.964	307
552.177	333
552.39	318
552.603	331
552.816	315
553.029	339
553.242	310
553.455	336
553.667	318
553.88	317
554.093	320
554.306	318
554.519	311
554.732	296
554.944	308
555.157	288
555.37	300
555.583	291
555.795	281
556.008	290
556.221	300
556.433	293
556.646	295
556.859	292
557.071	291
557.284	275
557.496	288
557.709	294
557.921	269
558.134	274
558.346	262
558.559	282
558.771	287
558.984	294
559.196	279
559.409	295
559.621	279
559.833	267
560.046	289
560.258	271
560.47	299
560.683	286
560.895	281
561.107	287
561.32	298
561.532	271
561.744	269
561.956	268
562.168	270
562.381	296
562.593	278
562.805	282
563.017	288
563.229	279
563.441	289
563.653	275
563.865	306
564.077	284
564.289	283
564.501	303
564.713	301
564.925	317
565.137	320
565.349	312
565.561	316
565.773	320
565.985	331
566.197	319
566.408	350
566.62	341
566.832	370
567.044	356
567.255	356
567.467	376
567.679	380
567.891	359
568.102	349
568.314	346
568.526	360
568.737	346
568.949	310
569.161	319
569.372	313
569.584	313
569.795	302
570.007	283
570.218	280
570.43	269
570.641	288
570.853	276
571.064	274
571.276	264
571.487	276
571.698	290
571.91	256
572.121	243
572.333	253
572.544	261
572.755	259
572.966	256
573.178	262
573.389	255
573.6	245
573.811	248
574.023	257
574.234	234
574.445	246
574.656	239
574.867	243
575.078	231
575.289	223
575.501	243
575.712	241
575.923	235
576.134	251
576.345	218
576.556	222
576.767	225
576.978	229
577.188	229
577.399	233
577.61	235
577.821	233
578.032	228
578.243	216
578.454	222
578.665	215
578.875	247
579.086	213
579.297	232
579.508	223
579.718	222
579.929	224
580.14	220
580.35	208
580.561	196
580.772	230
580.982	228
581.193	207
581.403	210
581.614	182
581.825	204
582.035	225
582.246	208
582.456	210
582.667	204
582.877	210
583.087	205
583.298	209
583.508	214
583.719	203
583.929	218
584.139	208
584.35	215
584.56	214
584.77	202
584.981	206
585.191	199
585.401	216
585.611	214
585.821	202
586.032	211
586.242	203
586.452	220
586.662	206
586.872	218
587.082	214
587.292	202
587.502	203
587.713	209
587.923	214
588.133	202
588.343	197
588.553	204
588.762	213
588.972	205
589.182	222
589.392	216
589.602	206
589.812	209
590.022	211
590.232	202
590.441	222
590.651	216
590.861	219
591.071	193
591.281	200
591.49	216
591.7	208
591.91	212
592.119	230
592.329	216
592.539	228
592.748	226
592.958	227
593.167	218
593.377	217
593.587	226
593.796	210
594.006	223
594.215	225
594.424	217
594.634	224
594.843	207
595.053	206
595.262	200
595.472	212
595.681	197
595.89	198
596.1	208
596.309	205
596.518	197
596.727	186
596.937	190
597.146	190
597.355	202
597.564	196
597.774	191
597.983	198
598.192	212
598.401	210
598.61	198
598.819	188
599.028	197
599.237	186
599.446	182
599.655	189
599.864	187
600.073	168
600.282	190
600.491	182
600.7	189
600.909	191
601.118	190
601.327	170
601.536	178
601.745	194
601.953	187
602.162	178
602.371	189
602.58	178
602.789	180
602.997	196
603.206	183
603.415	183
603.623	180
603.832	188
604.041	188
604.249	182
604.458	168
604.666	184
604.875	196
605.084	200
605.292	182
605.501	183
605.709	182
605.918	184
606.126	196
606.334	185
606.543	182
606.751	180
606.96	187
607.168	160
607.376	189
607.585	175
607.793	174
608.001	164
608.21	183
608.418	165
608.626	180
608.834	172
609.043	173
609.251	189
609.459	178
609.667	160
609.875	163
610.083	175
610.291	171
610.499	173
610.707	180
610.916	177
611.124	196
611.332	166
611.54	188
611.748	169
611.955	163
612.163	166
612.371	171
612.579	163
612.787	179
612.995	164
613.203	187
613.411	184
613.618	186
613.826	182
614.034	172
614.242	174
614.449	161
614.657	165
614.865	179
615.072	180
615.28	176
615.488	152
615.695	178
615.903	171
616.111	173
616.318	181
616.526	173
616.733	151
616.941	173
617.148	173
617.356	165
617.563	175
617.771	167
617.978	163
618.185	173
618.393	170
618.6	156
618.807	160
619.015	173
619.222	148
619.429	158
619.637	172
619.844	169
620.051	175
620.258	154
620.466	162
620.673	160
620.88	153
621.087	162
621.294	173
621.501	174
621.708	173
621.915	173
622.122	170
622.329	171
622.536	174
622.743	161
622.95	157
623.157	162
623.364	161
623.571	154
623.778	180
623.985	170
624.192	161
624.399	152
624.606	165
624.812	161
625.019	172
625.226	173
625.433	159
625.639	157
625.846	167
626.053	162
626.259	151
626.466	170
626.673	160
626.879	163
627.086	155
627.293	171
627.499	170
627.706	157
627.912	154
628.119	154
628.325	172
628.532	159
628.738	163
628.945	160
629.151	154
629.357	153
629.564	157
629.77	155
629.976	162
630.183	162
630.389	155
630.595	151
630.802	157
631.008	141
631.214	136
631.42	151
631.627	153
631.833	151
632.039	152
632.245	146
632.451	136
632.657	158
632.863	149
633.069	128
633.275	145
633.481	132
633.688	164
633.893	143
634.099	158
634.305	148
634.511	149
634.717	153
634.923	157
635.129	148
635.335	157
635.541	148
635.747	142
635.952	146
636.158	161
636.364	154
636.57	147
636.775	155
636.981	153
637.187	154
637.392	151
637.598	135
637.804	134
638.009	158
638.215	145
638.421	144
638.626	146
638.832	153
639.037	151
639.243	130
639.448	158
639.654	136
639.859	142
640.065	157
640.27	150
640.475	132
640.681	142
640.886	151
641.091	134
641.297	169
641.502	162
641.707	126
641.913	130
642.118	148
642.323	139
642.528	148
642.733	138
642.939	143
643.144	156
643.349	136
643.554	144
643.759	147
643.964	128
644.169	150
644.374	136
644.579	144
644.784	149
644.989	136
645.194	158
645.399	132
645.604	135
645.809	134
646.014	130
646.219	142
646.423	125
646.628	141
646.833	162
647.038	148
647.243	158
647.447	143
647.652	144
647.857	146
648.062	164
648.266	142
648.471	132
648.676	147
648.88	147
649.085	152
649.289	148
649.494	130
649.698	149
649.903	146
650.107	145
650.312	158
650.516	146
650.721	162
650.925	133
651.13	153
651.334	141
651.539	152
651.743	154
651.947	152
652.152	131
652.356	134
652.56	139
652.764	143
652.969	150
653.173	144
653.377	144
653.581	153
653.785	141
653.99	150
654.194	128
654.398	125
654.602	129
654.806	141
655.01	146
655.214	142
655.418	145
655.622	148
655.826	145
656.03	139
656.234	149
656.438	148
656.642	138
656.846	158
657.049	161
657.253	140
657.457	151
657.661	128
657.865	134
658.068	137
658.272	127
658.476	112
658.68	111
658.883	111
659.087	107
659.291	120
659.494	120
659.698	112
659.901	114
660.105	104
660.309	120
660.512	103
660.716	121
660.919	90
661.123	106
661.326	103
661.53	92
661.733	98
661.936	94
662.14	91
662.343	90
662.546	95
662.75	96
662.953	88
663.156	92
663.36	95
663.563	92
663.766	85
663.969	68
664.173	88
664.376	80
664.579	100
664.782	79
664.985	90
665.188	86
665.391	93
665.594	77
665.797	85
666	76
666.203	80
666.406	72
666.609	84
666.812	86
667.015	83
667.218	77
667.421	90
667.624	83
667.827	77
668.03	84
668.232	85
668.435	92
668.638	84
668.841	85
669.043	80
669.246	88
669.449	92
669.651	93
669.854	87
670.057	88
670.259	91
670.462	90
670.665	67
670.867	78
671.07	71
671.272	93
671.475	65
671.677	91
671.88	95
672.082	79
672.284	84
672.487	78
672.689	68
672.892	64
