Data from Fe(NO3)3@0.025M.TitratingCurve.Agarose3%dH2O.NegLispCup.LampEnergy10.LIBS07252019_HRD10591_16-54-49-335.txt Node
Date: Thu Jul 25 16:54:49 EDT 2019
User: cochatt
Spectrometer: HR+D1059
Trigger mode: 1
Integration Time (sec): 1.000000E-1
Scans to average: 1
Electric dark correction enabled: true
Nonlinearity correction enabled: false
Boxcar width: 0
XAxis mode: Wavelengths
Number of Pixels in Spectrum: 2048
>>>>>Begin Spectral Data<<<<<
223.165	-4.81
223.4	-4.81
223.635	-4.81
223.869	-25.81
224.104	-25.81
224.338	-23.81
224.573	-18.81
224.808	-8.81
225.042	-1.81
225.277	3.19
225.511	3.19
225.746	-2.81
225.98	-3.81
226.215	15.19
226.449	21.19
226.683	23.19
226.918	27.19
227.152	23.19
227.387	41.19
227.621	31.19
227.856	45.19
228.09	42.19
228.324	46.19
228.559	54.19
228.793	50.19
229.027	61.19
229.262	56.19
229.496	66.19
229.73	64.19
229.964	78.19
230.199	75.19
230.433	87.19
230.667	94.19
230.901	86.19
231.136	80.19
231.37	87.19
231.604	85.19
231.838	89.19
232.072	88.19
232.306	97.19
232.541	93.19
232.775	92.19
233.009	86.19
233.243	102.19
233.477	92.19
233.711	90.19
233.945	91.19
234.179	88.19
234.413	82.19
234.647	84.19
234.881	86.19
235.115	96.19
235.349	82.19
235.583	90.19
235.817	70.19
236.051	86.19
236.285	89.19
236.519	80.19
236.753	78.19
236.987	89.19
237.221	88.19
237.455	85.19
237.689	86.19
237.922	86.19
238.156	83.19
238.39	91.19
238.624	83.19
238.858	86.19
239.091	77.19
239.325	82.19
239.559	74.19
239.793	79.19
240.027	89.19
240.26	79.19
240.494	99.19
240.728	87.19
240.961	81.19
241.195	114.19
241.429	80.19
241.662	88.19
241.896	86.19
242.13	85.19
242.363	80.19
242.597	100.19
242.83	95.19
243.064	84.19
243.298	89.19
243.531	89.19
243.765	85.19
243.998	84.19
244.232	82.19
244.465	82.19
244.699	97.19
244.932	97.19
245.166	95.19
245.399	80.19
245.633	84.19
245.866	81.19
246.099	103.19
246.333	99.19
246.566	93.19
246.8	95.19
247.033	83.19
247.266	83.19
247.5	81.19
247.733	87.19
247.966	98.19
248.2	91.19
248.433	89.19
248.666	105.19
248.899	84.19
249.133	92.19
249.366	91.19
249.599	83.19
249.832	97.19
250.066	110.19
250.299	93.19
250.532	98.19
250.765	98.19
250.998	112.19
251.231	88.19
251.465	97.19
251.698	93.19
251.931	100.19
252.164	93.19
252.397	93.19
252.63	100.19
252.863	100.19
253.096	95.19
253.329	96.19
253.562	106.19
253.795	115.19
254.028	110.19
254.261	105.19
254.494	94.19
254.727	99.19
254.96	88.19
255.193	121.19
255.426	102.19
255.659	96.19
255.892	103.19
256.124	104.19
256.357	108.19
256.59	107.19
256.823	96.19
257.056	97.19
257.289	114.19
257.521	103.19
257.754	107.19
257.987	106.19
258.22	100.19
258.452	92.19
258.685	93.19
258.918	96.19
259.151	112.19
259.383	90.19
259.616	94.19
259.849	90.19
260.081	91.19
260.314	88.19
260.547	93.19
260.779	108.19
261.012	103.19
261.244	107.19
261.477	102.19
261.71	104.19
261.942	109.19
262.175	102.19
262.407	106.19
262.64	103.19
262.872	115.19
263.105	99.19
263.337	104.19
263.57	115.19
263.802	91.19
264.035	105.19
264.267	103.19
264.499	106.19
264.732	95.19
264.964	119.19
265.197	112.19
265.429	108.19
265.661	105.19
265.894	107.19
266.126	119.19
266.358	122.19
266.591	105.19
266.823	118.19
267.055	104.19
267.287	116.19
267.52	122.19
267.752	118.19
267.984	107.19
268.216	121.19
268.448	115.19
268.681	124.19
268.913	105.19
269.145	100.19
269.377	115.19
269.609	112.19
269.841	115.19
270.073	112.19
270.306	113.19
270.538	105.19
270.77	112.19
271.002	120.19
271.234	121.19
271.466	119.19
271.698	102.19
271.93	102.19
272.162	110.19
272.394	115.19
272.626	112.19
272.858	120.19
273.09	119.19
273.322	117.19
273.553	116.19
273.785	118.19
274.017	104.19
274.249	115.19
274.481	117.19
274.713	118.19
274.945	115.19
275.176	104.19
275.408	112.19
275.64	129.19
275.872	135.19
276.104	114.19
276.335	114.19
276.567	118.19
276.799	107.19
277.031	118.19
277.262	132.19
277.494	129.19
277.726	109.19
277.957	119.19
278.189	119.19
278.421	120.19
278.652	121.19
278.884	113.19
279.115	101.19
279.347	107.19
279.579	129.19
279.81	122.19
280.042	126.19
280.273	130.19
280.505	130.19
280.736	123.19
280.968	128.19
281.199	128.19
281.431	128.19
281.662	121.19
281.894	113.19
282.125	122.19
282.356	129.19
282.588	141.19
282.819	116.19
283.051	121.19
283.282	125.19
283.513	125.19
283.745	124.19
283.976	128.19
284.207	130.19
284.439	129.19
284.67	142.19
284.901	140.19
285.132	136.19
285.364	130.19
285.595	138.19
285.826	140.19
286.057	134.19
286.288	128.19
286.52	138.19
286.751	131.19
286.982	126.19
287.213	132.19
287.444	148.19
287.675	129.19
287.906	146.19
288.138	118.19
288.369	133.19
288.6	138.19
288.831	130.19
289.062	134.19
289.293	142.19
289.524	133.19
289.755	135.19
289.986	145.19
290.217	134.19
290.448	136.19
290.679	139.19
290.91	142.19
291.141	127.19
291.371	130.19
291.602	131.19
291.833	148.19
292.064	145.19
292.295	130.19
292.526	128.19
292.757	140.19
292.987	119.19
293.218	124.19
293.449	122.19
293.68	136.19
293.91	131.19
294.141	143.19
294.372	132.19
294.603	124.19
294.833	139.19
295.064	133.19
295.295	122.19
295.525	139.19
295.756	130.19
295.987	134.19
296.217	126.19
296.448	136.19
296.679	134.19
296.909	136.19
297.14	132.19
297.37	136.19
297.601	153.19
297.831	130.19
298.062	150.19
298.292	140.19
298.523	135.19
298.753	150.19
298.984	152.19
299.214	149.19
299.445	148.19
299.675	145.19
299.905	154.19
300.136	143.19
300.366	142.19
300.597	143.19
300.827	136.19
301.057	144.19
301.288	147.19
301.518	156.19
301.748	138.19
301.979	155.19
302.209	150.19
302.439	131.19
302.669	141.19
302.9	159.19
303.13	162.19
303.36	149.19
303.59	149.19
303.82	147.19
304.051	132.19
304.281	140.19
304.511	156.19
304.741	154.19
304.971	143.19
305.201	149.19
305.431	158.19
305.661	157.19
305.891	156.19
306.121	146.19
306.352	145.19
306.582	163.19
306.812	159.19
307.042	150.19
307.272	157.19
307.502	164.19
307.731	155.19
307.961	153.19
308.191	142.19
308.421	157.19
308.651	164.19
308.881	125.19
309.111	141.19
309.341	143.19
309.571	148.19
309.8	156.19
310.03	167.19
310.26	153.19
310.49	159.19
310.72	151.19
310.949	146.19
311.179	168.19
311.409	149.19
311.639	141.19
311.868	149.19
312.098	171.19
312.328	158.19
312.557	156.19
312.787	167.19
313.017	170.19
313.246	165.19
313.476	163.19
313.706	152.19
313.935	165.19
314.165	168.19
314.394	142.19
314.624	168.19
314.853	165.19
315.083	161.19
315.312	172.19
315.542	148.19
315.771	163.19
316.001	155.19
316.23	137.19
316.46	162.19
316.689	142.19
316.919	151.19
317.148	148.19
317.377	154.19
317.607	164.19
317.836	164.19
318.065	165.19
318.295	169.19
318.524	166.19
318.753	157.19
318.983	170.19
319.212	154.19
319.441	159.19
319.67	178.19
319.9	157.19
320.129	172.19
320.358	170.19
320.587	162.19
320.816	180.19
321.046	159.19
321.275	166.19
321.504	156.19
321.733	152.19
321.962	164.19
322.191	161.19
322.42	164.19
322.649	178.19
322.878	161.19
323.108	163.19
323.337	157.19
323.566	141.19
323.795	169.19
324.024	166.19
324.253	157.19
324.482	170.19
324.71	178.19
324.939	185.19
325.168	167.19
325.397	177.19
325.626	180.19
325.855	164.19
326.084	161.19
326.313	188.19
326.542	184.19
326.77	166.19
326.999	170.19
327.228	166.19
327.457	168.19
327.686	188.19
327.914	190.19
328.143	185.19
328.372	162.19
328.6	175.19
328.829	173.19
329.058	151.19
329.287	157.19
329.515	178.19
329.744	165.19
329.972	170.19
330.201	169.19
330.43	178.19
330.658	155.19
330.887	160.19
331.115	183.19
331.344	173.19
331.572	196.19
331.801	172.19
332.03	196.19
332.258	194.19
332.486	169.19
332.715	192.19
332.943	186.19
333.172	184.19
333.4	188.19
333.629	193.19
333.857	176.19
334.085	192.19
334.314	195.19
334.542	189.19
334.771	191.19
334.999	182.19
335.227	203.19
335.455	199.19
335.684	193.19
335.912	198.19
336.14	200.19
336.369	190.19
336.597	198.19
336.825	181.19
337.053	187.19
337.281	190.19
337.51	181.19
337.738	198.19
337.966	185.19
338.194	177.19
338.422	187.19
338.65	199.19
338.878	187.19
339.106	192.19
339.334	191.19
339.562	189.19
339.79	176.19
340.018	173.19
340.246	176.19
340.474	181.19
340.702	194.19
340.93	186.19
341.158	167.19
341.386	189.19
341.614	177.19
341.842	192.19
342.07	162.19
342.298	171.19
342.526	189.19
342.754	186.19
342.981	180.19
343.209	187.19
343.437	193.19
343.665	180.19
343.893	211.19
344.12	205.19
344.348	188.19
344.576	199.19
344.804	187.19
345.031	190.19
345.259	183.19
345.487	182.19
345.714	170.19
345.942	182.19
346.17	179.19
346.397	186.19
346.625	189.19
346.853	173.19
347.08	157.19
347.308	197.19
347.535	185.19
347.763	188.19
347.99	179.19
348.218	176.19
348.445	180.19
348.673	198.19
348.9	188.19
349.128	186.19
349.355	187.19
349.583	182.19
349.81	184.19
350.037	180.19
350.265	164.19
350.492	180.19
350.72	173.19
350.947	180.19
351.174	169.19
351.402	186.19
351.629	168.19
351.856	168.19
352.083	184.19
352.311	190.19
352.538	170.19
352.765	184.19
352.992	189.19
353.22	180.19
353.447	181.19
353.674	189.19
353.901	177.19
354.128	167.19
354.355	165.19
354.583	177.19
354.81	186.19
355.037	184.19
355.264	180.19
355.491	181.19
355.718	185.19
355.945	172.19
356.172	176.19
356.399	184.19
356.626	163.19
356.853	189.19
357.08	193.19
357.307	184.19
357.534	184.19
357.761	176.19
357.988	164.19
358.215	184.19
358.441	178.19
358.668	168.19
358.895	183.19
359.122	164.19
359.349	178.19
359.576	169.19
359.802	169.19
360.029	156.19
360.256	172.19
360.483	176.19
360.709	185.19
360.936	182.19
361.163	189.19
361.39	180.19
361.616	180.19
361.843	181.19
362.07	185.19
362.296	179.19
362.523	174.19
362.749	184.19
362.976	162.19
363.203	200.19
363.429	183.19
363.656	196.19
363.882	176.19
364.109	176.19
364.335	183.19
364.562	177.19
364.788	183.19
365.015	178.19
365.241	190.19
365.468	182.19
365.694	187.19
365.92	190.19
366.147	186.19
366.373	192.19
366.599	172.19
366.826	185.19
367.052	192.19
367.278	180.19
367.505	182.19
367.731	176.19
367.957	169.19
368.184	174.19
368.41	181.19
368.636	196.19
368.862	202.19
369.089	174.19
369.315	182.19
369.541	193.19
369.767	199.19
369.993	185.19
370.219	177.19
370.445	195.19
370.672	186.19
370.898	187.19
371.124	186.19
371.35	181.19
371.576	196.19
371.802	158.19
372.028	187.19
372.254	189.19
372.48	185.19
372.706	167.19
372.932	202.19
373.158	184.19
373.384	223.19
373.61	183.19
373.835	191.19
374.061	198.19
374.287	198.19
374.513	207.19
374.739	204.19
374.965	197.19
375.191	199.19
375.416	203.19
375.642	197.19
375.868	169.19
376.094	204.19
376.319	201.19
376.545	184.19
376.771	193.19
376.997	201.19
377.222	189.19
377.448	201.19
377.674	194.19
377.899	183.19
378.125	190.19
378.35	201.19
378.576	198.19
378.802	185.19
379.027	196.19
379.253	170.19
379.478	192.19
379.704	209.19
379.929	177.19
380.155	186.19
380.38	184.19
380.606	189.19
380.831	181.19
381.057	204.19
381.282	192.19
381.507	176.19
381.733	193.19
381.958	192.19
382.184	196.19
382.409	210.19
382.634	194.19
382.86	202.19
383.085	203.19
383.31	207.19
383.535	202.19
383.761	222.19
383.986	186.19
384.211	211.19
384.436	206.19
384.662	205.19
384.887	202.19
385.112	198.19
385.337	220.19
385.562	213.19
385.787	213.19
386.013	235.19
386.238	210.19
386.463	205.19
386.688	216.19
386.913	217.19
387.138	217.19
387.363	206.19
387.588	215.19
387.813	212.19
388.038	217.19
388.263	200.19
388.488	218.19
388.713	210.19
388.938	207.19
389.163	217.19
389.387	211.19
389.612	209.19
389.837	221.19
390.062	225.19
390.287	216.19
390.512	227.19
390.736	234.19
390.961	213.19
391.186	235.19
391.411	218.19
391.636	237.19
391.86	243.19
392.085	221.19
392.31	221.19
392.534	229.19
392.759	233.19
392.984	236.19
393.208	216.19
393.433	244.19
393.658	218.19
393.882	235.19
394.107	241.19
394.331	231.19
394.556	225.19
394.78	225.19
395.005	216.19
395.229	225.19
395.454	226.19
395.678	244.19
395.903	217.19
396.127	231.19
396.352	219.19
396.576	233.19
396.801	251.19
397.025	229.19
397.249	226.19
397.474	215.19
397.698	236.19
397.922	237.19
398.147	258.19
398.371	257.19
398.595	254.19
398.82	268.19
399.044	253.19
399.268	288.19
399.492	275.19
399.717	299.19
399.941	299.19
400.165	296.19
400.389	264.19
400.613	270.19
400.837	271.19
401.062	267.19
401.286	243.19
401.51	264.19
401.734	257.19
401.958	264.19
402.182	257.19
402.406	259.19
402.63	260.19
402.854	268.19
403.078	238.19
403.302	244.19
403.526	258.19
403.75	256.19
403.974	262.19
404.198	243.19
404.422	252.19
404.645	244.19
404.869	256.19
405.093	244.19
405.317	262.19
405.541	260.19
405.765	262.19
405.988	261.19
406.212	256.19
406.436	243.19
406.66	274.19
406.883	265.19
407.107	285.19
407.331	268.19
407.555	282.19
407.778	271.19
408.002	289.19
408.226	256.19
408.449	277.19
408.673	268.19
408.896	286.19
409.12	269.19
409.344	268.19
409.567	272.19
409.791	280.19
410.014	277.19
410.238	262.19
410.461	254.19
410.685	254.19
410.908	249.19
411.132	266.19
411.355	261.19
411.578	250.19
411.802	267.19
412.025	265.19
412.249	268.19
412.472	260.19
412.695	250.19
412.919	243.19
413.142	240.19
413.365	258.19
413.589	271.19
413.812	237.19
414.035	249.19
414.258	252.19
414.482	249.19
414.705	242.19
414.928	249.19
415.151	249.19
415.374	246.19
415.597	246.19
415.821	235.19
416.044	240.19
416.267	256.19
416.49	252.19
416.713	258.19
416.936	267.19
417.159	243.19
417.382	222.19
417.605	234.19
417.828	258.19
418.051	249.19
418.274	263.19
418.497	234.19
418.72	237.19
418.943	247.19
419.166	261.19
419.389	233.19
419.611	262.19
419.834	273.19
420.057	246.19
420.28	236.19
420.503	238.19
420.726	255.19
420.948	228.19
421.171	240.19
421.394	228.19
421.617	242.19
421.839	246.19
422.062	220.19
422.285	245.19
422.507	258.19
422.73	228.19
422.953	230.19
423.175	242.19
423.398	246.19
423.621	257.19
423.843	242.19
424.066	236.19
424.288	243.19
424.511	244.19
424.733	240.19
424.956	241.19
425.178	237.19
425.401	219.19
425.623	232.19
425.846	252.19
426.068	242.19
426.291	235.19
426.513	223.19
426.735	228.19
426.958	248.19
427.18	242.19
427.402	221.19
427.625	233.19
427.847	230.19
428.069	222.19
428.292	247.19
428.514	228.19
428.736	224.19
428.958	220.19
429.181	225.19
429.403	214.19
429.625	234.19
429.847	236.19
430.069	226.19
430.292	221.19
430.514	238.19
430.736	241.19
430.958	223.19
431.18	230.19
431.402	224.19
431.624	230.19
431.846	225.19
432.068	225.19
432.29	231.19
432.512	228.19
432.734	224.19
432.956	217.19
433.178	223.19
433.4	242.19
433.622	235.19
433.844	234.19
434.066	229.19
434.287	236.19
434.509	236.19
434.731	248.19
434.953	242.19
435.175	234.19
435.397	250.19
435.618	233.19
435.84	235.19
436.062	227.19
436.284	217.19
436.505	229.19
436.727	228.19
436.949	219.19
437.17	223.19
437.392	229.19
437.614	229.19
437.835	223.19
438.057	219.19
438.278	236.19
438.5	223.19
438.721	228.19
438.943	228.19
439.165	211.19
439.386	220.19
439.608	217.19
439.829	217.19
440.05	209.19
440.272	222.19
440.493	231.19
440.715	221.19
440.936	229.19
441.158	250.19
441.379	228.19
441.6	234.19
441.822	242.19
442.043	244.19
442.264	244.19
442.486	231.19
442.707	237.19
442.928	243.19
443.149	261.19
443.371	228.19
443.592	226.19
443.813	253.19
444.034	233.19
444.255	244.19
444.476	258.19
444.698	251.19
444.919	237.19
445.14	356.19
445.361	288.19
445.582	256.19
445.803	236.19
446.024	233.19
446.245	223.19
446.466	240.19
446.687	221.19
446.908	231.19
447.129	208.19
447.35	241.19
447.571	211.19
447.792	217.19
448.013	203.19
448.234	222.19
448.455	198.19
448.675	224.19
448.896	204.19
449.117	195.19
449.338	204.19
449.559	214.19
449.779	222.19
450	197.19
450.221	207.19
450.442	190.19
450.662	217.19
450.883	217.19
451.104	229.19
451.324	217.19
451.545	212.19
451.766	210.19
451.986	219.19
452.207	214.19
452.428	218.19
452.648	205.19
452.869	200.19
453.089	211.19
453.31	192.19
453.53	202.19
453.751	217.19
453.971	202.19
454.192	203.19
454.412	221.19
454.633	193.19
454.853	220.19
455.073	208.19
455.294	218.19
455.514	211.19
455.734	213.19
455.955	194.19
456.175	219.19
456.395	196.19
456.616	197.19
456.836	208.19
457.056	219.19
457.276	190.19
457.497	214.19
457.717	197.19
457.937	210.19
458.157	211.19
458.377	201.19
458.598	210.19
458.818	232.19
459.038	211.19
459.258	219.19
459.478	234.19
459.698	251.19
459.918	227.19
460.138	229.19
460.358	238.19
460.578	248.19
460.798	246.19
461.018	244.19
461.238	240.19
461.458	259.19
461.678	243.19
461.898	273.19
462.118	265.19
462.338	260.19
462.558	277.19
462.777	282.19
462.997	273.19
463.217	275.19
463.437	275.19
463.657	253.19
463.876	264.19
464.096	281.19
464.316	270.19
464.536	258.19
464.755	268.19
464.975	242.19
465.195	252.19
465.414	246.19
465.634	253.19
465.854	251.19
466.073	214.19
466.293	242.19
466.512	212.19
466.732	214.19
466.951	215.19
467.171	213.19
467.391	230.19
467.61	216.19
467.829	217.19
468.049	205.19
468.268	234.19
468.488	229.19
468.707	218.19
468.927	224.19
469.146	222.19
469.365	229.19
469.585	207.19
469.804	233.19
470.023	213.19
470.243	214.19
470.462	229.19
470.681	202.19
470.901	233.19
471.12	237.19
471.339	245.19
471.558	222.19
471.777	216.19
471.997	227.19
472.216	222.19
472.435	204.19
472.654	223.19
472.873	217.19
473.092	225.19
473.311	219.19
473.53	222.19
473.749	219.19
473.968	232.19
474.187	205.19
474.406	218.19
474.625	224.19
474.844	229.19
475.063	221.19
475.282	227.19
475.501	226.19
475.72	227.19
475.939	224.19
476.158	236.19
476.377	221.19
476.596	233.19
476.814	242.19
477.033	227.19
477.252	220.19
477.471	232.19
477.69	233.19
477.908	240.19
478.127	226.19
478.346	264.19
478.564	245.19
478.783	243.19
479.002	256.19
479.22	258.19
479.439	262.19
479.658	243.19
479.876	253.19
480.095	254.19
480.313	270.19
480.532	252.19
480.751	269.19
480.969	264.19
481.188	262.19
481.406	264.19
481.624	253.19
481.843	243.19
482.061	226.19
482.28	247.19
482.498	247.19
482.717	264.19
482.935	262.19
483.153	249.19
483.372	252.19
483.59	256.19
483.808	249.19
484.027	247.19
484.245	256.19
484.463	261.19
484.681	245.19
484.9	242.19
485.118	253.19
485.336	258.19
485.554	255.19
485.772	270.19
485.99	248.19
486.209	246.19
486.427	259.19
486.645	266.19
486.863	265.19
487.081	251.19
487.299	254.19
487.517	240.19
487.735	250.19
487.953	253.19
488.171	245.19
488.389	243.19
488.607	255.19
488.825	248.19
489.043	262.19
489.261	264.19
489.479	242.19
489.696	250.19
489.914	260.19
490.132	236.19
490.35	247.19
490.568	262.19
490.786	264.19
491.003	260.19
491.221	265.19
491.439	268.19
491.657	273.19
491.874	257.19
492.092	259.19
492.31	261.19
492.527	267.19
492.745	279.19
492.963	260.19
493.18	250.19
493.398	261.19
493.615	269.19
493.833	265.19
494.05	267.19
494.268	259.19
494.485	276.19
494.703	274.19
494.92	253.19
495.138	285.19
495.355	243.19
495.573	274.19
495.79	287.19
496.008	275.19
496.225	268.19
496.442	279.19
496.66	284.19
496.877	281.19
497.094	288.19
497.312	300.19
497.529	299.19
497.746	308.19
497.963	304.19
498.181	305.19
498.398	319.19
498.615	361.19
498.832	364.19
499.049	349.19
499.267	375.19
499.484	381.19
499.701	399.19
499.918	436.19
500.135	446.19
500.352	451.19
500.569	467.19
500.786	464.19
501.003	446.19
501.22	427.19
501.437	438.19
501.654	397.19
501.871	384.19
502.088	376.19
502.305	337.19
502.522	338.19
502.739	340.19
502.956	329.19
503.172	308.19
503.389	322.19
503.606	314.19
503.823	300.19
504.04	306.19
504.256	300.19
504.473	268.19
504.69	292.19
504.907	291.19
505.123	286.19
505.34	276.19
505.557	277.19
505.773	284.19
505.99	258.19
506.207	256.19
506.423	262.19
506.64	250.19
506.856	251.19
507.073	258.19
507.289	251.19
507.506	250.19
507.722	240.19
507.939	265.19
508.155	241.19
508.372	252.19
508.588	242.19
508.805	247.19
509.021	228.19
509.238	241.19
509.454	242.19
509.67	237.19
509.887	230.19
510.103	229.19
510.319	217.19
510.536	224.19
510.752	234.19
510.968	237.19
511.184	228.19
511.401	217.19
511.617	236.19
511.833	241.19
512.049	226.19
512.265	229.19
512.481	232.19
512.698	236.19
512.914	233.19
513.13	218.19
513.346	236.19
513.562	222.19
513.778	233.19
513.994	240.19
514.21	238.19
514.426	247.19
514.642	241.19
514.858	234.19
515.074	224.19
515.29	244.19
515.506	226.19
515.721	250.19
515.937	237.19
516.153	248.19
516.369	225.19
516.585	240.19
516.801	262.19
517.016	259.19
517.232	269.19
517.448	258.19
517.664	247.19
517.879	259.19
518.095	246.19
518.311	253.19
518.527	266.19
518.742	244.19
518.958	264.19
519.173	254.19
519.389	245.19
519.605	245.19
519.82	229.19
520.036	234.19
520.251	215.19
520.467	234.19
520.682	219.19
520.898	222.19
521.113	240.19
521.329	243.19
521.544	216.19
521.76	227.19
521.975	234.19
522.19	228.19
522.406	217.19
522.621	221.19
522.836	229.19
523.052	227.19
523.267	198.19
523.482	213.19
523.698	221.19
523.913	217.19
524.128	222.19
524.343	229.19
524.559	226.19
524.774	229.19
524.989	240.19
525.204	235.19
525.419	192.19
525.634	205.19
525.849	219.19
526.064	218.19
526.28	220.19
526.495	217.19
526.71	216.19
526.925	213.19
527.14	210.19
527.355	215.19
527.57	226.19
527.785	233.19
527.999	215.19
528.214	209.19
528.429	219.19
528.644	230.19
528.859	218.19
529.074	213.19
529.289	208.19
529.503	212.19
529.718	219.19
529.933	211.19
530.148	203.19
530.363	208.19
530.577	219.19
530.792	192.19
531.007	223.19
531.221	204.19
531.436	207.19
531.651	226.19
531.865	195.19
532.08	217.19
532.295	227.19
532.509	205.19
532.724	211.19
532.938	220.19
533.153	220.19
533.367	214.19
533.582	203.19
533.796	208.19
534.011	217.19
534.225	214.19
534.44	196.19
534.654	194.19
534.868	209.19
535.083	212.19
535.297	209.19
535.511	215.19
535.726	216.19
535.94	206.19
536.154	219.19
536.369	218.19
536.583	205.19
536.797	206.19
537.011	195.19
537.225	208.19
537.44	197.19
537.654	197.19
537.868	208.19
538.082	204.19
538.296	207.19
538.51	193.19
538.724	206.19
538.938	212.19
539.153	202.19
539.367	209.19
539.581	202.19
539.795	192.19
540.009	221.19
540.222	190.19
540.436	210.19
540.65	207.19
540.864	198.19
541.078	177.19
541.292	205.19
541.506	198.19
541.72	209.19
541.934	217.19
542.147	203.19
542.361	202.19
542.575	195.19
542.789	203.19
543.002	214.19
543.216	208.19
543.43	199.19
543.644	189.19
543.857	182.19
544.071	191.19
544.285	215.19
544.498	211.19
544.712	202.19
544.925	211.19
545.139	197.19
545.352	230.19
545.566	196.19
545.779	202.19
545.993	195.19
546.206	181.19
546.42	205.19
546.633	209.19
546.847	193.19
547.06	205.19
547.274	212.19
547.487	206.19
547.7	206.19
547.914	208.19
548.127	201.19
548.34	203.19
548.554	222.19
548.767	204.19
548.98	213.19
549.193	211.19
549.407	206.19
549.62	214.19
549.833	223.19
550.046	200.19
550.259	198.19
550.473	201.19
550.686	202.19
550.899	206.19
551.112	204.19
551.325	202.19
551.538	195.19
551.751	218.19
551.964	194.19
552.177	212.19
552.39	197.19
552.603	216.19
552.816	212.19
553.029	211.19
553.242	223.19
553.455	216.19
553.667	216.19
553.88	214.19
554.093	202.19
554.306	201.19
554.519	190.19
554.732	200.19
554.944	200.19
555.157	195.19
555.37	195.19
555.583	199.19
555.795	205.19
556.008	210.19
556.221	180.19
556.433	181.19
556.646	190.19
556.859	179.19
557.071	190.19
557.284	184.19
557.496	197.19
557.709	186.19
557.921	184.19
558.134	186.19
558.346	197.19
558.559	184.19
558.771	173.19
558.984	165.19
559.196	197.19
559.409	207.19
559.621	180.19
559.833	188.19
560.046	188.19
560.258	188.19
560.47	182.19
560.683	191.19
560.895	190.19
561.107	185.19
561.32	194.19
561.532	185.19
561.744	187.19
561.956	178.19
562.168	176.19
562.381	187.19
562.593	178.19
562.805	186.19
563.017	193.19
563.229	197.19
563.441	187.19
563.653	177.19
563.865	191.19
564.077	173.19
564.289	193.19
564.501	193.19
564.713	187.19
564.925	195.19
565.137	186.19
565.349	196.19
565.561	195.19
565.773	206.19
565.985	224.19
566.197	216.19
566.408	214.19
566.62	204.19
566.832	219.19
567.044	230.19
567.255	234.19
567.467	233.19
567.679	245.19
567.891	253.19
568.102	229.19
568.314	228.19
568.526	215.19
568.737	226.19
568.949	221.19
569.161	212.19
569.372	198.19
569.584	183.19
569.795	214.19
570.007	182.19
570.218	174.19
570.43	197.19
570.641	172.19
570.853	182.19
571.064	189.19
571.276	187.19
571.487	192.19
571.698	184.19
571.91	168.19
572.121	164.19
572.333	178.19
572.544	175.19
572.755	170.19
572.966	185.19
573.178	151.19
573.389	171.19
573.6	177.19
573.811	156.19
574.023	159.19
574.234	158.19
574.445	174.19
574.656	171.19
574.867	158.19
575.078	151.19
575.289	176.19
575.501	181.19
575.712	161.19
575.923	153.19
576.134	152.19
576.345	151.19
576.556	173.19
576.767	160.19
576.978	163.19
577.188	150.19
577.399	161.19
577.61	152.19
577.821	157.19
578.032	146.19
578.243	151.19
578.454	159.19
578.665	159.19
578.875	151.19
579.086	165.19
579.297	162.19
579.508	150.19
579.718	150.19
579.929	154.19
580.14	163.19
580.35	160.19
580.561	153.19
580.772	167.19
580.982	146.19
581.193	147.19
581.403	164.19
581.614	143.19
581.825	155.19
582.035	158.19
582.246	140.19
582.456	129.19
582.667	142.19
582.877	144.19
583.087	158.19
583.298	152.19
583.508	142.19
583.719	148.19
583.929	152.19
584.139	151.19
584.35	139.19
584.56	146.19
584.77	155.19
584.981	147.19
585.191	148.19
585.401	149.19
585.611	155.19
585.821	153.19
586.032	143.19
586.242	143.19
586.452	151.19
586.662	145.19
586.872	146.19
587.082	137.19
587.292	139.19
587.502	142.19
587.713	148.19
587.923	148.19
588.133	155.19
588.343	154.19
588.553	146.19
588.762	156.19
588.972	147.19
589.182	146.19
589.392	150.19
589.602	154.19
589.812	146.19
590.022	150.19
590.232	147.19
590.441	165.19
590.651	137.19
590.861	147.19
591.071	149.19
591.281	161.19
591.49	146.19
591.7	138.19
591.91	152.19
592.119	145.19
592.329	146.19
592.539	152.19
592.748	153.19
592.958	156.19
593.167	141.19
593.377	151.19
593.587	157.19
593.796	163.19
594.006	171.19
594.215	148.19
594.424	154.19
594.634	162.19
594.843	145.19
595.053	162.19
595.262	148.19
595.472	159.19
595.681	160.19
595.89	151.19
596.1	140.19
596.309	153.19
596.518	144.19
596.727	153.19
596.937	125.19
597.146	147.19
597.355	152.19
597.564	148.19
597.774	139.19
597.983	140.19
598.192	149.19
598.401	136.19
598.61	136.19
598.819	142.19
599.028	135.19
599.237	134.19
599.446	149.19
599.655	158.19
599.864	129.19
600.073	148.19
600.282	133.19
600.491	144.19
600.7	119.19
600.909	131.19
601.118	123.19
601.327	144.19
601.536	142.19
601.745	139.19
601.953	136.19
602.162	135.19
602.371	140.19
602.58	126.19
602.789	141.19
602.997	125.19
603.206	145.19
603.415	122.19
603.623	133.19
603.832	136.19
604.041	144.19
604.249	143.19
604.458	132.19
604.666	138.19
604.875	118.19
605.084	119.19
605.292	141.19
605.501	137.19
605.709	132.19
605.918	129.19
606.126	127.19
606.334	133.19
606.543	138.19
606.751	132.19
606.96	129.19
607.168	136.19
607.376	129.19
607.585	146.19
607.793	142.19
608.001	140.19
608.21	141.19
608.418	139.19
608.626	148.19
608.834	124.19
609.043	117.19
609.251	127.19
609.459	129.19
609.667	136.19
609.875	139.19
610.083	132.19
610.291	116.19
610.499	130.19
610.707	137.19
610.916	121.19
611.124	126.19
611.332	114.19
611.54	135.19
611.748	132.19
611.955	125.19
612.163	126.19
612.371	121.19
612.579	133.19
612.787	128.19
612.995	134.19
613.203	133.19
613.411	137.19
613.618	127.19
613.826	130.19
614.034	130.19
614.242	119.19
614.449	136.19
614.657	134.19
614.865	128.19
615.072	121.19
615.28	123.19
615.488	128.19
615.695	125.19
615.903	125.19
616.111	132.19
616.318	128.19
616.526	120.19
616.733	125.19
616.941	121.19
617.148	137.19
617.356	140.19
617.563	131.19
617.771	116.19
617.978	127.19
618.185	108.19
618.393	124.19
618.6	146.19
618.807	116.19
619.015	138.19
619.222	131.19
619.429	121.19
619.637	140.19
619.844	114.19
620.051	128.19
620.258	125.19
620.466	139.19
620.673	124.19
620.88	130.19
621.087	129.19
621.294	128.19
621.501	121.19
621.708	123.19
621.915	120.19
622.122	132.19
622.329	115.19
622.536	129.19
622.743	116.19
622.95	123.19
623.157	141.19
623.364	128.19
623.571	120.19
623.778	126.19
623.985	131.19
624.192	128.19
624.399	127.19
624.606	138.19
624.812	126.19
625.019	111.19
625.226	132.19
625.433	115.19
625.639	120.19
625.846	123.19
626.053	122.19
626.259	130.19
626.466	119.19
626.673	112.19
626.879	109.19
627.086	110.19
627.293	106.19
627.499	94.19
627.706	125.19
627.912	135.19
628.119	126.19
628.325	140.19
628.532	131.19
628.738	128.19
628.945	109.19
629.151	126.19
629.357	116.19
629.564	121.19
629.77	127.19
629.976	123.19
630.183	115.19
630.389	121.19
630.595	118.19
630.802	112.19
631.008	118.19
631.214	128.19
631.42	115.19
631.627	123.19
631.833	123.19
632.039	102.19
632.245	106.19
632.451	114.19
632.657	115.19
632.863	124.19
633.069	122.19
633.275	133.19
633.481	115.19
633.688	130.19
633.893	116.19
634.099	104.19
634.305	114.19
634.511	118.19
634.717	111.19
634.923	120.19
635.129	108.19
635.335	125.19
635.541	116.19
635.747	116.19
635.952	111.19
636.158	116.19
636.364	110.19
636.57	105.19
636.775	126.19
636.981	132.19
637.187	118.19
637.392	119.19
637.598	123.19
637.804	107.19
638.009	105.19
638.215	104.19
638.421	105.19
638.626	104.19
638.832	123.19
639.037	106.19
639.243	100.19
639.448	108.19
639.654	103.19
639.859	126.19
640.065	112.19
640.27	125.19
640.475	112.19
640.681	113.19
640.886	120.19
641.091	120.19
641.297	124.19
641.502	120.19
641.707	118.19
641.913	120.19
642.118	114.19
642.323	111.19
642.528	105.19
642.733	96.19
642.939	105.19
643.144	106.19
643.349	106.19
643.554	121.19
643.759	120.19
643.964	107.19
644.169	105.19
644.374	115.19
644.579	108.19
644.784	116.19
644.989	129.19
645.194	118.19
645.399	97.19
645.604	116.19
645.809	110.19
646.014	127.19
646.219	108.19
646.423	108.19
646.628	117.19
646.833	106.19
647.038	113.19
647.243	114.19
647.447	108.19
647.652	114.19
647.857	126.19
648.062	105.19
648.266	112.19
648.471	112.19
648.676	110.19
648.88	124.19
649.085	113.19
649.289	101.19
649.494	122.19
649.698	99.19
649.903	118.19
650.107	114.19
650.312	113.19
650.516	113.19
650.721	111.19
650.925	105.19
651.13	113.19
651.334	108.19
651.539	114.19
651.743	121.19
651.947	111.19
652.152	106.19
652.356	112.19
652.56	120.19
652.764	109.19
652.969	107.19
653.173	112.19
653.377	116.19
653.581	114.19
653.785	103.19
653.99	104.19
654.194	118.19
654.398	120.19
654.602	107.19
654.806	112.19
655.01	105.19
655.214	104.19
655.418	104.19
655.622	101.19
655.826	119.19
656.03	106.19
656.234	111.19
656.438	117.19
656.642	108.19
656.846	113.19
657.049	100.19
657.253	106.19
657.457	102.19
657.661	112.19
657.865	101.19
658.068	93.19
658.272	94.19
658.476	83.19
658.68	92.19
658.883	103.19
659.087	89.19
659.291	89.19
659.494	101.19
659.698	100.19
659.901	89.19
660.105	90.19
660.309	89.19
660.512	101.19
660.716	77.19
660.919	92.19
661.123	99.19
661.326	87.19
661.53	92.19
661.733	78.19
661.936	92.19
662.14	77.19
662.343	93.19
662.546	88.19
662.75	73.19
662.953	82.19
663.156	98.19
663.36	76.19
663.563	75.19
663.766	90.19
663.969	89.19
664.173	88.19
664.376	87.19
664.579	93.19
664.782	83.19
664.985	82.19
665.188	87.19
665.391	84.19
665.594	83.19
665.797	90.19
666	73.19
666.203	87.19
666.406	81.19
666.609	87.19
666.812	85.19
667.015	92.19
667.218	89.19
667.421	82.19
667.624	78.19
667.827	76.19
668.03	89.19
668.232	79.19
668.435	77.19
668.638	86.19
668.841	90.19
669.043	73.19
669.246	82.19
669.449	86.19
669.651	79.19
669.854	83.19
670.057	91.19
670.259	67.19
670.462	83.19
670.665	77.19
670.867	86.19
671.07	84.19
671.272	81.19
671.475	88.19
671.677	84.19
671.88	91.19
672.082	75.19
672.284	74.19
672.487	81.19
672.689	79.19
672.892	84.19
