Data from Fe(NO3)3@0.05M.TitratingCurve.Agarose3%dH2O.NegLispCup.LampEnergy10.LIBS07252019_HRD10591_16-48-50-334.txt Node
Date: Thu Jul 25 16:48:50 EDT 2019
User: cochatt
Spectrometer: HR+D1059
Trigger mode: 1
Integration Time (sec): 1.000000E-1
Scans to average: 1
Electric dark correction enabled: true
Nonlinearity correction enabled: false
Boxcar width: 0
XAxis mode: Wavelengths
Number of Pixels in Spectrum: 2048
>>>>>Begin Spectral Data<<<<<
223.165	-22
223.4	-22
223.635	-22
223.869	-26
224.104	-26
224.338	-10
224.573	-2
224.808	3
225.042	-11
225.277	-8
225.511	5
225.746	4
225.98	5
226.215	21
226.449	12
226.683	10
226.918	18
227.152	27
227.387	44
227.621	53
227.856	43
228.09	43
228.324	65
228.559	70
228.793	72
229.027	71
229.262	78
229.496	85
229.73	86
229.964	84
230.199	81
230.433	99
230.667	95
230.901	77
231.136	87
231.37	111
231.604	111
231.838	88
232.072	108
232.306	111
232.541	102
232.775	100
233.009	92
233.243	97
233.477	106
233.711	88
233.945	93
234.179	94
234.413	90
234.647	96
234.881	101
235.115	90
235.349	75
235.583	93
235.817	100
236.051	96
236.285	101
236.519	104
236.753	100
236.987	95
237.221	102
237.455	88
237.689	92
237.922	95
238.156	101
238.39	106
238.624	99
238.858	104
239.091	112
239.325	88
239.559	98
239.793	124
240.027	107
240.26	119
240.494	92
240.728	115
240.961	91
241.195	128
241.429	99
241.662	88
241.896	100
242.13	103
242.363	84
242.597	90
242.83	109
243.064	110
243.298	100
243.531	116
243.765	114
243.998	113
244.232	109
244.465	106
244.699	105
244.932	99
245.166	101
245.399	124
245.633	125
245.866	127
246.099	94
246.333	121
246.566	97
246.8	100
247.033	109
247.266	119
247.5	105
247.733	117
247.966	120
248.2	116
248.433	94
248.666	120
248.899	120
249.133	131
249.366	127
249.599	121
249.832	108
250.066	121
250.299	117
250.532	119
250.765	131
250.998	115
251.231	117
251.465	131
251.698	131
251.931	139
252.164	116
252.397	129
252.63	123
252.863	123
253.096	127
253.329	115
253.562	109
253.795	130
254.028	134
254.261	143
254.494	125
254.727	133
254.96	128
255.193	128
255.426	115
255.659	133
255.892	116
256.124	135
256.357	118
256.59	125
256.823	132
257.056	133
257.289	132
257.521	122
257.754	139
257.987	122
258.22	131
258.452	124
258.685	145
258.918	128
259.151	136
259.383	145
259.616	118
259.849	133
260.081	146
260.314	151
260.547	133
260.779	121
261.012	132
261.244	127
261.477	143
261.71	145
261.942	130
262.175	145
262.407	133
262.64	133
262.872	141
263.105	150
263.337	141
263.57	146
263.802	150
264.035	145
264.267	153
264.499	133
264.732	139
264.964	131
265.197	133
265.429	143
265.661	139
265.894	147
266.126	151
266.358	140
266.591	141
266.823	133
267.055	153
267.287	141
267.52	144
267.752	169
267.984	156
268.216	153
268.448	153
268.681	159
268.913	143
269.145	138
269.377	157
269.609	141
269.841	147
270.073	151
270.306	149
270.538	139
270.77	151
271.002	156
271.234	159
271.466	151
271.698	162
271.93	163
272.162	174
272.394	154
272.626	157
272.858	143
273.09	151
273.322	160
273.553	150
273.785	166
274.017	155
274.249	155
274.481	164
274.713	163
274.945	160
275.176	164
275.408	159
275.64	170
275.872	165
276.104	167
276.335	156
276.567	167
276.799	161
277.031	152
277.262	172
277.494	159
277.726	167
277.957	142
278.189	172
278.421	163
278.652	176
278.884	159
279.115	169
279.347	167
279.579	167
279.81	156
280.042	168
280.273	172
280.505	178
280.736	174
280.968	174
281.199	161
281.431	164
281.662	173
281.894	155
282.125	153
282.356	165
282.588	167
282.819	175
283.051	166
283.282	166
283.513	172
283.745	168
283.976	162
284.207	183
284.439	179
284.67	177
284.901	175
285.132	184
285.364	159
285.595	175
285.826	164
286.057	172
286.288	183
286.52	179
286.751	165
286.982	176
287.213	163
287.444	152
287.675	183
287.906	183
288.138	186
288.369	158
288.6	179
288.831	192
289.062	193
289.293	163
289.524	174
289.755	183
289.986	169
290.217	177
290.448	187
290.679	184
290.91	173
291.141	195
291.371	193
291.602	165
291.833	174
292.064	183
292.295	176
292.526	183
292.757	177
292.987	182
293.218	187
293.449	175
293.68	197
293.91	183
294.141	179
294.372	185
294.603	189
294.833	192
295.064	191
295.295	193
295.525	181
295.756	186
295.987	174
296.217	182
296.448	196
296.679	215
296.909	197
297.14	204
297.37	189
297.601	199
297.831	196
298.062	175
298.292	191
298.523	183
298.753	195
298.984	188
299.214	209
299.445	204
299.675	187
299.905	197
300.136	171
300.366	193
300.597	207
300.827	192
301.057	193
301.288	189
301.518	197
301.748	199
301.979	191
302.209	202
302.439	208
302.669	212
302.9	194
303.13	198
303.36	213
303.59	205
303.82	209
304.051	195
304.281	200
304.511	207
304.741	207
304.971	189
305.201	187
305.431	211
305.661	203
305.891	195
306.121	204
306.352	183
306.582	189
306.812	195
307.042	192
307.272	198
307.502	200
307.731	194
307.961	183
308.191	198
308.421	191
308.651	209
308.881	197
309.111	189
309.341	195
309.571	197
309.8	189
310.03	187
310.26	191
310.49	195
310.72	208
310.949	208
311.179	216
311.409	220
311.639	198
311.868	206
312.098	200
312.328	202
312.557	203
312.787	202
313.017	204
313.246	198
313.476	208
313.706	215
313.935	207
314.165	209
314.394	219
314.624	205
314.853	205
315.083	208
315.312	197
315.542	205
315.771	228
316.001	212
316.23	229
316.46	203
316.689	195
316.919	205
317.148	208
317.377	210
317.607	204
317.836	219
318.065	223
318.295	206
318.524	206
318.753	208
318.983	210
319.212	201
319.441	203
319.67	195
319.9	204
320.129	200
320.358	229
320.587	218
320.816	203
321.046	214
321.275	201
321.504	214
321.733	206
321.962	199
322.191	208
322.42	222
322.649	216
322.878	206
323.108	222
323.337	189
323.566	209
323.795	220
324.024	237
324.253	218
324.482	220
324.71	214
324.939	222
325.168	222
325.397	219
325.626	208
325.855	208
326.084	245
326.313	232
326.542	225
326.77	227
326.999	225
327.228	223
327.457	211
327.686	231
327.914	234
328.143	239
328.372	222
328.6	230
328.829	220
329.058	217
329.287	221
329.515	216
329.744	232
329.972	236
330.201	231
330.43	233
330.658	223
330.887	231
331.115	228
331.344	237
331.572	239
331.801	238
332.03	222
332.258	234
332.486	261
332.715	257
332.943	257
333.172	278
333.4	272
333.629	285
333.857	264
334.085	289
334.314	266
334.542	259
334.771	252
334.999	269
335.227	273
335.455	263
335.684	270
335.912	273
336.14	263
336.369	269
336.597	267
336.825	280
337.053	270
337.281	270
337.51	250
337.738	238
337.966	236
338.194	242
338.422	224
338.65	236
338.878	249
339.106	234
339.334	236
339.562	241
339.79	236
340.018	227
340.246	236
340.474	210
340.702	209
340.93	242
341.158	228
341.386	243
341.614	228
341.842	240
342.07	232
342.298	247
342.526	229
342.754	208
342.981	241
343.209	236
343.437	243
343.665	235
343.893	259
344.12	268
344.348	272
344.576	277
344.804	256
345.031	244
345.259	248
345.487	233
345.714	237
345.942	238
346.17	228
346.397	206
346.625	224
346.853	228
347.08	233
347.308	225
347.535	219
347.763	214
347.99	232
348.218	232
348.445	232
348.673	226
348.9	225
349.128	231
349.355	230
349.583	216
349.81	217
350.037	227
350.265	228
350.492	218
350.72	230
350.947	223
351.174	215
351.402	225
351.629	220
351.856	226
352.083	230
352.311	222
352.538	220
352.765	213
352.992	236
353.22	218
353.447	230
353.674	234
353.901	220
354.128	226
354.355	226
354.583	236
354.81	225
355.037	218
355.264	223
355.491	221
355.718	214
355.945	221
356.172	227
356.399	230
356.626	228
356.853	220
357.08	211
357.307	225
357.534	228
357.761	230
357.988	222
358.215	235
358.441	223
358.668	233
358.895	228
359.122	211
359.349	222
359.576	224
359.802	209
360.029	221
360.256	226
360.483	235
360.709	221
360.936	232
361.163	227
361.39	228
361.616	208
361.843	235
362.07	222
362.296	236
362.523	222
362.749	216
362.976	214
363.203	242
363.429	239
363.656	234
363.882	237
364.109	229
364.335	234
364.562	211
364.788	215
365.015	230
365.241	236
365.468	229
365.694	218
365.92	229
366.147	237
366.373	239
366.599	229
366.826	226
367.052	239
367.278	216
367.505	235
367.731	241
367.957	213
368.184	229
368.41	233
368.636	227
368.862	212
369.089	230
369.315	232
369.541	233
369.767	223
369.993	238
370.219	242
370.445	229
370.672	238
370.898	236
371.124	231
371.35	236
371.576	254
371.802	246
372.028	228
372.254	247
372.48	243
372.706	248
372.932	254
373.158	258
373.384	247
373.61	259
373.835	259
374.061	259
374.287	276
374.513	255
374.739	280
374.965	243
375.191	245
375.416	259
375.642	241
375.868	240
376.094	261
376.319	265
376.545	246
376.771	261
376.997	253
377.222	234
377.448	228
377.674	243
377.899	245
378.125	249
378.35	240
378.576	236
378.802	235
379.027	243
379.253	256
379.478	247
379.704	238
379.929	257
380.155	240
380.38	244
380.606	259
380.831	250
381.057	259
381.282	258
381.507	240
381.733	237
381.958	255
382.184	277
382.409	264
382.634	257
382.86	276
383.085	269
383.31	270
383.535	270
383.761	259
383.986	268
384.211	283
384.436	288
384.662	282
384.887	292
385.112	299
385.337	300
385.562	287
385.787	274
386.013	290
386.238	281
386.463	281
386.688	299
386.913	292
387.138	296
387.363	281
387.588	276
387.813	292
388.038	281
388.263	293
388.488	281
388.713	295
388.938	303
389.163	282
389.387	303
389.612	291
389.837	301
390.062	295
390.287	264
390.512	283
390.736	295
390.961	283
391.186	301
391.411	302
391.636	297
391.86	304
392.085	331
392.31	316
392.534	323
392.759	309
392.984	314
393.208	326
393.433	309
393.658	319
393.882	305
394.107	311
394.331	292
394.556	316
394.78	316
395.005	310
395.229	306
395.454	311
395.678	329
395.903	317
396.127	328
396.352	307
396.576	307
396.801	318
397.025	311
397.249	324
397.474	324
397.698	318
397.922	306
398.147	302
398.371	348
398.595	355
398.82	363
399.044	380
399.268	401
399.492	413
399.717	480
399.941	501
400.165	419
400.389	430
400.613	388
400.837	377
401.062	354
401.286	361
401.51	368
401.734	377
401.958	361
402.182	365
402.406	368
402.63	358
402.854	378
403.078	373
403.302	381
403.526	372
403.75	376
403.974	380
404.198	367
404.422	399
404.645	411
404.869	397
405.093	387
405.317	392
405.541	397
405.765	366
405.988	397
406.212	387
406.436	383
406.66	393
406.883	412
407.107	430
407.331	419
407.555	434
407.778	423
408.002	422
408.226	404
408.449	414
408.673	413
408.896	406
409.12	404
409.344	399
409.567	404
409.791	423
410.014	387
410.238	401
410.461	413
410.685	377
410.908	389
411.132	394
411.355	389
411.578	382
411.802	388
412.025	378
412.249	362
412.472	383
412.695	398
412.919	361
413.142	351
413.365	381
413.589	364
413.812	377
414.035	379
414.258	380
414.482	366
414.705	377
414.928	375
415.151	363
415.374	378
415.597	390
415.821	374
416.044	361
416.267	383
416.49	361
416.713	366
416.936	355
417.159	352
417.382	383
417.605	355
417.828	355
418.051	363
418.274	361
418.497	371
418.72	375
418.943	389
419.166	397
419.389	409
419.611	391
419.834	383
420.057	389
420.28	391
420.503	360
420.726	367
420.948	367
421.171	373
421.394	356
421.617	358
421.839	361
422.062	397
422.285	373
422.507	368
422.73	352
422.953	355
423.175	362
423.398	367
423.621	373
423.843	351
424.066	377
424.288	372
424.511	388
424.733	385
424.956	387
425.178	384
425.401	364
425.623	371
425.846	368
426.068	337
426.291	361
426.513	352
426.735	369
426.958	366
427.18	364
427.402	352
427.625	344
427.847	324
428.069	336
428.292	316
428.514	334
428.736	333
428.958	345
429.181	333
429.403	323
429.625	337
429.847	343
430.069	352
430.292	352
430.514	328
430.736	334
430.958	340
431.18	326
431.402	351
431.624	323
431.846	332
432.068	339
432.29	351
432.512	321
432.734	349
432.956	335
433.178	331
433.4	352
433.622	359
433.844	339
434.066	338
434.287	348
434.509	343
434.731	371
434.953	365
435.175	367
435.397	381
435.618	341
435.84	361
436.062	336
436.284	344
436.505	344
436.727	346
436.949	335
437.17	341
437.392	338
437.614	335
437.835	330
438.057	347
438.278	341
438.5	332
438.721	349
438.943	356
439.165	336
439.386	333
439.608	359
439.829	353
440.05	340
440.272	361
440.493	350
440.715	351
440.936	371
441.158	347
441.379	380
441.6	373
441.822	363
442.043	381
442.264	373
442.486	376
442.707	359
442.928	387
443.149	379
443.371	367
443.592	371
443.813	361
444.034	370
444.255	399
444.476	425
444.698	404
444.919	411
445.14	535
445.361	445
445.582	387
445.803	374
446.024	362
446.245	355
446.466	355
446.687	367
446.908	362
447.129	352
447.35	356
447.571	346
447.792	340
448.013	349
448.234	334
448.455	341
448.675	342
448.896	321
449.117	330
449.338	351
449.559	315
449.779	346
450	324
450.221	334
450.442	338
450.662	339
450.883	325
451.104	326
451.324	328
451.545	337
451.766	327
451.986	317
452.207	328
452.428	332
452.648	324
452.869	317
453.089	300
453.31	330
453.53	311
453.751	293
453.971	305
454.192	315
454.412	305
454.633	283
454.853	311
455.073	318
455.294	328
455.514	293
455.734	312
455.955	313
456.175	285
456.395	294
456.616	288
456.836	308
457.056	313
457.276	315
457.497	297
457.717	291
457.937	293
458.157	309
458.377	302
458.598	323
458.818	311
459.038	320
459.258	323
459.478	359
459.698	366
459.918	353
460.138	363
460.358	362
460.578	405
460.798	393
461.018	388
461.238	382
461.458	387
461.678	376
461.898	375
462.118	416
462.338	420
462.558	429
462.777	407
462.997	462
463.217	460
463.437	488
463.657	462
463.876	439
464.096	428
464.316	422
464.536	420
464.755	449
464.975	414
465.195	408
465.414	376
465.634	368
465.854	358
466.073	362
466.293	373
466.512	341
466.732	325
466.951	339
467.171	337
467.391	349
467.61	330
467.829	350
468.049	328
468.268	314
468.488	320
468.707	313
468.927	327
469.146	329
469.365	329
469.585	331
469.804	346
470.023	345
470.243	343
470.462	351
470.681	350
470.901	350
471.12	342
471.339	356
471.558	321
471.777	330
471.997	318
472.216	326
472.435	319
472.654	318
472.873	329
473.092	325
473.311	305
473.53	323
473.749	311
473.968	296
474.187	296
474.406	312
474.625	345
474.844	313
475.063	312
475.282	309
475.501	314
475.72	304
475.939	332
476.158	320
476.377	345
476.596	326
476.814	323
477.033	319
477.252	332
477.471	339
477.69	336
477.908	353
478.127	370
478.346	363
478.564	373
478.783	375
479.002	363
479.22	377
479.439	376
479.658	365
479.876	367
480.095	369
480.313	355
480.532	391
480.751	394
480.969	368
481.188	341
481.406	350
481.624	350
481.843	340
482.061	333
482.28	350
482.498	321
482.717	341
482.935	362
483.153	346
483.372	351
483.59	347
483.808	361
484.027	348
484.245	351
484.463	359
484.681	363
484.9	345
485.118	379
485.336	351
485.554	349
485.772	368
485.99	348
486.209	348
486.427	336
486.645	347
486.863	372
487.081	367
487.299	352
487.517	359
487.735	360
487.953	374
488.171	379
488.389	360
488.607	367
488.825	346
489.043	355
489.261	351
489.479	344
489.696	347
489.914	371
490.132	364
490.35	374
490.568	364
490.786	357
491.003	368
491.221	356
491.439	365
491.657	372
491.874	393
492.092	376
492.31	375
492.527	398
492.745	377
492.963	376
493.18	368
493.398	366
493.615	358
493.833	376
494.05	383
494.268	358
494.485	368
494.703	391
494.92	375
495.138	405
495.355	383
495.573	399
495.79	400
496.008	405
496.225	431
496.442	393
496.66	399
496.877	404
497.094	411
497.312	442
497.529	428
497.746	417
497.963	437
498.181	463
498.398	466
498.615	489
498.832	502
499.049	549
499.267	569
499.484	632
499.701	669
499.918	727
500.135	811
500.352	900
500.569	927
500.786	910
501.003	844
501.22	765
501.437	694
501.654	660
501.871	617
502.088	582
502.305	541
502.522	529
502.739	509
502.956	486
503.172	446
503.389	456
503.606	427
503.823	428
504.04	440
504.256	419
504.473	433
504.69	425
504.907	424
505.123	393
505.34	397
505.557	398
505.773	377
505.99	368
506.207	356
506.423	363
506.64	346
506.856	334
507.073	354
507.289	336
507.506	344
507.722	334
507.939	328
508.155	347
508.372	338
508.588	331
508.805	329
509.021	328
509.238	328
509.454	323
509.67	323
509.887	327
510.103	318
510.319	311
510.536	313
510.752	310
510.968	318
511.184	302
511.401	325
511.617	323
511.833	305
512.049	326
512.265	291
512.481	309
512.698	307
512.914	311
513.13	313
513.346	299
513.562	316
513.778	338
513.994	333
514.21	296
514.426	320
514.642	319
514.858	319
515.074	333
515.29	328
515.506	327
515.721	330
515.937	327
516.153	352
516.369	352
516.585	334
516.801	352
517.016	368
517.232	377
517.448	376
517.664	383
517.879	402
518.095	410
518.311	416
518.527	396
518.742	383
518.958	367
519.173	345
519.389	355
519.605	339
519.82	337
520.036	342
520.251	319
520.467	315
520.682	301
520.898	295
521.113	324
521.329	305
521.544	288
521.76	309
521.975	292
522.19	300
522.406	299
522.621	284
522.836	292
523.052	291
523.267	311
523.482	286
523.698	301
523.913	300
524.128	279
524.343	268
524.559	289
524.774	288
524.989	318
525.204	290
525.419	285
525.634	279
525.849	294
526.064	286
526.28	293
526.495	287
526.71	296
526.925	291
527.14	287
527.355	287
527.57	297
527.785	283
527.999	254
528.214	286
528.429	289
528.644	298
528.859	298
529.074	305
529.289	300
529.503	301
529.718	302
529.933	271
530.148	300
530.363	278
530.577	283
530.792	272
531.007	282
531.221	277
531.436	296
531.651	296
531.865	297
532.08	272
532.295	283
532.509	265
532.724	280
532.938	274
533.153	282
533.367	286
533.582	281
533.796	285
534.011	295
534.225	297
534.44	291
534.654	279
534.868	289
535.083	274
535.297	273
535.511	278
535.726	269
535.94	282
536.154	273
536.369	273
536.583	275
536.797	269
537.011	257
537.225	257
537.44	272
537.654	283
537.868	275
538.082	295
538.296	280
538.51	260
538.724	254
538.938	271
539.153	274
539.367	288
539.581	269
539.795	275
540.009	277
540.222	266
540.436	242
540.65	266
540.864	271
541.078	273
541.292	276
541.506	286
541.72	286
541.934	281
542.147	285
542.361	277
542.575	292
542.789	280
543.002	268
543.216	282
543.43	269
543.644	283
543.857	278
544.071	263
544.285	262
544.498	277
544.712	277
544.925	261
545.139	278
545.352	279
545.566	273
545.779	284
545.993	261
546.206	276
546.42	277
546.633	289
546.847	280
547.06	272
547.274	282
547.487	278
547.7	290
547.914	296
548.127	264
548.34	286
548.554	272
548.767	266
548.98	279
549.193	276
549.407	289
549.62	272
549.833	288
550.046	293
550.259	281
550.473	261
550.686	287
550.899	271
551.112	277
551.325	281
551.538	290
551.751	280
551.964	252
552.177	271
552.39	283
552.603	295
552.816	290
553.029	292
553.242	301
553.455	303
553.667	291
553.88	288
554.093	267
554.306	279
554.519	280
554.732	279
554.944	271
555.157	262
555.37	270
555.583	286
555.795	271
556.008	249
556.221	260
556.433	246
556.646	256
556.859	233
557.071	233
557.284	249
557.496	265
557.709	236
557.921	229
558.134	250
558.346	255
558.559	238
558.771	229
558.984	229
559.196	236
559.409	224
559.621	228
559.833	230
560.046	244
560.258	232
560.47	236
560.683	225
560.895	229
561.107	233
561.32	247
561.532	239
561.744	248
561.956	241
562.168	242
562.381	233
562.593	220
562.805	247
563.017	243
563.229	237
563.441	231
563.653	260
563.865	243
564.077	223
564.289	239
564.501	253
564.713	254
564.925	253
565.137	251
565.349	267
565.561	263
565.773	263
565.985	278
566.197	287
566.408	311
566.62	312
566.832	312
567.044	335
567.255	329
567.467	333
567.679	353
567.891	365
568.102	371
568.314	352
568.526	339
568.737	319
568.949	291
569.161	285
569.372	250
569.584	261
569.795	255
570.007	268
570.218	252
570.43	236
570.641	239
570.853	223
571.064	244
571.276	237
571.487	239
571.698	255
571.91	209
572.121	222
572.333	219
572.544	193
572.755	217
572.966	209
573.178	203
573.389	222
573.6	179
573.811	202
574.023	193
574.234	207
574.445	207
574.656	212
574.867	208
575.078	194
575.289	197
575.501	206
575.712	197
575.923	202
576.134	193
576.345	199
576.556	195
576.767	217
576.978	195
577.188	194
577.399	193
577.61	189
577.821	200
578.032	198
578.243	191
578.454	184
578.665	190
578.875	177
579.086	172
579.297	185
579.508	176
579.718	176
579.929	183
580.14	187
580.35	206
580.561	175
580.772	188
580.982	188
581.193	180
581.403	185
581.614	184
581.825	184
582.035	172
582.246	190
582.456	191
582.667	180
582.877	168
583.087	175
583.298	183
583.508	181
583.719	189
583.929	191
584.139	183
584.35	180
584.56	174
584.77	169
584.981	175
585.191	176
585.401	165
585.611	168
585.821	181
586.032	185
586.242	180
586.452	169
586.662	195
586.872	208
587.082	179
587.292	168
587.502	168
587.713	174
587.923	155
588.133	181
588.343	176
588.553	176
588.762	184
588.972	185
589.182	169
589.392	183
589.602	170
589.812	171
590.022	181
590.232	173
590.441	171
590.651	164
590.861	176
591.071	183
591.281	202
591.49	180
591.7	171
591.91	198
592.119	189
592.329	175
592.539	182
592.748	203
592.958	196
593.167	196
593.377	200
593.587	213
593.796	202
594.006	207
594.215	199
594.424	199
594.634	186
594.843	192
595.053	174
595.262	182
595.472	196
595.681	186
595.89	175
596.1	179
596.309	184
596.518	177
596.727	171
596.937	164
597.146	163
597.355	176
597.564	159
597.774	165
597.983	168
598.192	150
598.401	169
598.61	164
598.819	156
599.028	153
599.237	177
599.446	166
599.655	165
599.864	158
600.073	152
600.282	163
600.491	163
600.7	155
600.909	165
601.118	144
601.327	170
601.536	145
601.745	165
601.953	154
602.162	151
602.371	159
602.58	158
602.789	160
602.997	164
603.206	161
603.415	156
603.623	147
603.832	155
604.041	184
604.249	151
604.458	156
604.666	146
604.875	130
605.084	165
605.292	164
605.501	153
605.709	152
605.918	149
606.126	135
606.334	140
606.543	160
606.751	161
606.96	152
607.168	159
607.376	181
607.585	151
607.793	157
608.001	141
608.21	153
608.418	149
608.626	143
608.834	154
609.043	163
609.251	154
609.459	149
609.667	148
609.875	154
610.083	147
610.291	149
610.499	142
610.707	138
610.916	151
611.124	147
611.332	154
611.54	155
611.748	151
611.955	134
612.163	155
612.371	157
612.579	162
612.787	133
612.995	160
613.203	147
613.411	136
613.618	146
613.826	152
614.034	150
614.242	141
614.449	154
614.657	147
614.865	150
615.072	156
615.28	145
615.488	146
615.695	159
615.903	151
616.111	132
616.318	167
616.526	146
616.733	149
616.941	163
617.148	149
617.356	131
617.563	134
617.771	145
617.978	159
618.185	150
618.393	160
618.6	150
618.807	140
619.015	144
619.222	149
619.429	159
619.637	150
619.844	155
620.051	131
620.258	141
620.466	155
620.673	135
620.88	138
621.087	144
621.294	128
621.501	134
621.708	151
621.915	137
622.122	135
622.329	141
622.536	137
622.743	134
622.95	129
623.157	141
623.364	144
623.571	149
623.778	148
623.985	146
624.192	129
624.399	145
624.606	142
624.812	143
625.019	139
625.226	137
625.433	144
625.639	132
625.846	129
626.053	144
626.259	140
626.466	131
626.673	134
626.879	137
627.086	131
627.293	144
627.499	151
627.706	137
627.912	133
628.119	151
628.325	131
628.532	125
628.738	128
628.945	123
629.151	129
629.357	139
629.564	120
629.77	120
629.976	124
630.183	122
630.389	121
630.595	125
630.802	121
631.008	138
631.214	125
631.42	135
631.627	122
631.833	136
632.039	140
632.245	126
632.451	125
632.657	119
632.863	117
633.069	132
633.275	113
633.481	117
633.688	127
633.893	141
634.099	131
634.305	142
634.511	121
634.717	127
634.923	126
635.129	110
635.335	127
635.541	129
635.747	125
635.952	120
636.158	120
636.364	126
636.57	106
636.775	118
636.981	141
637.187	125
637.392	124
637.598	126
637.804	137
638.009	123
638.215	128
638.421	118
638.626	126
638.832	113
639.037	105
639.243	124
639.448	129
639.654	116
639.859	111
640.065	127
640.27	125
640.475	132
640.681	127
640.886	129
641.091	119
641.297	134
641.502	109
641.707	131
641.913	123
642.118	127
642.323	118
642.528	127
642.733	119
642.939	117
643.144	115
643.349	117
643.554	125
643.759	115
643.964	111
644.169	133
644.374	119
644.579	117
644.784	117
644.989	113
645.194	131
645.399	119
645.604	124
645.809	101
646.014	127
646.219	109
646.423	113
646.628	112
646.833	123
647.038	119
647.243	120
647.447	125
647.652	123
647.857	119
648.062	118
648.266	115
648.471	122
648.676	124
648.88	119
649.085	121
649.289	129
649.494	123
649.698	133
649.903	121
650.107	96
650.312	131
650.516	115
650.721	113
650.925	97
651.13	113
651.334	113
651.539	115
651.743	121
651.947	117
652.152	116
652.356	105
652.56	123
652.764	91
652.969	105
653.173	119
653.377	98
653.581	107
653.785	118
653.99	105
654.194	104
654.398	107
654.602	90
654.806	100
655.01	101
655.214	88
655.418	88
655.622	104
655.826	104
656.03	106
656.234	107
656.438	109
656.642	104
656.846	101
657.049	93
657.253	99
657.457	109
657.661	107
657.865	106
658.068	100
658.272	93
658.476	99
658.68	80
658.883	104
659.087	96
659.291	98
659.494	91
659.698	69
659.901	81
660.105	92
660.309	91
660.512	92
660.716	100
660.919	85
661.123	85
661.326	91
661.53	86
661.733	86
661.936	91
662.14	86
662.343	81
662.546	98
662.75	90
662.953	80
663.156	101
663.36	85
663.563	86
663.766	73
663.969	84
664.173	89
664.376	85
664.579	73
664.782	94
664.985	86
665.188	98
665.391	80
665.594	94
665.797	87
666	75
666.203	90
666.406	84
666.609	90
666.812	87
667.015	88
667.218	76
667.421	90
667.624	84
667.827	80
668.03	88
668.232	85
668.435	103
668.638	81
668.841	74
669.043	75
669.246	79
669.449	97
669.651	102
669.854	91
670.057	96
670.259	97
670.462	72
670.665	82
670.867	89
671.07	75
671.272	82
671.475	101
671.677	102
671.88	83
672.082	83
672.284	91
672.487	95
672.689	81
672.892	81
