Data from Fe(NO3)3@0.05M.TitratingCurve.Agarose3%dH2O.NegLispCup.LampEnergy10.LIBS07252019_HRD10591_16-48-21-334.txt Node
Date: Thu Jul 25 16:48:21 EDT 2019
User: cochatt
Spectrometer: HR+D1059
Trigger mode: 1
Integration Time (sec): 1.000000E-1
Scans to average: 1
Electric dark correction enabled: true
Nonlinearity correction enabled: false
Boxcar width: 0
XAxis mode: Wavelengths
Number of Pixels in Spectrum: 2048
>>>>>Begin Spectral Data<<<<<
223.165	-13.69
223.4	-13.69
223.635	-13.69
223.869	-18.69
224.104	-23.69
224.338	-19.69
224.573	-12.69
224.808	-9.69
225.042	-6.69
225.277	3.31
225.511	-2.69
225.746	2.31
225.98	3.31
226.215	6.31
226.449	15.31
226.683	18.31
226.918	24.31
227.152	34.31
227.387	15.31
227.621	39.31
227.856	42.31
228.09	53.31
228.324	61.31
228.559	45.31
228.793	50.31
229.027	56.31
229.262	71.31
229.496	79.31
229.73	73.31
229.964	73.31
230.199	76.31
230.433	86.31
230.667	77.31
230.901	79.31
231.136	71.31
231.37	86.31
231.604	93.31
231.838	104.31
232.072	83.31
232.306	87.31
232.541	84.31
232.775	79.31
233.009	95.31
233.243	82.31
233.477	100.31
233.711	100.31
233.945	84.31
234.179	91.31
234.413	75.31
234.647	69.31
234.881	94.31
235.115	83.31
235.349	101.31
235.583	93.31
235.817	90.31
236.051	83.31
236.285	109.31
236.519	79.31
236.753	84.31
236.987	70.31
237.221	69.31
237.455	90.31
237.689	89.31
237.922	82.31
238.156	82.31
238.39	87.31
238.624	91.31
238.858	86.31
239.091	85.31
239.325	95.31
239.559	89.31
239.793	107.31
240.027	86.31
240.26	94.31
240.494	93.31
240.728	92.31
240.961	93.31
241.195	88.31
241.429	85.31
241.662	86.31
241.896	94.31
242.13	80.31
242.363	86.31
242.597	93.31
242.83	83.31
243.064	88.31
243.298	85.31
243.531	99.31
243.765	98.31
243.998	112.31
244.232	80.31
244.465	97.31
244.699	97.31
244.932	84.31
245.166	102.31
245.399	87.31
245.633	101.31
245.866	87.31
246.099	101.31
246.333	110.31
246.566	100.31
246.8	100.31
247.033	86.31
247.266	88.31
247.5	97.31
247.733	91.31
247.966	98.31
248.2	97.31
248.433	96.31
248.666	90.31
248.899	103.31
249.133	102.31
249.366	115.31
249.599	109.31
249.832	113.31
250.066	101.31
250.299	99.31
250.532	101.31
250.765	102.31
250.998	99.31
251.231	86.31
251.465	111.31
251.698	109.31
251.931	97.31
252.164	101.31
252.397	106.31
252.63	112.31
252.863	109.31
253.096	109.31
253.329	106.31
253.562	112.31
253.795	114.31
254.028	112.31
254.261	104.31
254.494	97.31
254.727	96.31
254.96	115.31
255.193	117.31
255.426	106.31
255.659	119.31
255.892	118.31
256.124	105.31
256.357	117.31
256.59	107.31
256.823	122.31
257.056	118.31
257.289	108.31
257.521	92.31
257.754	127.31
257.987	113.31
258.22	118.31
258.452	121.31
258.685	125.31
258.918	112.31
259.151	108.31
259.383	110.31
259.616	103.31
259.849	110.31
260.081	117.31
260.314	118.31
260.547	120.31
260.779	118.31
261.012	127.31
261.244	125.31
261.477	139.31
261.71	113.31
261.942	118.31
262.175	114.31
262.407	131.31
262.64	117.31
262.872	125.31
263.105	114.31
263.337	128.31
263.57	119.31
263.802	113.31
264.035	113.31
264.267	111.31
264.499	125.31
264.732	109.31
264.964	105.31
265.197	118.31
265.429	115.31
265.661	137.31
265.894	106.31
266.126	123.31
266.358	120.31
266.591	111.31
266.823	121.31
267.055	119.31
267.287	112.31
267.52	107.31
267.752	125.31
267.984	106.31
268.216	109.31
268.448	122.31
268.681	123.31
268.913	109.31
269.145	121.31
269.377	121.31
269.609	120.31
269.841	121.31
270.073	119.31
270.306	122.31
270.538	125.31
270.77	127.31
271.002	121.31
271.234	133.31
271.466	136.31
271.698	122.31
271.93	124.31
272.162	137.31
272.394	132.31
272.626	131.31
272.858	135.31
273.09	129.31
273.322	147.31
273.553	120.31
273.785	117.31
274.017	125.31
274.249	135.31
274.481	126.31
274.713	141.31
274.945	145.31
275.176	139.31
275.408	132.31
275.64	139.31
275.872	141.31
276.104	133.31
276.335	132.31
276.567	134.31
276.799	138.31
277.031	150.31
277.262	130.31
277.494	147.31
277.726	128.31
277.957	122.31
278.189	116.31
278.421	137.31
278.652	129.31
278.884	128.31
279.115	125.31
279.347	129.31
279.579	131.31
279.81	145.31
280.042	129.31
280.273	130.31
280.505	120.31
280.736	135.31
280.968	123.31
281.199	140.31
281.431	142.31
281.662	139.31
281.894	132.31
282.125	134.31
282.356	143.31
282.588	151.31
282.819	129.31
283.051	140.31
283.282	139.31
283.513	136.31
283.745	132.31
283.976	138.31
284.207	124.31
284.439	135.31
284.67	138.31
284.901	127.31
285.132	135.31
285.364	145.31
285.595	138.31
285.826	137.31
286.057	148.31
286.288	137.31
286.52	133.31
286.751	140.31
286.982	126.31
287.213	148.31
287.444	139.31
287.675	144.31
287.906	142.31
288.138	155.31
288.369	149.31
288.6	140.31
288.831	139.31
289.062	144.31
289.293	134.31
289.524	141.31
289.755	142.31
289.986	157.31
290.217	140.31
290.448	130.31
290.679	154.31
290.91	160.31
291.141	139.31
291.371	145.31
291.602	146.31
291.833	133.31
292.064	145.31
292.295	139.31
292.526	141.31
292.757	138.31
292.987	147.31
293.218	143.31
293.449	136.31
293.68	161.31
293.91	144.31
294.141	136.31
294.372	143.31
294.603	153.31
294.833	143.31
295.064	136.31
295.295	141.31
295.525	147.31
295.756	145.31
295.987	145.31
296.217	143.31
296.448	150.31
296.679	140.31
296.909	137.31
297.14	153.31
297.37	135.31
297.601	145.31
297.831	145.31
298.062	162.31
298.292	154.31
298.523	149.31
298.753	156.31
298.984	150.31
299.214	160.31
299.445	155.31
299.675	155.31
299.905	157.31
300.136	152.31
300.366	140.31
300.597	144.31
300.827	152.31
301.057	158.31
301.288	149.31
301.518	156.31
301.748	155.31
301.979	152.31
302.209	153.31
302.439	155.31
302.669	163.31
302.9	158.31
303.13	156.31
303.36	169.31
303.59	152.31
303.82	151.31
304.051	142.31
304.281	156.31
304.511	159.31
304.741	147.31
304.971	147.31
305.201	149.31
305.431	165.31
305.661	155.31
305.891	153.31
306.121	151.31
306.352	162.31
306.582	151.31
306.812	165.31
307.042	144.31
307.272	143.31
307.502	158.31
307.731	152.31
307.961	156.31
308.191	152.31
308.421	133.31
308.651	150.31
308.881	153.31
309.111	133.31
309.341	146.31
309.571	153.31
309.8	163.31
310.03	158.31
310.26	159.31
310.49	159.31
310.72	157.31
310.949	155.31
311.179	156.31
311.409	167.31
311.639	148.31
311.868	156.31
312.098	155.31
312.328	161.31
312.557	156.31
312.787	141.31
313.017	161.31
313.246	145.31
313.476	162.31
313.706	152.31
313.935	156.31
314.165	154.31
314.394	167.31
314.624	152.31
314.853	162.31
315.083	164.31
315.312	170.31
315.542	162.31
315.771	160.31
316.001	174.31
316.23	166.31
316.46	162.31
316.689	165.31
316.919	153.31
317.148	152.31
317.377	147.31
317.607	169.31
317.836	152.31
318.065	160.31
318.295	151.31
318.524	151.31
318.753	155.31
318.983	151.31
319.212	157.31
319.441	152.31
319.67	161.31
319.9	159.31
320.129	159.31
320.358	149.31
320.587	175.31
320.816	159.31
321.046	167.31
321.275	165.31
321.504	164.31
321.733	161.31
321.962	149.31
322.191	169.31
322.42	157.31
322.649	166.31
322.878	163.31
323.108	176.31
323.337	164.31
323.566	154.31
323.795	150.31
324.024	141.31
324.253	154.31
324.482	152.31
324.71	162.31
324.939	163.31
325.168	160.31
325.397	162.31
325.626	168.31
325.855	173.31
326.084	168.31
326.313	169.31
326.542	162.31
326.77	181.31
326.999	155.31
327.228	155.31
327.457	159.31
327.686	169.31
327.914	186.31
328.143	173.31
328.372	191.31
328.6	179.31
328.829	162.31
329.058	170.31
329.287	153.31
329.515	175.31
329.744	166.31
329.972	162.31
330.201	183.31
330.43	178.31
330.658	166.31
330.887	159.31
331.115	177.31
331.344	182.31
331.572	194.31
331.801	165.31
332.03	175.31
332.258	180.31
332.486	169.31
332.715	181.31
332.943	182.31
333.172	187.31
333.4	177.31
333.629	205.31
333.857	185.31
334.085	222.31
334.314	209.31
334.542	209.31
334.771	188.31
334.999	181.31
335.227	187.31
335.455	196.31
335.684	193.31
335.912	196.31
336.14	176.31
336.369	186.31
336.597	199.31
336.825	196.31
337.053	197.31
337.281	194.31
337.51	191.31
337.738	192.31
337.966	191.31
338.194	168.31
338.422	181.31
338.65	169.31
338.878	164.31
339.106	181.31
339.334	191.31
339.562	191.31
339.79	183.31
340.018	181.31
340.246	197.31
340.474	166.31
340.702	184.31
340.93	172.31
341.158	185.31
341.386	173.31
341.614	186.31
341.842	170.31
342.07	182.31
342.298	194.31
342.526	178.31
342.754	171.31
342.981	185.31
343.209	162.31
343.437	179.31
343.665	177.31
343.893	206.31
344.12	197.31
344.348	189.31
344.576	170.31
344.804	186.31
345.031	185.31
345.259	185.31
345.487	180.31
345.714	173.31
345.942	165.31
346.17	179.31
346.397	173.31
346.625	157.31
346.853	177.31
347.08	166.31
347.308	159.31
347.535	176.31
347.763	178.31
347.99	173.31
348.218	186.31
348.445	155.31
348.673	174.31
348.9	177.31
349.128	165.31
349.355	179.31
349.583	170.31
349.81	162.31
350.037	163.31
350.265	170.31
350.492	164.31
350.72	177.31
350.947	176.31
351.174	164.31
351.402	173.31
351.629	159.31
351.856	188.31
352.083	171.31
352.311	166.31
352.538	176.31
352.765	162.31
352.992	165.31
353.22	158.31
353.447	168.31
353.674	160.31
353.901	192.31
354.128	169.31
354.355	162.31
354.583	171.31
354.81	172.31
355.037	159.31
355.264	169.31
355.491	176.31
355.718	171.31
355.945	165.31
356.172	161.31
356.399	160.31
356.626	158.31
356.853	179.31
357.08	170.31
357.307	169.31
357.534	157.31
357.761	174.31
357.988	174.31
358.215	184.31
358.441	185.31
358.668	169.31
358.895	184.31
359.122	173.31
359.349	182.31
359.576	161.31
359.802	161.31
360.029	168.31
360.256	177.31
360.483	179.31
360.709	162.31
360.936	170.31
361.163	187.31
361.39	168.31
361.616	182.31
361.843	162.31
362.07	160.31
362.296	172.31
362.523	163.31
362.749	169.31
362.976	177.31
363.203	167.31
363.429	166.31
363.656	158.31
363.882	170.31
364.109	159.31
364.335	169.31
364.562	166.31
364.788	168.31
365.015	159.31
365.241	173.31
365.468	159.31
365.694	168.31
365.92	177.31
366.147	189.31
366.373	187.31
366.599	177.31
366.826	179.31
367.052	173.31
367.278	179.31
367.505	191.31
367.731	177.31
367.957	181.31
368.184	182.31
368.41	177.31
368.636	179.31
368.862	186.31
369.089	187.31
369.315	180.31
369.541	166.31
369.767	177.31
369.993	186.31
370.219	171.31
370.445	175.31
370.672	190.31
370.898	185.31
371.124	191.31
371.35	175.31
371.576	190.31
371.802	184.31
372.028	181.31
372.254	194.31
372.48	180.31
372.706	193.31
372.932	191.31
373.158	187.31
373.384	204.31
373.61	195.31
373.835	200.31
374.061	198.31
374.287	203.31
374.513	211.31
374.739	193.31
374.965	202.31
375.191	208.31
375.416	197.31
375.642	209.31
375.868	184.31
376.094	183.31
376.319	199.31
376.545	198.31
376.771	204.31
376.997	198.31
377.222	190.31
377.448	203.31
377.674	180.31
377.899	195.31
378.125	195.31
378.35	189.31
378.576	194.31
378.802	197.31
379.027	203.31
379.253	199.31
379.478	175.31
379.704	170.31
379.929	195.31
380.155	199.31
380.38	192.31
380.606	194.31
380.831	191.31
381.057	203.31
381.282	190.31
381.507	192.31
381.733	197.31
381.958	219.31
382.184	211.31
382.409	198.31
382.634	215.31
382.86	216.31
383.085	202.31
383.31	206.31
383.535	195.31
383.761	206.31
383.986	202.31
384.211	198.31
384.436	210.31
384.662	203.31
384.887	213.31
385.112	232.31
385.337	213.31
385.562	227.31
385.787	210.31
386.013	219.31
386.238	225.31
386.463	210.31
386.688	223.31
386.913	231.31
387.138	214.31
387.363	226.31
387.588	227.31
387.813	229.31
388.038	231.31
388.263	217.31
388.488	216.31
388.713	231.31
388.938	216.31
389.163	216.31
389.387	232.31
389.612	219.31
389.837	230.31
390.062	223.31
390.287	227.31
390.512	226.31
390.736	234.31
390.961	224.31
391.186	224.31
391.411	233.31
391.636	228.31
391.86	225.31
392.085	242.31
392.31	255.31
392.534	260.31
392.759	239.31
392.984	235.31
393.208	243.31
393.433	259.31
393.658	234.31
393.882	238.31
394.107	243.31
394.331	235.31
394.556	233.31
394.78	244.31
395.005	251.31
395.229	232.31
395.454	256.31
395.678	239.31
395.903	271.31
396.127	246.31
396.352	231.31
396.576	233.31
396.801	250.31
397.025	250.31
397.249	243.31
397.474	238.31
397.698	243.31
397.922	232.31
398.147	248.31
398.371	265.31
398.595	271.31
398.82	265.31
399.044	270.31
399.268	299.31
399.492	338.31
399.717	339.31
399.941	328.31
400.165	333.31
400.389	301.31
400.613	290.31
400.837	278.31
401.062	263.31
401.286	280.31
401.51	264.31
401.734	275.31
401.958	285.31
402.182	287.31
402.406	275.31
402.63	274.31
402.854	278.31
403.078	287.31
403.302	287.31
403.526	294.31
403.75	305.31
403.974	303.31
404.198	289.31
404.422	311.31
404.645	295.31
404.869	299.31
405.093	309.31
405.317	277.31
405.541	288.31
405.765	288.31
405.988	289.31
406.212	304.31
406.436	298.31
406.66	320.31
406.883	315.31
407.107	319.31
407.331	328.31
407.555	330.31
407.778	335.31
408.002	319.31
408.226	329.31
408.449	313.31
408.673	310.31
408.896	301.31
409.12	298.31
409.344	310.31
409.567	303.31
409.791	320.31
410.014	312.31
410.238	314.31
410.461	305.31
410.685	319.31
410.908	323.31
411.132	302.31
411.355	298.31
411.578	305.31
411.802	306.31
412.025	309.31
412.249	314.31
412.472	315.31
412.695	280.31
412.919	287.31
413.142	278.31
413.365	289.31
413.589	299.31
413.812	283.31
414.035	295.31
414.258	284.31
414.482	293.31
414.705	291.31
414.928	289.31
415.151	301.31
415.374	297.31
415.597	301.31
415.821	281.31
416.044	271.31
416.267	283.31
416.49	285.31
416.713	291.31
416.936	301.31
417.159	282.31
417.382	267.31
417.605	287.31
417.828	302.31
418.051	280.31
418.274	292.31
418.497	290.31
418.72	291.31
418.943	295.31
419.166	296.31
419.389	307.31
419.611	304.31
419.834	290.31
420.057	298.31
420.28	311.31
420.503	284.31
420.726	271.31
420.948	298.31
421.171	277.31
421.394	283.31
421.617	281.31
421.839	305.31
422.062	289.31
422.285	273.31
422.507	283.31
422.73	293.31
422.953	280.31
423.175	285.31
423.398	283.31
423.621	295.31
423.843	294.31
424.066	292.31
424.288	306.31
424.511	302.31
424.733	306.31
424.956	295.31
425.178	309.31
425.401	297.31
425.623	282.31
425.846	287.31
426.068	263.31
426.291	276.31
426.513	289.31
426.735	264.31
426.958	273.31
427.18	281.31
427.402	278.31
427.625	294.31
427.847	280.31
428.069	265.31
428.292	277.31
428.514	275.31
428.736	268.31
428.958	273.31
429.181	282.31
429.403	279.31
429.625	266.31
429.847	273.31
430.069	280.31
430.292	275.31
430.514	273.31
430.736	266.31
430.958	286.31
431.18	285.31
431.402	272.31
431.624	274.31
431.846	270.31
432.068	272.31
432.29	282.31
432.512	283.31
432.734	288.31
432.956	275.31
433.178	282.31
433.4	282.31
433.622	285.31
433.844	293.31
434.066	290.31
434.287	270.31
434.509	262.31
434.731	291.31
434.953	306.31
435.175	298.31
435.397	295.31
435.618	276.31
435.84	285.31
436.062	285.31
436.284	283.31
436.505	293.31
436.727	295.31
436.949	266.31
437.17	284.31
437.392	280.31
437.614	273.31
437.835	275.31
438.057	282.31
438.278	278.31
438.5	285.31
438.721	268.31
438.943	279.31
439.165	291.31
439.386	269.31
439.608	294.31
439.829	303.31
440.05	288.31
440.272	305.31
440.493	279.31
440.715	285.31
440.936	284.31
441.158	301.31
441.379	311.31
441.6	322.31
441.822	307.31
442.043	302.31
442.264	299.31
442.486	305.31
442.707	283.31
442.928	303.31
443.149	314.31
443.371	303.31
443.592	304.31
443.813	329.31
444.034	332.31
444.255	322.31
444.476	319.31
444.698	334.31
444.919	349.31
445.14	458.31
445.361	388.31
445.582	335.31
445.803	307.31
446.024	313.31
446.245	298.31
446.466	298.31
446.687	289.31
446.908	308.31
447.129	287.31
447.35	286.31
447.571	281.31
447.792	286.31
448.013	282.31
448.234	304.31
448.455	273.31
448.675	284.31
448.896	266.31
449.117	296.31
449.338	275.31
449.559	267.31
449.779	279.31
450	267.31
450.221	268.31
450.442	281.31
450.662	282.31
450.883	277.31
451.104	291.31
451.324	287.31
451.545	289.31
451.766	283.31
451.986	276.31
452.207	262.31
452.428	268.31
452.648	267.31
452.869	269.31
453.089	275.31
453.31	262.31
453.53	269.31
453.751	269.31
453.971	262.31
454.192	257.31
454.412	245.31
454.633	283.31
454.853	256.31
455.073	253.31
455.294	271.31
455.514	243.31
455.734	249.31
455.955	261.31
456.175	266.31
456.395	248.31
456.616	227.31
456.836	244.31
457.056	257.31
457.276	253.31
457.497	252.31
457.717	277.31
457.937	266.31
458.157	265.31
458.377	257.31
458.598	275.31
458.818	274.31
459.038	274.31
459.258	282.31
459.478	291.31
459.698	277.31
459.918	279.31
460.138	282.31
460.358	300.31
460.578	325.31
460.798	317.31
461.018	305.31
461.238	320.31
461.458	324.31
461.678	313.31
461.898	314.31
462.118	309.31
462.338	306.31
462.558	338.31
462.777	356.31
462.997	353.31
463.217	366.31
463.437	369.31
463.657	349.31
463.876	350.31
464.096	356.31
464.316	356.31
464.536	359.31
464.755	354.31
464.975	326.31
465.195	334.31
465.414	299.31
465.634	302.31
465.854	309.31
466.073	292.31
466.293	297.31
466.512	297.31
466.732	296.31
466.951	294.31
467.171	296.31
467.391	289.31
467.61	291.31
467.829	279.31
468.049	290.31
468.268	251.31
468.488	276.31
468.707	288.31
468.927	293.31
469.146	275.31
469.365	288.31
469.585	293.31
469.804	276.31
470.023	298.31
470.243	309.31
470.462	301.31
470.681	277.31
470.901	289.31
471.12	285.31
471.339	295.31
471.558	298.31
471.777	290.31
471.997	274.31
472.216	277.31
472.435	284.31
472.654	255.31
472.873	267.31
473.092	272.31
473.311	284.31
473.53	270.31
473.749	266.31
473.968	277.31
474.187	271.31
474.406	261.31
474.625	271.31
474.844	305.31
475.063	291.31
475.282	280.31
475.501	279.31
475.72	278.31
475.939	285.31
476.158	274.31
476.377	291.31
476.596	289.31
476.814	305.31
477.033	276.31
477.252	304.31
477.471	279.31
477.69	293.31
477.908	312.31
478.127	301.31
478.346	314.31
478.564	315.31
478.783	318.31
479.002	333.31
479.22	323.31
479.439	344.31
479.658	327.31
479.876	330.31
480.095	330.31
480.313	330.31
480.532	348.31
480.751	329.31
480.969	320.31
481.188	315.31
481.406	320.31
481.624	319.31
481.843	299.31
482.061	315.31
482.28	295.31
482.498	312.31
482.717	315.31
482.935	315.31
483.153	304.31
483.372	323.31
483.59	317.31
483.808	326.31
484.027	302.31
484.245	308.31
484.463	301.31
484.681	318.31
484.9	309.31
485.118	323.31
485.336	333.31
485.554	312.31
485.772	304.31
485.99	317.31
486.209	308.31
486.427	325.31
486.645	326.31
486.863	319.31
487.081	313.31
487.299	328.31
487.517	303.31
487.735	325.31
487.953	321.31
488.171	346.31
488.389	307.31
488.607	301.31
488.825	308.31
489.043	312.31
489.261	317.31
489.479	305.31
489.696	316.31
489.914	295.31
490.132	319.31
490.35	335.31
490.568	323.31
490.786	337.31
491.003	331.31
491.221	318.31
491.439	339.31
491.657	324.31
491.874	330.31
492.092	325.31
492.31	353.31
492.527	350.31
492.745	340.31
492.963	340.31
493.18	341.31
493.398	321.31
493.615	330.31
493.833	327.31
494.05	335.31
494.268	341.31
494.485	337.31
494.703	328.31
494.92	375.31
495.138	344.31
495.355	338.31
495.573	340.31
495.79	342.31
496.008	339.31
496.225	347.31
496.442	343.31
496.66	344.31
496.877	363.31
497.094	361.31
497.312	369.31
497.529	349.31
497.746	368.31
497.963	385.31
498.181	385.31
498.398	385.31
498.615	402.31
498.832	413.31
499.049	419.31
499.267	442.31
499.484	491.31
499.701	513.31
499.918	549.31
500.135	593.31
500.352	631.31
500.569	658.31
500.786	670.31
501.003	633.31
501.22	574.31
501.437	539.31
501.654	503.31
501.871	463.31
502.088	465.31
502.305	445.31
502.522	430.31
502.739	424.31
502.956	385.31
503.172	377.31
503.389	353.31
503.606	375.31
503.823	365.31
504.04	358.31
504.256	346.31
504.473	345.31
504.69	357.31
504.907	356.31
505.123	334.31
505.34	322.31
505.557	314.31
505.773	314.31
505.99	316.31
506.207	317.31
506.423	301.31
506.64	302.31
506.856	287.31
507.073	299.31
507.289	295.31
507.506	280.31
507.722	313.31
507.939	294.31
508.155	304.31
508.372	289.31
508.588	274.31
508.805	266.31
509.021	273.31
509.238	271.31
509.454	278.31
509.67	282.31
509.887	279.31
510.103	255.31
510.319	264.31
510.536	274.31
510.752	270.31
510.968	260.31
511.184	266.31
511.401	274.31
511.617	277.31
511.833	274.31
512.049	264.31
512.265	274.31
512.481	276.31
512.698	276.31
512.914	280.31
513.13	276.31
513.346	255.31
513.562	267.31
513.778	262.31
513.994	276.31
514.21	277.31
514.426	269.31
514.642	273.31
514.858	268.31
515.074	268.31
515.29	265.31
515.506	282.31
515.721	282.31
515.937	285.31
516.153	293.31
516.369	287.31
516.585	284.31
516.801	298.31
517.016	306.31
517.232	321.31
517.448	313.31
517.664	319.31
517.879	322.31
518.095	335.31
518.311	310.31
518.527	308.31
518.742	311.31
518.958	303.31
519.173	285.31
519.389	310.31
519.605	285.31
519.82	271.31
520.036	288.31
520.251	282.31
520.467	280.31
520.682	280.31
520.898	257.31
521.113	265.31
521.329	282.31
521.544	279.31
521.76	280.31
521.975	271.31
522.19	253.31
522.406	252.31
522.621	262.31
522.836	260.31
523.052	256.31
523.267	256.31
523.482	261.31
523.698	264.31
523.913	249.31
524.128	261.31
524.343	273.31
524.559	260.31
524.774	257.31
524.989	253.31
525.204	260.31
525.419	266.31
525.634	260.31
525.849	243.31
526.064	253.31
526.28	257.31
526.495	257.31
526.71	242.31
526.925	241.31
527.14	245.31
527.355	262.31
527.57	253.31
527.785	255.31
527.999	257.31
528.214	254.31
528.429	265.31
528.644	268.31
528.859	259.31
529.074	246.31
529.289	263.31
529.503	275.31
529.718	269.31
529.933	254.31
530.148	248.31
530.363	254.31
530.577	248.31
530.792	257.31
531.007	227.31
531.221	246.31
531.436	253.31
531.651	242.31
531.865	245.31
532.08	243.31
532.295	256.31
532.509	244.31
532.724	243.31
532.938	257.31
533.153	256.31
533.367	236.31
533.582	254.31
533.796	255.31
534.011	254.31
534.225	239.31
534.44	239.31
534.654	251.31
534.868	242.31
535.083	248.31
535.297	243.31
535.511	253.31
535.726	234.31
535.94	251.31
536.154	241.31
536.369	240.31
536.583	234.31
536.797	247.31
537.011	246.31
537.225	236.31
537.44	240.31
537.654	218.31
537.868	230.31
538.082	241.31
538.296	247.31
538.51	246.31
538.724	237.31
538.938	242.31
539.153	240.31
539.367	224.31
539.581	233.31
539.795	236.31
540.009	222.31
540.222	243.31
540.436	244.31
540.65	244.31
540.864	240.31
541.078	232.31
541.292	250.31
541.506	250.31
541.72	234.31
541.934	239.31
542.147	218.31
542.361	240.31
542.575	253.31
542.789	257.31
543.002	233.31
543.216	247.31
543.43	218.31
543.644	229.31
543.857	224.31
544.071	234.31
544.285	243.31
544.498	241.31
544.712	243.31
544.925	241.31
545.139	255.31
545.352	235.31
545.566	237.31
545.779	248.31
545.993	230.31
546.206	247.31
546.42	249.31
546.633	255.31
546.847	226.31
547.06	232.31
547.274	229.31
547.487	247.31
547.7	259.31
547.914	257.31
548.127	247.31
548.34	244.31
548.554	242.31
548.767	257.31
548.98	249.31
549.193	225.31
549.407	246.31
549.62	269.31
549.833	246.31
550.046	249.31
550.259	241.31
550.473	229.31
550.686	257.31
550.899	243.31
551.112	244.31
551.325	240.31
551.538	240.31
551.751	255.31
551.964	240.31
552.177	232.31
552.39	231.31
552.603	257.31
552.816	222.31
553.029	241.31
553.242	253.31
553.455	241.31
553.667	262.31
553.88	249.31
554.093	264.31
554.306	247.31
554.519	232.31
554.732	237.31
554.944	237.31
555.157	217.31
555.37	231.31
555.583	235.31
555.795	216.31
556.008	226.31
556.221	216.31
556.433	219.31
556.646	227.31
556.859	225.31
557.071	224.31
557.284	214.31
557.496	208.31
557.709	204.31
557.921	224.31
558.134	224.31
558.346	199.31
558.559	201.31
558.771	202.31
558.984	227.31
559.196	199.31
559.409	216.31
559.621	215.31
559.833	205.31
560.046	211.31
560.258	225.31
560.47	210.31
560.683	210.31
560.895	199.31
561.107	221.31
561.32	202.31
561.532	198.31
561.744	201.31
561.956	214.31
562.168	221.31
562.381	203.31
562.593	216.31
562.805	231.31
563.017	204.31
563.229	201.31
563.441	211.31
563.653	218.31
563.865	210.31
564.077	202.31
564.289	209.31
564.501	210.31
564.713	228.31
564.925	206.31
565.137	218.31
565.349	228.31
565.561	223.31
565.773	234.31
565.985	240.31
566.197	243.31
566.408	238.31
566.62	264.31
566.832	283.31
567.044	285.31
567.255	285.31
567.467	295.31
567.679	272.31
567.891	288.31
568.102	289.31
568.314	281.31
568.526	259.31
568.737	258.31
568.949	225.31
569.161	237.31
569.372	209.31
569.584	209.31
569.795	209.31
570.007	216.31
570.218	211.31
570.43	224.31
570.641	214.31
570.853	219.31
571.064	210.31
571.276	203.31
571.487	197.31
571.698	188.31
571.91	209.31
572.121	190.31
572.333	197.31
572.544	184.31
572.755	189.31
572.966	190.31
573.178	179.31
573.389	195.31
573.6	167.31
573.811	175.31
574.023	183.31
574.234	167.31
574.445	173.31
574.656	164.31
574.867	184.31
575.078	174.31
575.289	180.31
575.501	178.31
575.712	174.31
575.923	167.31
576.134	179.31
576.345	177.31
576.556	177.31
576.767	170.31
576.978	173.31
577.188	181.31
577.399	171.31
577.61	174.31
577.821	180.31
578.032	165.31
578.243	181.31
578.454	158.31
578.665	177.31
578.875	167.31
579.086	170.31
579.297	145.31
579.508	169.31
579.718	159.31
579.929	174.31
580.14	155.31
580.35	153.31
580.561	168.31
580.772	159.31
580.982	176.31
581.193	151.31
581.403	158.31
581.614	156.31
581.825	156.31
582.035	169.31
582.246	150.31
582.456	164.31
582.667	164.31
582.877	171.31
583.087	153.31
583.298	161.31
583.508	178.31
583.719	147.31
583.929	158.31
584.139	157.31
584.35	167.31
584.56	159.31
584.77	160.31
584.981	157.31
585.191	165.31
585.401	154.31
585.611	155.31
585.821	157.31
586.032	159.31
586.242	150.31
586.452	161.31
586.662	153.31
586.872	151.31
587.082	144.31
587.292	143.31
587.502	155.31
587.713	161.31
587.923	144.31
588.133	146.31
588.343	154.31
588.553	164.31
588.762	161.31
588.972	162.31
589.182	171.31
589.392	163.31
589.602	149.31
589.812	151.31
590.022	165.31
590.232	159.31
590.441	149.31
590.651	163.31
590.861	167.31
591.071	170.31
591.281	167.31
591.49	173.31
591.7	165.31
591.91	187.31
592.119	165.31
592.329	155.31
592.539	155.31
592.748	161.31
592.958	173.31
593.167	177.31
593.377	171.31
593.587	177.31
593.796	174.31
594.006	175.31
594.215	185.31
594.424	180.31
594.634	155.31
594.843	166.31
595.053	181.31
595.262	157.31
595.472	155.31
595.681	168.31
595.89	144.31
596.1	136.31
596.309	152.31
596.518	154.31
596.727	150.31
596.937	169.31
597.146	139.31
597.355	144.31
597.564	141.31
597.774	139.31
597.983	140.31
598.192	143.31
598.401	139.31
598.61	145.31
598.819	139.31
599.028	138.31
599.237	147.31
599.446	146.31
599.655	139.31
599.864	133.31
600.073	134.31
600.282	131.31
600.491	127.31
600.7	153.31
600.909	135.31
601.118	143.31
601.327	129.31
601.536	131.31
601.745	166.31
601.953	156.31
602.162	144.31
602.371	144.31
602.58	152.31
602.789	158.31
602.997	139.31
603.206	153.31
603.415	128.31
603.623	150.31
603.832	145.31
604.041	142.31
604.249	114.31
604.458	132.31
604.666	138.31
604.875	137.31
605.084	141.31
605.292	123.31
605.501	137.31
605.709	129.31
605.918	133.31
606.126	147.31
606.334	159.31
606.543	135.31
606.751	154.31
606.96	140.31
607.168	137.31
607.376	150.31
607.585	131.31
607.793	158.31
608.001	139.31
608.21	137.31
608.418	159.31
608.626	133.31
608.834	146.31
609.043	129.31
609.251	146.31
609.459	144.31
609.667	130.31
609.875	129.31
610.083	147.31
610.291	139.31
610.499	130.31
610.707	130.31
610.916	116.31
611.124	120.31
611.332	127.31
611.54	135.31
611.748	140.31
611.955	139.31
612.163	140.31
612.371	136.31
612.579	141.31
612.787	131.31
612.995	149.31
613.203	152.31
613.411	145.31
613.618	143.31
613.826	133.31
614.034	136.31
614.242	135.31
614.449	125.31
614.657	133.31
614.865	143.31
615.072	126.31
615.28	138.31
615.488	133.31
615.695	125.31
615.903	129.31
616.111	131.31
616.318	143.31
616.526	135.31
616.733	136.31
616.941	134.31
617.148	121.31
617.356	143.31
617.563	129.31
617.771	126.31
617.978	132.31
618.185	147.31
618.393	122.31
618.6	140.31
618.807	156.31
619.015	128.31
619.222	132.31
619.429	136.31
619.637	135.31
619.844	138.31
620.051	139.31
620.258	117.31
620.466	117.31
620.673	125.31
620.88	130.31
621.087	119.31
621.294	123.31
621.501	123.31
621.708	123.31
621.915	119.31
622.122	115.31
622.329	121.31
622.536	135.31
622.743	132.31
622.95	127.31
623.157	127.31
623.364	121.31
623.571	127.31
623.778	130.31
623.985	122.31
624.192	118.31
624.399	112.31
624.606	136.31
624.812	136.31
625.019	124.31
625.226	135.31
625.433	129.31
625.639	122.31
625.846	118.31
626.053	125.31
626.259	131.31
626.466	138.31
626.673	126.31
626.879	143.31
627.086	117.31
627.293	111.31
627.499	117.31
627.706	124.31
627.912	123.31
628.119	119.31
628.325	127.31
628.532	128.31
628.738	126.31
628.945	122.31
629.151	132.31
629.357	116.31
629.564	124.31
629.77	119.31
629.976	112.31
630.183	121.31
630.389	125.31
630.595	129.31
630.802	114.31
631.008	113.31
631.214	114.31
631.42	122.31
631.627	123.31
631.833	124.31
632.039	125.31
632.245	110.31
632.451	127.31
632.657	129.31
632.863	126.31
633.069	119.31
633.275	129.31
633.481	101.31
633.688	119.31
633.893	109.31
634.099	106.31
634.305	121.31
634.511	135.31
634.717	129.31
634.923	101.31
635.129	111.31
635.335	106.31
635.541	114.31
635.747	116.31
635.952	119.31
636.158	96.31
636.364	114.31
636.57	115.31
636.775	115.31
636.981	111.31
637.187	123.31
637.392	123.31
637.598	118.31
637.804	112.31
638.009	104.31
638.215	119.31
638.421	90.31
638.626	94.31
638.832	116.31
639.037	109.31
639.243	105.31
639.448	117.31
639.654	110.31
639.859	100.31
640.065	115.31
640.27	115.31
640.475	128.31
640.681	117.31
640.886	122.31
641.091	108.31
641.297	117.31
641.502	109.31
641.707	118.31
641.913	122.31
642.118	109.31
642.323	118.31
642.528	116.31
642.733	121.31
642.939	120.31
643.144	118.31
643.349	117.31
643.554	115.31
643.759	113.31
643.964	112.31
644.169	113.31
644.374	111.31
644.579	115.31
644.784	100.31
644.989	123.31
645.194	119.31
645.399	121.31
645.604	102.31
645.809	107.31
646.014	125.31
646.219	112.31
646.423	115.31
646.628	115.31
646.833	127.31
647.038	120.31
647.243	112.31
647.447	89.31
647.652	125.31
647.857	107.31
648.062	106.31
648.266	113.31
648.471	104.31
648.676	121.31
648.88	133.31
649.085	115.31
649.289	121.31
649.494	118.31
649.698	115.31
649.903	110.31
650.107	115.31
650.312	120.31
650.516	118.31
650.721	122.31
650.925	116.31
651.13	109.31
651.334	109.31
651.539	105.31
651.743	112.31
651.947	107.31
652.152	109.31
652.356	111.31
652.56	115.31
652.764	106.31
652.969	102.31
653.173	104.31
653.377	109.31
653.581	106.31
653.785	120.31
653.99	121.31
654.194	122.31
654.398	107.31
654.602	102.31
654.806	121.31
655.01	113.31
655.214	105.31
655.418	127.31
655.622	103.31
655.826	107.31
656.03	114.31
656.234	98.31
656.438	111.31
656.642	109.31
656.846	114.31
657.049	95.31
657.253	113.31
657.457	103.31
657.661	101.31
657.865	97.31
658.068	84.31
658.272	96.31
658.476	96.31
658.68	81.31
658.883	86.31
659.087	104.31
659.291	102.31
659.494	92.31
659.698	81.31
659.901	91.31
660.105	75.31
660.309	91.31
660.512	83.31
660.716	84.31
660.919	84.31
661.123	76.31
661.326	82.31
661.53	87.31
661.733	80.31
661.936	74.31
662.14	88.31
662.343	75.31
662.546	89.31
662.75	74.31
662.953	85.31
663.156	82.31
663.36	59.31
663.563	78.31
663.766	80.31
663.969	94.31
664.173	78.31
664.376	69.31
664.579	79.31
664.782	90.31
664.985	80.31
665.188	71.31
665.391	82.31
665.594	98.31
665.797	78.31
666	74.31
666.203	81.31
666.406	66.31
666.609	84.31
666.812	83.31
667.015	79.31
667.218	74.31
667.421	77.31
667.624	65.31
667.827	87.31
668.03	86.31
668.232	92.31
668.435	91.31
668.638	84.31
668.841	91.31
669.043	86.31
669.246	64.31
669.449	86.31
669.651	64.31
669.854	82.31
670.057	71.31
670.259	93.31
670.462	75.31
670.665	73.31
670.867	83.31
671.07	93.31
671.272	77.31
671.475	83.31
671.677	94.31
671.88	81.31
672.082	76.31
672.284	71.31
672.487	68.31
672.689	72.31
672.892	68.31
