Data from Fe(NO3)3@0.1M.TitratingCurve.Agarose3%dH2O.NegLispCup.LampEnergy10.LIBS07252019_HRD10591_16-40-54-333.txt Node
Date: Thu Jul 25 16:40:54 EDT 2019
User: cochatt
Spectrometer: HR+D1059
Trigger mode: 1
Integration Time (sec): 1.000000E-1
Scans to average: 1
Electric dark correction enabled: true
Nonlinearity correction enabled: false
Boxcar width: 0
XAxis mode: Wavelengths
Number of Pixels in Spectrum: 2048
>>>>>Begin Spectral Data<<<<<
223.165	-29
223.4	-29
223.635	-29
223.869	-10
224.104	-20
224.338	-11
224.573	-16
224.808	-10
225.042	-6
225.277	-8
225.511	2
225.746	6
225.98	4
226.215	9
226.449	7
226.683	21
226.918	34
227.152	27
227.387	44
227.621	38
227.856	50
228.09	44
228.324	42
228.559	60
228.793	62
229.027	62
229.262	67
229.496	69
229.73	85
229.964	91
230.199	79
230.433	84
230.667	94
230.901	99
231.136	88
231.37	95
231.604	79
231.838	91
232.072	92
232.306	86
232.541	96
232.775	85
233.009	79
233.243	96
233.477	101
233.711	95
233.945	92
234.179	92
234.413	101
234.647	97
234.881	93
235.115	89
235.349	91
235.583	78
235.817	100
236.051	108
236.285	87
236.519	87
236.753	94
236.987	86
237.221	80
237.455	104
237.689	98
237.922	99
238.156	91
238.39	87
238.624	91
238.858	94
239.091	79
239.325	84
239.559	100
239.793	95
240.027	92
240.26	105
240.494	110
240.728	82
240.961	82
241.195	90
241.429	98
241.662	93
241.896	95
242.13	102
242.363	105
242.597	99
242.83	98
243.064	98
243.298	83
243.531	102
243.765	98
243.998	101
244.232	86
244.465	104
244.699	89
244.932	100
245.166	93
245.399	103
245.633	111
245.866	92
246.099	93
246.333	98
246.566	97
246.8	109
247.033	99
247.266	124
247.5	106
247.733	115
247.966	88
248.2	116
248.433	100
248.666	95
248.899	99
249.133	99
249.366	117
249.599	99
249.832	115
250.066	109
250.299	108
250.532	108
250.765	112
250.998	110
251.231	102
251.465	116
251.698	101
251.931	85
252.164	123
252.397	107
252.63	124
252.863	115
253.096	115
253.329	112
253.562	125
253.795	122
254.028	106
254.261	102
254.494	107
254.727	116
254.96	101
255.193	117
255.426	113
255.659	110
255.892	117
256.124	113
256.357	115
256.59	108
256.823	111
257.056	114
257.289	113
257.521	104
257.754	110
257.987	126
258.22	126
258.452	126
258.685	131
258.918	119
259.151	131
259.383	103
259.616	100
259.849	123
260.081	127
260.314	129
260.547	121
260.779	113
261.012	123
261.244	128
261.477	121
261.71	121
261.942	115
262.175	132
262.407	114
262.64	129
262.872	130
263.105	108
263.337	129
263.57	119
263.802	116
264.035	130
264.267	113
264.499	121
264.732	128
264.964	127
265.197	110
265.429	131
265.661	133
265.894	126
266.126	125
266.358	133
266.591	136
266.823	127
267.055	140
267.287	129
267.52	120
267.752	144
267.984	139
268.216	136
268.448	130
268.681	133
268.913	137
269.145	135
269.377	125
269.609	144
269.841	131
270.073	128
270.306	125
270.538	138
270.77	129
271.002	139
271.234	133
271.466	155
271.698	122
271.93	135
272.162	142
272.394	126
272.626	137
272.858	135
273.09	155
273.322	136
273.553	129
273.785	153
274.017	125
274.249	136
274.481	140
274.713	140
274.945	142
275.176	141
275.408	143
275.64	142
275.872	136
276.104	150
276.335	138
276.567	133
276.799	143
277.031	141
277.262	138
277.494	149
277.726	143
277.957	149
278.189	149
278.421	139
278.652	141
278.884	140
279.115	150
279.347	152
279.579	146
279.81	142
280.042	142
280.273	126
280.505	149
280.736	153
280.968	140
281.199	138
281.431	155
281.662	142
281.894	144
282.125	150
282.356	142
282.588	154
282.819	138
283.051	140
283.282	151
283.513	153
283.745	159
283.976	134
284.207	158
284.439	158
284.67	155
284.901	151
285.132	154
285.364	153
285.595	166
285.826	152
286.057	171
286.288	139
286.52	141
286.751	152
286.982	164
287.213	155
287.444	156
287.675	174
287.906	165
288.138	154
288.369	165
288.6	158
288.831	139
289.062	143
289.293	163
289.524	159
289.755	169
289.986	158
290.217	161
290.448	165
290.679	159
290.91	169
291.141	160
291.371	157
291.602	161
291.833	153
292.064	166
292.295	158
292.526	149
292.757	159
292.987	168
293.218	147
293.449	153
293.68	175
293.91	165
294.141	170
294.372	151
294.603	171
294.833	172
295.064	172
295.295	156
295.525	155
295.756	167
295.987	163
296.217	158
296.448	167
296.679	173
296.909	161
297.14	182
297.37	169
297.601	178
297.831	181
298.062	169
298.292	167
298.523	177
298.753	188
298.984	182
299.214	161
299.445	187
299.675	166
299.905	184
300.136	177
300.366	183
300.597	164
300.827	177
301.057	180
301.288	196
301.518	179
301.748	175
301.979	181
302.209	195
302.439	179
302.669	171
302.9	162
303.13	178
303.36	188
303.59	183
303.82	192
304.051	190
304.281	180
304.511	171
304.741	192
304.971	163
305.201	168
305.431	182
305.661	197
305.891	186
306.121	180
306.352	178
306.582	183
306.812	181
307.042	189
307.272	172
307.502	183
307.731	181
307.961	181
308.191	175
308.421	193
308.651	177
308.881	174
309.111	187
309.341	168
309.571	179
309.8	190
310.03	181
310.26	186
310.49	179
310.72	184
310.949	193
311.179	197
311.409	186
311.639	179
311.868	191
312.098	200
312.328	191
312.557	187
312.787	179
313.017	205
313.246	194
313.476	204
313.706	186
313.935	197
314.165	193
314.394	199
314.624	188
314.853	190
315.083	209
315.312	195
315.542	189
315.771	198
316.001	192
316.23	181
316.46	187
316.689	196
316.919	192
317.148	198
317.377	196
317.607	189
317.836	188
318.065	184
318.295	197
318.524	203
318.753	189
318.983	186
319.212	179
319.441	196
319.67	193
319.9	182
320.129	191
320.358	196
320.587	198
320.816	201
321.046	197
321.275	185
321.504	198
321.733	193
321.962	191
322.191	207
322.42	204
322.649	187
322.878	198
323.108	189
323.337	200
323.566	190
323.795	210
324.024	202
324.253	203
324.482	201
324.71	206
324.939	201
325.168	190
325.397	201
325.626	205
325.855	199
326.084	206
326.313	213
326.542	207
326.77	210
326.999	201
327.228	221
327.457	217
327.686	212
327.914	203
328.143	213
328.372	204
328.6	207
328.829	206
329.058	215
329.287	209
329.515	217
329.744	233
329.972	204
330.201	213
330.43	196
330.658	205
330.887	215
331.115	211
331.344	213
331.572	205
331.801	241
332.03	219
332.258	218
332.486	222
332.715	228
332.943	241
333.172	229
333.4	248
333.629	279
333.857	253
334.085	268
334.314	242
334.542	263
334.771	251
334.999	257
335.227	239
335.455	251
335.684	265
335.912	237
336.14	222
336.369	249
336.597	247
336.825	217
337.053	235
337.281	244
337.51	221
337.738	230
337.966	237
338.194	238
338.422	222
338.65	222
338.878	212
339.106	219
339.334	223
339.562	242
339.79	212
340.018	207
340.246	209
340.474	213
340.702	207
340.93	224
341.158	204
341.386	212
341.614	217
341.842	234
342.07	229
342.298	222
342.526	214
342.754	223
342.981	214
343.209	226
343.437	230
343.665	241
343.893	261
344.12	241
344.348	236
344.576	233
344.804	228
345.031	228
345.259	223
345.487	225
345.714	225
345.942	204
346.17	229
346.397	238
346.625	208
346.853	197
347.08	202
347.308	212
347.535	217
347.763	228
347.99	238
348.218	226
348.445	219
348.673	217
348.9	211
349.128	213
349.355	201
349.583	225
349.81	223
350.037	225
350.265	207
350.492	211
350.72	228
350.947	220
351.174	204
351.402	210
351.629	217
351.856	221
352.083	198
352.311	226
352.538	215
352.765	207
352.992	227
353.22	187
353.447	207
353.674	219
353.901	219
354.128	215
354.355	204
354.583	225
354.81	213
355.037	216
355.264	210
355.491	207
355.718	207
355.945	224
356.172	217
356.399	217
356.626	210
356.853	223
357.08	213
357.307	205
357.534	198
357.761	206
357.988	229
358.215	216
358.441	231
358.668	227
358.895	236
359.122	213
359.349	221
359.576	209
359.802	209
360.029	225
360.256	206
360.483	213
360.709	223
360.936	218
361.163	208
361.39	218
361.616	211
361.843	209
362.07	196
362.296	219
362.523	195
362.749	211
362.976	224
363.203	219
363.429	216
363.656	229
363.882	220
364.109	216
364.335	228
364.562	211
364.788	223
365.015	232
365.241	225
365.468	215
365.694	203
365.92	213
366.147	210
366.373	218
366.599	203
366.826	226
367.052	220
367.278	234
367.505	230
367.731	235
367.957	230
368.184	208
368.41	224
368.636	232
368.862	231
369.089	210
369.315	229
369.541	219
369.767	230
369.993	243
370.219	212
370.445	225
370.672	229
370.898	201
371.124	241
371.35	234
371.576	216
371.802	219
372.028	238
372.254	240
372.48	235
372.706	228
372.932	233
373.158	245
373.384	243
373.61	245
373.835	244
374.061	230
374.287	260
374.513	236
374.739	254
374.965	238
375.191	253
375.416	243
375.642	242
375.868	239
376.094	239
376.319	245
376.545	245
376.771	253
376.997	242
377.222	249
377.448	242
377.674	238
377.899	218
378.125	252
378.35	242
378.576	225
378.802	240
379.027	233
379.253	235
379.478	223
379.704	228
379.929	240
380.155	241
380.38	234
380.606	241
380.831	236
381.057	243
381.282	229
381.507	238
381.733	241
381.958	271
382.184	237
382.409	268
382.634	260
382.86	224
383.085	252
383.31	253
383.535	253
383.761	252
383.986	269
384.211	264
384.436	279
384.662	252
384.887	247
385.112	273
385.337	273
385.562	255
385.787	279
386.013	287
386.238	258
386.463	272
386.688	278
386.913	249
387.138	265
387.363	278
387.588	254
387.813	279
388.038	285
388.263	282
388.488	252
388.713	257
388.938	282
389.163	291
389.387	271
389.612	278
389.837	268
390.062	262
390.287	277
390.512	272
390.736	279
390.961	278
391.186	274
391.411	289
391.636	285
391.86	290
392.085	285
392.31	303
392.534	282
392.759	271
392.984	287
393.208	276
393.433	283
393.658	275
393.882	284
394.107	284
394.331	285
394.556	284
394.78	293
395.005	293
395.229	305
395.454	288
395.678	286
395.903	301
396.127	293
396.352	295
396.576	299
396.801	264
397.025	298
397.249	284
397.474	290
397.698	284
397.922	306
398.147	295
398.371	320
398.595	325
398.82	315
399.044	345
399.268	374
399.492	407
399.717	421
399.941	411
400.165	379
400.389	358
400.613	341
400.837	339
401.062	349
401.286	322
401.51	329
401.734	326
401.958	347
402.182	326
402.406	342
402.63	333
402.854	341
403.078	336
403.302	346
403.526	357
403.75	330
403.974	349
404.198	350
404.422	345
404.645	328
404.869	332
405.093	351
405.317	356
405.541	359
405.765	350
405.988	328
406.212	345
406.436	341
406.66	365
406.883	388
407.107	371
407.331	391
407.555	377
407.778	379
408.002	392
408.226	369
408.449	377
408.673	378
408.896	371
409.12	369
409.344	377
409.567	346
409.791	373
410.014	350
410.238	344
410.461	345
410.685	358
410.908	348
411.132	358
411.355	336
411.578	335
411.802	358
412.025	346
412.249	321
412.472	341
412.695	321
412.919	333
413.142	328
413.365	317
413.589	329
413.812	345
414.035	325
414.258	329
414.482	345
414.705	317
414.928	345
415.151	333
415.374	324
415.597	322
415.821	322
416.044	339
416.267	333
416.49	331
416.713	337
416.936	332
417.159	326
417.382	318
417.605	319
417.828	348
418.051	332
418.274	337
418.497	328
418.72	339
418.943	348
419.166	336
419.389	364
419.611	346
419.834	348
420.057	334
420.28	321
420.503	328
420.726	324
420.948	327
421.171	332
421.394	317
421.617	331
421.839	327
422.062	326
422.285	330
422.507	343
422.73	334
422.953	334
423.175	344
423.398	348
423.621	332
423.843	327
424.066	353
424.288	344
424.511	341
424.733	332
424.956	330
425.178	343
425.401	344
425.623	324
425.846	332
426.068	314
426.291	321
426.513	318
426.735	338
426.958	320
427.18	307
427.402	310
427.625	313
427.847	302
428.069	294
428.292	308
428.514	327
428.736	315
428.958	309
429.181	312
429.403	290
429.625	298
429.847	309
430.069	298
430.292	315
430.514	285
430.736	293
430.958	305
431.18	307
431.402	306
431.624	322
431.846	305
432.068	303
432.29	309
432.512	291
432.734	294
432.956	303
433.178	316
433.4	306
433.622	319
433.844	325
434.066	316
434.287	314
434.509	318
434.731	335
434.953	344
435.175	325
435.397	330
435.618	311
435.84	311
436.062	316
436.284	310
436.505	313
436.727	321
436.949	315
437.17	343
437.392	328
437.614	304
437.835	289
438.057	315
438.278	300
438.5	311
438.721	312
438.943	325
439.165	317
439.386	321
439.608	325
439.829	315
440.05	324
440.272	314
440.493	317
440.715	328
440.936	323
441.158	334
441.379	327
441.6	367
441.822	347
442.043	344
442.264	341
442.486	346
442.707	333
442.928	344
443.149	350
443.371	323
443.592	337
443.813	325
444.034	349
444.255	359
444.476	397
444.698	397
444.919	396
445.14	453
445.361	388
445.582	351
445.803	345
446.024	349
446.245	341
446.466	329
446.687	323
446.908	329
447.129	330
447.35	335
447.571	306
447.792	315
448.013	302
448.234	312
448.455	311
448.675	315
448.896	314
449.117	310
449.338	305
449.559	297
449.779	302
450	285
450.221	311
450.442	310
450.662	293
450.883	295
451.104	311
451.324	313
451.545	308
451.766	293
451.986	297
452.207	299
452.428	294
452.648	310
452.869	291
453.089	279
453.31	275
453.53	287
453.751	291
453.971	295
454.192	307
454.412	276
454.633	261
454.853	286
455.073	286
455.294	293
455.514	292
455.734	278
455.955	272
456.175	270
456.395	265
456.616	280
456.836	293
457.056	285
457.276	287
457.497	269
457.717	269
457.937	303
458.157	276
458.377	272
458.598	283
458.818	287
459.038	299
459.258	307
459.478	311
459.698	326
459.918	319
460.138	315
460.358	340
460.578	345
460.798	357
461.018	336
461.238	353
461.458	347
461.678	342
461.898	361
462.118	344
462.338	354
462.558	395
462.777	375
462.997	404
463.217	423
463.437	421
463.657	394
463.876	403
464.096	399
464.316	404
464.536	385
464.755	366
464.975	363
465.195	336
465.414	354
465.634	338
465.854	317
466.073	321
466.293	317
466.512	308
466.732	314
466.951	316
467.171	322
467.391	318
467.61	305
467.829	309
468.049	298
468.268	302
468.488	291
468.707	300
468.927	320
469.146	309
469.365	309
469.585	301
469.804	301
470.023	313
470.243	312
470.462	318
470.681	321
470.901	316
471.12	317
471.339	332
471.558	301
471.777	302
471.997	298
472.216	295
472.435	287
472.654	275
472.873	297
473.092	297
473.311	293
473.53	299
473.749	287
473.968	306
474.187	299
474.406	277
474.625	306
474.844	299
475.063	280
475.282	298
475.501	278
475.72	281
475.939	311
476.158	299
476.377	300
476.596	295
476.814	312
477.033	318
477.252	300
477.471	338
477.69	313
477.908	339
478.127	340
478.346	333
478.564	337
478.783	333
479.002	330
479.22	340
479.439	342
479.658	343
479.876	345
480.095	320
480.313	359
480.532	350
480.751	355
480.969	353
481.188	349
481.406	332
481.624	319
481.843	319
482.061	314
482.28	316
482.498	337
482.717	325
482.935	309
483.153	334
483.372	326
483.59	314
483.808	330
484.027	309
484.245	307
484.463	334
484.681	335
484.9	326
485.118	315
485.336	335
485.554	325
485.772	312
485.99	315
486.209	343
486.427	350
486.645	327
486.863	312
487.081	324
487.299	316
487.517	326
487.735	321
487.953	331
488.171	335
488.389	334
488.607	307
488.825	324
489.043	319
489.261	309
489.479	318
489.696	337
489.914	336
490.132	334
490.35	327
490.568	336
490.786	351
491.003	332
491.221	338
491.439	353
491.657	355
491.874	334
492.092	351
492.31	361
492.527	365
492.745	344
492.963	345
493.18	335
493.398	350
493.615	330
493.833	358
494.05	339
494.268	349
494.485	354
494.703	358
494.92	357
495.138	355
495.355	349
495.573	343
495.79	357
496.008	372
496.225	358
496.442	364
496.66	371
496.877	375
497.094	375
497.312	389
497.529	389
497.746	378
497.963	377
498.181	412
498.398	434
498.615	456
498.832	447
499.049	481
499.267	521
499.484	533
499.701	574
499.918	646
500.135	738
500.352	745
500.569	787
500.786	739
501.003	715
501.22	644
501.437	615
501.654	543
501.871	526
502.088	487
502.305	478
502.522	434
502.739	424
502.956	422
503.172	404
503.389	394
503.606	375
503.823	378
504.04	370
504.256	398
504.473	361
504.69	383
504.907	387
505.123	369
505.34	349
505.557	337
505.773	342
505.99	334
506.207	324
506.423	322
506.64	332
506.856	289
507.073	305
507.289	312
507.506	305
507.722	309
507.939	320
508.155	310
508.372	292
508.588	291
508.805	295
509.021	283
509.238	280
509.454	271
509.67	277
509.887	277
510.103	291
510.319	295
510.536	278
510.752	279
510.968	271
511.184	285
511.401	286
511.617	305
511.833	279
512.049	282
512.265	269
512.481	304
512.698	313
512.914	273
513.13	282
513.346	287
513.562	302
513.778	279
513.994	284
514.21	286
514.426	261
514.642	280
514.858	301
515.074	288
515.29	293
515.506	289
515.721	289
515.937	300
516.153	284
516.369	321
516.585	315
516.801	325
517.016	321
517.232	346
517.448	349
517.664	343
517.879	336
518.095	348
518.311	338
518.527	362
518.742	330
518.958	317
519.173	302
519.389	309
519.605	305
519.82	306
520.036	300
520.251	293
520.467	287
520.682	279
520.898	270
521.113	276
521.329	283
521.544	266
521.76	267
521.975	272
522.19	280
522.406	286
522.621	285
522.836	269
523.052	276
523.267	278
523.482	266
523.698	281
523.913	266
524.128	263
524.343	260
524.559	275
524.774	261
524.989	285
525.204	282
525.419	258
525.634	275
525.849	262
526.064	259
526.28	269
526.495	267
526.71	259
526.925	274
527.14	251
527.355	274
527.57	277
527.785	277
527.999	277
528.214	271
528.429	277
528.644	259
528.859	267
529.074	278
529.289	268
529.503	260
529.718	275
529.933	253
530.148	275
530.363	267
530.577	257
530.792	271
531.007	267
531.221	258
531.436	253
531.651	259
531.865	258
532.08	270
532.295	263
532.509	271
532.724	266
532.938	274
533.153	256
533.367	252
533.582	259
533.796	248
534.011	260
534.225	246
534.44	266
534.654	253
534.868	263
535.083	252
535.297	246
535.511	244
535.726	277
535.94	258
536.154	250
536.369	270
536.583	255
536.797	268
537.011	248
537.225	255
537.44	231
537.654	243
537.868	251
538.082	254
538.296	244
538.51	221
538.724	250
538.938	250
539.153	244
539.367	261
539.581	250
539.795	250
540.009	245
540.222	245
540.436	239
540.65	240
540.864	242
541.078	246
541.292	227
541.506	225
541.72	257
541.934	252
542.147	254
542.361	230
542.575	238
542.789	227
543.002	250
543.216	234
543.43	247
543.644	248
543.857	239
544.071	238
544.285	253
544.498	262
544.712	255
544.925	243
545.139	229
545.352	259
545.566	243
545.779	248
545.993	250
546.206	265
546.42	252
546.633	247
546.847	251
547.06	255
547.274	249
547.487	275
547.7	262
547.914	250
548.127	257
548.34	231
548.554	244
548.767	251
548.98	259
549.193	253
549.407	264
549.62	271
549.833	270
550.046	259
550.259	247
550.473	243
550.686	266
550.899	244
551.112	253
551.325	238
551.538	249
551.751	237
551.964	234
552.177	253
552.39	251
552.603	262
552.816	269
553.029	263
553.242	279
553.455	248
553.667	247
553.88	281
554.093	264
554.306	259
554.519	243
554.732	257
554.944	248
555.157	226
555.37	230
555.583	233
555.795	234
556.008	241
556.221	245
556.433	222
556.646	225
556.859	213
557.071	229
557.284	217
557.496	214
557.709	230
557.921	221
558.134	227
558.346	221
558.559	228
558.771	217
558.984	231
559.196	225
559.409	217
559.621	226
559.833	206
560.046	203
560.258	216
560.47	222
560.683	217
560.895	212
561.107	214
561.32	214
561.532	224
561.744	230
561.956	229
562.168	208
562.381	206
562.593	221
562.805	220
563.017	223
563.229	203
563.441	225
563.653	227
563.865	210
564.077	222
564.289	230
564.501	218
564.713	211
564.925	230
565.137	224
565.349	242
565.561	229
565.773	243
565.985	237
566.197	242
566.408	281
566.62	298
566.832	278
567.044	314
567.255	297
567.467	301
567.679	335
567.891	325
568.102	333
568.314	322
568.526	297
568.737	277
568.949	261
569.161	245
569.372	225
569.584	246
569.795	228
570.007	236
570.218	211
570.43	212
570.641	227
570.853	215
571.064	235
571.276	201
571.487	210
571.698	205
571.91	204
572.121	198
572.333	211
572.544	199
572.755	205
572.966	202
573.178	199
573.389	175
573.6	165
573.811	202
574.023	178
574.234	186
574.445	197
574.656	179
574.867	198
575.078	180
575.289	189
575.501	190
575.712	204
575.923	190
576.134	178
576.345	187
576.556	171
576.767	162
576.978	174
577.188	186
577.399	171
577.61	191
577.821	170
578.032	179
578.243	185
578.454	189
578.665	178
578.875	172
579.086	169
579.297	175
579.508	184
579.718	175
579.929	181
580.14	158
580.35	173
580.561	187
580.772	184
580.982	178
581.193	158
581.403	187
581.614	183
581.825	187
582.035	166
582.246	156
582.456	183
582.667	166
582.877	162
583.087	168
583.298	166
583.508	159
583.719	158
583.929	166
584.139	172
584.35	171
584.56	154
584.77	157
584.981	177
585.191	167
585.401	179
585.611	155
585.821	178
586.032	154
586.242	159
586.452	172
586.662	162
586.872	166
587.082	162
587.292	157
587.502	181
587.713	166
587.923	160
588.133	141
588.343	156
588.553	173
588.762	160
588.972	170
589.182	163
589.392	168
589.602	175
589.812	157
590.022	177
590.232	180
590.441	182
590.651	169
590.861	168
591.071	169
591.281	163
591.49	162
591.7	163
591.91	185
592.119	162
592.329	163
592.539	173
592.748	175
592.958	174
593.167	172
593.377	193
593.587	191
593.796	174
594.006	182
594.215	190
594.424	193
594.634	184
594.843	187
595.053	177
595.262	169
595.472	166
595.681	171
595.89	160
596.1	160
596.309	171
596.518	162
596.727	147
596.937	148
597.146	161
597.355	159
597.564	161
597.774	166
597.983	155
598.192	142
598.401	153
598.61	156
598.819	164
599.028	155
599.237	161
599.446	152
599.655	149
599.864	149
600.073	148
600.282	151
600.491	146
600.7	161
600.909	155
601.118	153
601.327	159
601.536	149
601.745	150
601.953	128
602.162	150
602.371	145
602.58	135
602.789	144
602.997	138
603.206	148
603.415	156
603.623	149
603.832	144
604.041	140
604.249	150
604.458	144
604.666	149
604.875	143
605.084	155
605.292	159
605.501	147
605.709	137
605.918	137
606.126	142
606.334	154
606.543	147
606.751	141
606.96	157
607.168	139
607.376	137
607.585	145
607.793	145
608.001	136
608.21	125
608.418	156
608.626	150
608.834	153
609.043	147
609.251	144
609.459	140
609.667	138
609.875	126
610.083	135
610.291	143
610.499	134
610.707	134
610.916	130
611.124	150
611.332	140
611.54	146
611.748	141
611.955	139
612.163	141
612.371	139
612.579	129
612.787	145
612.995	134
613.203	136
613.411	136
613.618	126
613.826	128
614.034	131
614.242	142
614.449	141
614.657	133
614.865	138
615.072	140
615.28	133
615.488	136
615.695	133
615.903	136
616.111	135
616.318	132
616.526	155
616.733	141
616.941	156
617.148	146
617.356	122
617.563	129
617.771	155
617.978	149
618.185	133
618.393	128
618.6	153
618.807	137
619.015	140
619.222	146
619.429	136
619.637	135
619.844	135
620.051	138
620.258	133
620.466	125
620.673	132
620.88	137
621.087	134
621.294	120
621.501	135
621.708	125
621.915	134
622.122	133
622.329	145
622.536	133
622.743	143
622.95	132
623.157	150
623.364	125
623.571	126
623.778	131
623.985	136
624.192	130
624.399	131
624.606	132
624.812	129
625.019	129
625.226	130
625.433	129
625.639	137
625.846	120
626.053	125
626.259	136
626.466	134
626.673	123
626.879	129
627.086	133
627.293	147
627.499	133
627.706	122
627.912	126
628.119	130
628.325	131
628.532	131
628.738	139
628.945	127
629.151	136
629.357	127
629.564	105
629.77	142
629.976	117
630.183	127
630.389	137
630.595	134
630.802	128
631.008	121
631.214	125
631.42	125
631.627	141
631.833	142
632.039	122
632.245	110
632.451	133
632.657	112
632.863	117
633.069	123
633.275	135
633.481	118
633.688	126
633.893	127
634.099	127
634.305	117
634.511	127
634.717	111
634.923	133
635.129	120
635.335	125
635.541	121
635.747	108
635.952	109
636.158	123
636.364	119
636.57	129
636.775	118
636.981	111
637.187	129
637.392	110
637.598	129
637.804	123
638.009	121
638.215	113
638.421	121
638.626	121
638.832	122
639.037	127
639.243	121
639.448	103
639.654	111
639.859	120
640.065	115
640.27	124
640.475	107
640.681	125
640.886	125
641.091	110
641.297	108
641.502	114
641.707	129
641.913	117
642.118	121
642.323	118
642.528	122
642.733	125
642.939	111
643.144	118
643.349	103
643.554	121
643.759	114
643.964	108
644.169	118
644.374	122
644.579	103
644.784	117
644.989	101
645.194	113
645.399	121
645.604	112
645.809	127
646.014	122
646.219	109
646.423	121
646.628	118
646.833	121
647.038	108
647.243	121
647.447	129
647.652	105
647.857	114
648.062	118
648.266	119
648.471	125
648.676	109
648.88	119
649.085	110
649.289	109
649.494	129
649.698	128
649.903	115
650.107	113
650.312	104
650.516	129
650.721	118
650.925	111
651.13	121
651.334	105
651.539	117
651.743	103
651.947	123
652.152	112
652.356	124
652.56	110
652.764	110
652.969	106
653.173	103
653.377	99
653.581	109
653.785	102
653.99	113
654.194	121
654.398	100
654.602	103
654.806	109
655.01	106
655.214	91
655.418	107
655.622	99
655.826	106
656.03	125
656.234	115
656.438	106
656.642	107
656.846	92
657.049	104
657.253	99
657.457	93
657.661	98
657.865	108
658.068	116
658.272	85
658.476	101
658.68	100
658.883	95
659.087	103
659.291	91
659.494	100
659.698	84
659.901	85
660.105	102
660.309	93
660.512	92
660.716	82
660.919	91
661.123	89
661.326	89
661.53	101
661.733	89
661.936	95
662.14	82
662.343	85
662.546	77
662.75	94
662.953	89
663.156	85
663.36	78
663.563	94
663.766	88
663.969	70
664.173	86
664.376	88
664.579	69
664.782	85
664.985	85
665.188	92
665.391	85
665.594	77
665.797	82
666	78
666.203	78
666.406	88
666.609	83
666.812	77
667.015	77
667.218	71
667.421	74
667.624	77
667.827	87
668.03	87
668.232	88
668.435	89
668.638	90
668.841	83
669.043	100
669.246	87
669.449	82
669.651	78
669.854	82
670.057	93
670.259	94
670.462	86
670.665	94
670.867	79
671.07	80
671.272	81
671.475	89
671.677	87
671.88	70
672.082	82
672.284	73
672.487	69
672.689	79
672.892	79
