Data from Fe(NO3)3@0.1M.TitratingCurve.Agarose3%dH2O.NegLispCup.LampEnergy10.LIBS07252019_HRD10591_16-41-53-333.txt Node
Date: Thu Jul 25 16:41:53 EDT 2019
User: cochatt
Spectrometer: HR+D1059
Trigger mode: 1
Integration Time (sec): 1.000000E-1
Scans to average: 1
Electric dark correction enabled: true
Nonlinearity correction enabled: false
Boxcar width: 0
XAxis mode: Wavelengths
Number of Pixels in Spectrum: 2048
>>>>>Begin Spectral Data<<<<<
223.165	-24
223.4	-24
223.635	-24
223.869	-23
224.104	-17
224.338	-27
224.573	-1
224.808	-19
225.042	-1
225.277	5
225.511	0
225.746	7
225.98	1
226.215	9
226.449	5
226.683	20
226.918	31
227.152	34
227.387	37
227.621	36
227.856	35
228.09	43
228.324	47
228.559	51
228.793	48
229.027	75
229.262	85
229.496	67
229.73	63
229.964	76
230.199	73
230.433	85
230.667	79
230.901	84
231.136	80
231.37	90
231.604	82
231.838	83
232.072	101
232.306	95
232.541	88
232.775	96
233.009	101
233.243	91
233.477	90
233.711	91
233.945	97
234.179	96
234.413	107
234.647	81
234.881	85
235.115	115
235.349	91
235.583	98
235.817	99
236.051	97
236.285	86
236.519	79
236.753	99
236.987	78
237.221	87
237.455	81
237.689	86
237.922	88
238.156	92
238.39	83
238.624	84
238.858	80
239.091	95
239.325	80
239.559	83
239.793	84
240.027	91
240.26	83
240.494	90
240.728	95
240.961	83
241.195	89
241.429	91
241.662	84
241.896	79
242.13	72
242.363	92
242.597	76
242.83	85
243.064	87
243.298	82
243.531	91
243.765	101
243.998	84
244.232	86
244.465	103
244.699	108
244.932	86
245.166	95
245.399	86
245.633	85
245.866	91
246.099	88
246.333	92
246.566	95
246.8	91
247.033	99
247.266	96
247.5	92
247.733	95
247.966	88
248.2	93
248.433	89
248.666	97
248.899	88
249.133	96
249.366	101
249.599	95
249.832	97
250.066	107
250.299	104
250.532	95
250.765	114
250.998	111
251.231	108
251.465	111
251.698	91
251.931	93
252.164	99
252.397	103
252.63	101
252.863	101
253.096	91
253.329	100
253.562	110
253.795	95
254.028	108
254.261	105
254.494	100
254.727	91
254.96	89
255.193	99
255.426	109
255.659	111
255.892	114
256.124	100
256.357	127
256.59	80
256.823	93
257.056	95
257.289	115
257.521	107
257.754	104
257.987	113
258.22	103
258.452	111
258.685	101
258.918	103
259.151	110
259.383	118
259.616	89
259.849	107
260.081	111
260.314	118
260.547	103
260.779	101
261.012	77
261.244	109
261.477	97
261.71	105
261.942	89
262.175	115
262.407	109
262.64	106
262.872	112
263.105	120
263.337	102
263.57	112
263.802	116
264.035	114
264.267	111
264.499	112
264.732	116
264.964	99
265.197	111
265.429	102
265.661	111
265.894	104
266.126	125
266.358	112
266.591	101
266.823	111
267.055	121
267.287	116
267.52	119
267.752	124
267.984	112
268.216	119
268.448	108
268.681	119
268.913	112
269.145	90
269.377	104
269.609	113
269.841	99
270.073	114
270.306	108
270.538	113
270.77	131
271.002	121
271.234	122
271.466	103
271.698	124
271.93	141
272.162	98
272.394	121
272.626	110
272.858	116
273.09	123
273.322	121
273.553	122
273.785	117
274.017	119
274.249	127
274.481	114
274.713	125
274.945	133
275.176	118
275.408	141
275.64	123
275.872	109
276.104	100
276.335	115
276.567	117
276.799	129
277.031	127
277.262	130
277.494	124
277.726	130
277.957	137
278.189	127
278.421	127
278.652	128
278.884	131
279.115	131
279.347	105
279.579	130
279.81	121
280.042	121
280.273	118
280.505	128
280.736	112
280.968	129
281.199	142
281.431	125
281.662	127
281.894	124
282.125	129
282.356	129
282.588	127
282.819	146
283.051	115
283.282	125
283.513	125
283.745	132
283.976	127
284.207	112
284.439	135
284.67	131
284.901	132
285.132	141
285.364	141
285.595	141
285.826	131
286.057	134
286.288	129
286.52	144
286.751	130
286.982	141
287.213	143
287.444	129
287.675	137
287.906	141
288.138	132
288.369	143
288.6	151
288.831	154
289.062	131
289.293	141
289.524	137
289.755	140
289.986	128
290.217	129
290.448	143
290.679	127
290.91	147
291.141	142
291.371	132
291.602	139
291.833	142
292.064	137
292.295	142
292.526	142
292.757	148
292.987	136
293.218	142
293.449	141
293.68	139
293.91	151
294.141	135
294.372	136
294.603	143
294.833	147
295.064	139
295.295	127
295.525	142
295.756	154
295.987	139
296.217	134
296.448	148
296.679	141
296.909	132
297.14	138
297.37	140
297.601	144
297.831	147
298.062	138
298.292	144
298.523	137
298.753	146
298.984	150
299.214	148
299.445	136
299.675	146
299.905	154
300.136	156
300.366	144
300.597	149
300.827	155
301.057	150
301.288	158
301.518	140
301.748	135
301.979	152
302.209	141
302.439	161
302.669	157
302.9	143
303.13	151
303.36	148
303.59	155
303.82	147
304.051	157
304.281	160
304.511	147
304.741	141
304.971	146
305.201	156
305.431	137
305.661	153
305.891	155
306.121	164
306.352	159
306.582	146
306.812	151
307.042	146
307.272	166
307.502	134
307.731	160
307.961	146
308.191	140
308.421	145
308.651	159
308.881	152
309.111	145
309.341	139
309.571	145
309.8	152
310.03	150
310.26	161
310.49	157
310.72	138
310.949	163
311.179	157
311.409	159
311.639	153
311.868	162
312.098	149
312.328	131
312.557	153
312.787	167
313.017	155
313.246	160
313.476	158
313.706	144
313.935	155
314.165	151
314.394	157
314.624	162
314.853	161
315.083	166
315.312	167
315.542	166
315.771	153
316.001	162
316.23	143
316.46	168
316.689	167
316.919	164
317.148	153
317.377	162
317.607	162
317.836	160
318.065	159
318.295	164
318.524	166
318.753	178
318.983	160
319.212	168
319.441	161
319.67	156
319.9	153
320.129	151
320.358	145
320.587	152
320.816	169
321.046	161
321.275	163
321.504	172
321.733	149
321.962	137
322.191	171
322.42	138
322.649	171
322.878	159
323.108	159
323.337	157
323.566	160
323.795	162
324.024	151
324.253	156
324.482	147
324.71	157
324.939	168
325.168	172
325.397	166
325.626	166
325.855	168
326.084	157
326.313	179
326.542	178
326.77	170
326.999	170
327.228	171
327.457	167
327.686	170
327.914	165
328.143	182
328.372	169
328.6	165
328.829	187
329.058	173
329.287	172
329.515	162
329.744	163
329.972	164
330.201	161
330.43	175
330.658	173
330.887	176
331.115	180
331.344	172
331.572	171
331.801	172
332.03	166
332.258	197
332.486	183
332.715	199
332.943	185
333.172	191
333.4	202
333.629	200
333.857	199
334.085	201
334.314	188
334.542	196
334.771	197
334.999	211
335.227	179
335.455	209
335.684	179
335.912	195
336.14	188
336.369	188
336.597	201
336.825	191
337.053	198
337.281	193
337.51	183
337.738	178
337.966	187
338.194	200
338.422	192
338.65	178
338.878	192
339.106	177
339.334	194
339.562	162
339.79	186
340.018	177
340.246	161
340.474	169
340.702	171
340.93	175
341.158	171
341.386	177
341.614	165
341.842	180
342.07	176
342.298	172
342.526	167
342.754	166
342.981	178
343.209	179
343.437	178
343.665	196
343.893	189
344.12	191
344.348	200
344.576	184
344.804	207
345.031	169
345.259	168
345.487	183
345.714	169
345.942	165
346.17	182
346.397	176
346.625	171
346.853	168
347.08	167
347.308	173
347.535	182
347.763	160
347.99	183
348.218	170
348.445	173
348.673	172
348.9	173
349.128	171
349.355	184
349.583	163
349.81	162
350.037	179
350.265	186
350.492	172
350.72	181
350.947	183
351.174	183
351.402	170
351.629	165
351.856	154
352.083	170
352.311	178
352.538	169
352.765	169
352.992	183
353.22	161
353.447	166
353.674	171
353.901	169
354.128	166
354.355	160
354.583	166
354.81	186
355.037	164
355.264	181
355.491	165
355.718	161
355.945	178
356.172	169
356.399	163
356.626	173
356.853	175
357.08	177
357.307	166
357.534	163
357.761	180
357.988	190
358.215	191
358.441	182
358.668	162
358.895	173
359.122	171
359.349	171
359.576	192
359.802	185
360.029	164
360.256	177
360.483	150
360.709	182
360.936	181
361.163	176
361.39	163
361.616	177
361.843	181
362.07	176
362.296	180
362.523	179
362.749	181
362.976	180
363.203	176
363.429	175
363.656	180
363.882	178
364.109	183
364.335	187
364.562	188
364.788	161
365.015	187
365.241	183
365.468	182
365.694	166
365.92	179
366.147	173
366.373	201
366.599	180
366.826	155
367.052	171
367.278	179
367.505	166
367.731	183
367.957	171
368.184	157
368.41	163
368.636	171
368.862	176
369.089	187
369.315	166
369.541	193
369.767	172
369.993	194
370.219	192
370.445	169
370.672	172
370.898	179
371.124	192
371.35	191
371.576	181
371.802	197
372.028	183
372.254	191
372.48	181
372.706	192
372.932	194
373.158	196
373.384	187
373.61	186
373.835	194
374.061	183
374.287	191
374.513	186
374.739	189
374.965	196
375.191	198
375.416	183
375.642	208
375.868	200
376.094	187
376.319	197
376.545	184
376.771	177
376.997	185
377.222	179
377.448	192
377.674	197
377.899	185
378.125	179
378.35	184
378.576	183
378.802	182
379.027	186
379.253	170
379.478	178
379.704	186
379.929	198
380.155	183
380.38	171
380.606	177
380.831	184
381.057	170
381.282	183
381.507	185
381.733	194
381.958	186
382.184	203
382.409	187
382.634	199
382.86	210
383.085	179
383.31	205
383.535	181
383.761	192
383.986	209
384.211	216
384.436	204
384.662	201
384.887	216
385.112	209
385.337	225
385.562	202
385.787	202
386.013	209
386.238	221
386.463	192
386.688	203
386.913	227
387.138	221
387.363	203
387.588	220
387.813	219
388.038	226
388.263	228
388.488	211
388.713	223
388.938	202
389.163	215
389.387	205
389.612	198
389.837	214
390.062	220
390.287	209
390.512	202
390.736	212
390.961	199
391.186	228
391.411	220
391.636	223
391.86	244
392.085	222
392.31	233
392.534	214
392.759	235
392.984	218
393.208	224
393.433	225
393.658	228
393.882	216
394.107	225
394.331	206
394.556	211
394.78	228
395.005	227
395.229	230
395.454	226
395.678	220
395.903	240
396.127	220
396.352	205
396.576	243
396.801	218
397.025	225
397.249	237
397.474	231
397.698	235
397.922	248
398.147	219
398.371	238
398.595	271
398.82	260
399.044	262
399.268	277
399.492	316
399.717	329
399.941	324
400.165	295
400.389	274
400.613	260
400.837	248
401.062	262
401.286	261
401.51	240
401.734	255
401.958	260
402.182	246
402.406	229
402.63	256
402.854	253
403.078	256
403.302	263
403.526	282
403.75	257
403.974	277
404.198	280
404.422	279
404.645	285
404.869	272
405.093	272
405.317	273
405.541	270
405.765	269
405.988	259
406.212	267
406.436	268
406.66	278
406.883	307
407.107	296
407.331	303
407.555	308
407.778	299
408.002	315
408.226	285
408.449	300
408.673	292
408.896	284
409.12	279
409.344	290
409.567	270
409.791	285
410.014	278
410.238	287
410.461	270
410.685	267
410.908	283
411.132	264
411.355	260
411.578	257
411.802	251
412.025	266
412.249	273
412.472	290
412.695	272
412.919	262
413.142	261
413.365	251
413.589	259
413.812	244
414.035	268
414.258	259
414.482	256
414.705	265
414.928	265
415.151	262
415.374	239
415.597	263
415.821	259
416.044	244
416.267	264
416.49	257
416.713	264
416.936	240
417.159	244
417.382	279
417.605	265
417.828	256
418.051	269
418.274	267
418.497	254
418.72	262
418.943	263
419.166	261
419.389	271
419.611	283
419.834	267
420.057	265
420.28	252
420.503	267
420.726	246
420.948	266
421.171	255
421.394	245
421.617	267
421.839	285
422.062	266
422.285	268
422.507	273
422.73	257
422.953	264
423.175	280
423.398	281
423.621	276
423.843	288
424.066	280
424.288	280
424.511	292
424.733	265
424.956	245
425.178	259
425.401	255
425.623	270
425.846	242
426.068	260
426.291	259
426.513	257
426.735	243
426.958	237
427.18	244
427.402	248
427.625	257
427.847	227
428.069	241
428.292	235
428.514	239
428.736	226
428.958	245
429.181	234
429.403	240
429.625	237
429.847	235
430.069	239
430.292	245
430.514	245
430.736	264
430.958	237
431.18	229
431.402	231
431.624	247
431.846	241
432.068	232
432.29	245
432.512	240
432.734	258
432.956	234
433.178	248
433.4	236
433.622	243
433.844	239
434.066	244
434.287	250
434.509	265
434.731	259
434.953	249
435.175	267
435.397	266
435.618	261
435.84	253
436.062	249
436.284	235
436.505	235
436.727	263
436.949	243
437.17	236
437.392	229
437.614	226
437.835	236
438.057	243
438.278	248
438.5	232
438.721	259
438.943	243
439.165	234
439.386	239
439.608	253
439.829	247
440.05	236
440.272	243
440.493	253
440.715	257
440.936	253
441.158	250
441.379	273
441.6	282
441.822	279
442.043	278
442.264	270
442.486	270
442.707	277
442.928	283
443.149	284
443.371	261
443.592	273
443.813	269
444.034	288
444.255	266
444.476	292
444.698	306
444.919	308
445.14	377
445.361	338
445.582	280
445.803	279
446.024	257
446.245	290
446.466	276
446.687	273
446.908	272
447.129	273
447.35	269
447.571	273
447.792	246
448.013	246
448.234	241
448.455	241
448.675	258
448.896	252
449.117	251
449.338	246
449.559	257
449.779	250
450	227
450.221	257
450.442	255
450.662	236
450.883	240
451.104	239
451.324	232
451.545	247
451.766	223
451.986	249
452.207	219
452.428	253
452.648	246
452.869	228
453.089	229
453.31	226
453.53	233
453.751	225
453.971	211
454.192	231
454.412	233
454.633	221
454.853	233
455.073	231
455.294	232
455.514	244
455.734	220
455.955	227
456.175	224
456.395	203
456.616	208
456.836	239
457.056	228
457.276	209
457.497	219
457.717	218
457.937	213
458.157	221
458.377	227
458.598	236
458.818	227
459.038	205
459.258	226
459.478	239
459.698	241
459.918	260
460.138	277
460.358	273
460.578	270
460.798	273
461.018	276
461.238	270
461.458	269
461.678	277
461.898	284
462.118	272
462.338	304
462.558	302
462.777	304
462.997	340
463.217	320
463.437	340
463.657	333
463.876	299
464.096	312
464.316	309
464.536	316
464.755	305
464.975	300
465.195	284
465.414	286
465.634	259
465.854	244
466.073	239
466.293	245
466.512	239
466.732	247
466.951	253
467.171	265
467.391	254
467.61	245
467.829	249
468.049	247
468.268	233
468.488	235
468.707	248
468.927	233
469.146	232
469.365	226
469.585	224
469.804	236
470.023	251
470.243	242
470.462	251
470.681	259
470.901	266
471.12	244
471.339	239
471.558	233
471.777	243
471.997	235
472.216	245
472.435	243
472.654	215
472.873	241
473.092	244
473.311	224
473.53	225
473.749	246
473.968	233
474.187	241
474.406	230
474.625	234
474.844	229
475.063	232
475.282	231
475.501	225
475.72	228
475.939	227
476.158	244
476.377	247
476.596	246
476.814	261
477.033	240
477.252	233
477.471	239
477.69	252
477.908	281
478.127	253
478.346	271
478.564	275
478.783	268
479.002	274
479.22	277
479.439	274
479.658	258
479.876	278
480.095	278
480.313	263
480.532	288
480.751	282
480.969	260
481.188	272
481.406	245
481.624	249
481.843	239
482.061	242
482.28	248
482.498	243
482.717	240
482.935	244
483.153	246
483.372	265
483.59	257
483.808	256
484.027	265
484.245	245
484.463	243
484.681	275
484.9	245
485.118	256
485.336	255
485.554	260
485.772	266
485.99	269
486.209	262
486.427	243
486.645	257
486.863	251
487.081	236
487.299	263
487.517	255
487.735	280
487.953	273
488.171	271
488.389	267
488.607	266
488.825	269
489.043	257
489.261	259
489.479	249
489.696	257
489.914	257
490.132	253
490.35	264
490.568	271
490.786	275
491.003	269
491.221	265
491.439	274
491.657	270
491.874	276
492.092	280
492.31	277
492.527	279
492.745	282
492.963	277
493.18	263
493.398	291
493.615	283
493.833	283
494.05	286
494.268	264
494.485	267
494.703	282
494.92	275
495.138	276
495.355	288
495.573	276
495.79	279
496.008	287
496.225	280
496.442	272
496.66	285
496.877	285
497.094	288
497.312	286
497.529	299
497.746	305
497.963	284
498.181	322
498.398	328
498.615	331
498.832	345
499.049	371
499.267	387
499.484	417
499.701	455
499.918	505
500.135	558
500.352	580
500.569	612
500.786	599
501.003	541
501.22	523
501.437	467
501.654	431
501.871	400
502.088	372
502.305	340
502.522	337
502.739	343
502.956	325
503.172	321
503.389	306
503.606	310
503.823	292
504.04	292
504.256	275
504.473	295
504.69	312
504.907	295
505.123	300
505.34	266
505.557	278
505.773	264
505.99	259
506.207	237
506.423	228
506.64	269
506.856	246
507.073	255
507.289	234
507.506	245
507.722	249
507.939	235
508.155	250
508.372	234
508.588	223
508.805	253
509.021	251
509.238	226
509.454	225
509.67	228
509.887	227
510.103	218
510.319	226
510.536	227
510.752	221
510.968	228
511.184	236
511.401	234
511.617	231
511.833	212
512.049	201
512.265	240
512.481	217
512.698	212
512.914	224
513.13	243
513.346	219
513.562	228
513.778	237
513.994	218
514.21	226
514.426	231
514.642	207
514.858	219
515.074	235
515.29	230
515.506	229
515.721	239
515.937	240
516.153	247
516.369	241
516.585	260
516.801	239
517.016	263
517.232	272
517.448	287
517.664	289
517.879	290
518.095	284
518.311	265
518.527	273
518.742	257
518.958	267
519.173	259
519.389	236
519.605	232
519.82	237
520.036	244
520.251	227
520.467	242
520.682	233
520.898	224
521.113	232
521.329	227
521.544	222
521.76	215
521.975	209
522.19	220
522.406	239
522.621	220
522.836	229
523.052	235
523.267	214
523.482	200
523.698	211
523.913	218
524.128	217
524.343	221
524.559	216
524.774	212
524.989	217
525.204	204
525.419	216
525.634	206
525.849	212
526.064	221
526.28	216
526.495	199
526.71	199
526.925	185
527.14	218
527.355	203
527.57	212
527.785	211
527.999	193
528.214	216
528.429	203
528.644	211
528.859	224
529.074	207
529.289	213
529.503	221
529.718	208
529.933	206
530.148	184
530.363	200
530.577	225
530.792	193
531.007	203
531.221	212
531.436	206
531.651	217
531.865	187
532.08	206
532.295	217
532.509	204
532.724	196
532.938	198
533.153	205
533.367	219
533.582	212
533.796	215
534.011	208
534.225	205
534.44	197
534.654	209
534.868	203
535.083	207
535.297	209
535.511	203
535.726	215
535.94	192
536.154	206
536.369	203
536.583	191
536.797	199
537.011	207
537.225	204
537.44	185
537.654	194
537.868	191
538.082	183
538.296	215
538.51	205
538.724	204
538.938	216
539.153	210
539.367	195
539.581	187
539.795	199
540.009	186
540.222	198
540.436	201
540.65	205
540.864	200
541.078	193
541.292	198
541.506	191
541.72	226
541.934	201
542.147	194
542.361	200
542.575	194
542.789	208
543.002	203
543.216	205
543.43	204
543.644	201
543.857	194
544.071	191
544.285	203
544.498	216
544.712	197
544.925	183
545.139	209
545.352	197
545.566	202
545.779	205
545.993	214
546.206	203
546.42	208
546.633	219
546.847	210
547.06	204
547.274	191
547.487	218
547.7	207
547.914	214
548.127	203
548.34	210
548.554	213
548.767	197
548.98	212
549.193	215
549.407	195
549.62	204
549.833	212
550.046	217
550.259	205
550.473	203
550.686	218
550.899	215
551.112	200
551.325	173
551.538	202
551.751	213
551.964	207
552.177	196
552.39	203
552.603	207
552.816	216
553.029	217
553.242	219
553.455	225
553.667	226
553.88	204
554.093	210
554.306	205
554.519	200
554.732	203
554.944	213
555.157	195
555.37	198
555.583	197
555.795	193
556.008	192
556.221	179
556.433	185
556.646	193
556.859	176
557.071	185
557.284	196
557.496	171
557.709	167
557.921	199
558.134	192
558.346	194
558.559	183
558.771	188
558.984	171
559.196	200
559.409	175
559.621	167
559.833	179
560.046	189
560.258	168
560.47	187
560.683	185
560.895	174
561.107	185
561.32	179
561.532	175
561.744	163
561.956	179
562.168	193
562.381	189
562.593	176
562.805	166
563.017	173
563.229	178
563.441	175
563.653	178
563.865	188
564.077	181
564.289	184
564.501	199
564.713	171
564.925	198
565.137	183
565.349	178
565.561	201
565.773	202
565.985	199
566.197	212
566.408	229
566.62	242
566.832	221
567.044	237
567.255	236
567.467	241
567.679	250
567.891	284
568.102	273
568.314	233
568.526	232
568.737	227
568.949	212
569.161	220
569.372	199
569.584	179
569.795	187
570.007	183
570.218	182
570.43	183
570.641	188
570.853	176
571.064	204
571.276	175
571.487	173
571.698	181
571.91	165
572.121	176
572.333	171
572.544	156
572.755	151
572.966	170
573.178	158
573.389	162
573.6	162
573.811	160
574.023	152
574.234	155
574.445	148
574.656	169
574.867	161
575.078	159
575.289	158
575.501	149
575.712	145
575.923	154
576.134	158
576.345	151
576.556	156
576.767	151
576.978	160
577.188	145
577.399	155
577.61	158
577.821	162
578.032	160
578.243	147
578.454	150
578.665	148
578.875	134
579.086	148
579.297	163
579.508	144
579.718	137
579.929	141
580.14	161
580.35	136
580.561	152
580.772	138
580.982	157
581.193	150
581.403	128
581.614	142
581.825	153
582.035	137
582.246	147
582.456	139
582.667	140
582.877	147
583.087	129
583.298	147
583.508	138
583.719	131
583.929	136
584.139	137
584.35	153
584.56	159
584.77	149
584.981	145
585.191	132
585.401	128
585.611	120
585.821	121
586.032	138
586.242	135
586.452	139
586.662	148
586.872	142
587.082	143
587.292	138
587.502	131
587.713	142
587.923	142
588.133	133
588.343	125
588.553	131
588.762	156
588.972	139
589.182	147
589.392	129
589.602	127
589.812	117
590.022	133
590.232	144
590.441	131
590.651	139
590.861	137
591.071	132
591.281	157
591.49	150
591.7	133
591.91	140
592.119	142
592.329	144
592.539	136
592.748	147
592.958	156
593.167	159
593.377	163
593.587	164
593.796	159
594.006	156
594.215	147
594.424	137
594.634	159
594.843	157
595.053	164
595.262	151
595.472	137
595.681	138
595.89	143
596.1	131
596.309	130
596.518	137
596.727	139
596.937	133
597.146	127
597.355	127
597.564	125
597.774	142
597.983	125
598.192	129
598.401	132
598.61	130
598.819	132
599.028	135
599.237	131
599.446	127
599.655	138
599.864	146
600.073	135
600.282	121
600.491	130
600.7	121
600.909	129
601.118	141
601.327	135
601.536	131
601.745	117
601.953	130
602.162	131
602.371	132
602.58	142
602.789	127
602.997	125
603.206	138
603.415	131
603.623	112
603.832	138
604.041	121
604.249	125
604.458	135
604.666	121
604.875	129
605.084	119
605.292	127
605.501	125
605.709	136
605.918	145
606.126	131
606.334	119
606.543	118
606.751	117
606.96	132
607.168	138
607.376	123
607.585	125
607.793	144
608.001	121
608.21	130
608.418	113
608.626	112
608.834	114
609.043	104
609.251	118
609.459	113
609.667	132
609.875	126
610.083	111
610.291	120
610.499	114
610.707	118
610.916	128
611.124	124
611.332	116
611.54	127
611.748	134
611.955	141
612.163	127
612.371	108
612.579	127
612.787	109
612.995	113
613.203	141
613.411	120
613.618	137
613.826	129
614.034	128
614.242	127
614.449	117
614.657	139
614.865	114
615.072	114
615.28	127
615.488	124
615.695	115
615.903	104
616.111	125
616.318	133
616.526	129
616.733	129
616.941	135
617.148	127
617.356	128
617.563	105
617.771	116
617.978	124
618.185	115
618.393	125
618.6	126
618.807	119
619.015	117
619.222	125
619.429	119
619.637	131
619.844	123
620.051	117
620.258	127
620.466	108
620.673	119
620.88	121
621.087	116
621.294	130
621.501	129
621.708	119
621.915	134
622.122	122
622.329	113
622.536	122
622.743	131
622.95	127
623.157	112
623.364	114
623.571	130
623.778	122
623.985	122
624.192	117
624.399	122
624.606	141
624.812	106
625.019	118
625.226	100
625.433	109
625.639	108
625.846	117
626.053	122
626.259	111
626.466	119
626.673	114
626.879	109
627.086	111
627.293	119
627.499	121
627.706	113
627.912	114
628.119	118
628.325	117
628.532	117
628.738	124
628.945	113
629.151	126
629.357	120
629.564	113
629.77	119
629.976	117
630.183	120
630.389	97
630.595	116
630.802	114
631.008	103
631.214	122
631.42	117
631.627	113
631.833	117
632.039	127
632.245	121
632.451	99
632.657	120
632.863	111
633.069	98
633.275	123
633.481	101
633.688	126
633.893	123
634.099	121
634.305	94
634.511	94
634.717	115
634.923	105
635.129	126
635.335	108
635.541	116
635.747	112
635.952	116
636.158	106
636.364	99
636.57	105
636.775	102
636.981	104
637.187	112
637.392	107
637.598	101
637.804	104
638.009	105
638.215	100
638.421	106
638.626	99
638.832	106
639.037	113
639.243	107
639.448	117
639.654	104
639.859	119
640.065	90
640.27	121
640.475	103
640.681	111
640.886	107
641.091	109
641.297	107
641.502	113
641.707	109
641.913	100
642.118	97
642.323	118
642.528	122
642.733	103
642.939	123
643.144	121
643.349	110
643.554	114
643.759	108
643.964	91
644.169	113
644.374	90
644.579	107
644.784	97
644.989	95
645.194	108
645.399	117
645.604	99
645.809	123
646.014	107
646.219	119
646.423	105
646.628	123
646.833	119
647.038	112
647.243	103
647.447	98
647.652	113
647.857	110
648.062	110
648.266	111
648.471	108
648.676	106
648.88	106
649.085	114
649.289	119
649.494	96
649.698	111
649.903	109
650.107	91
650.312	115
650.516	101
650.721	99
650.925	109
651.13	85
651.334	98
651.539	101
651.743	98
651.947	99
652.152	94
652.356	111
652.56	96
652.764	107
652.969	92
653.173	90
653.377	100
653.581	107
653.785	102
653.99	102
654.194	115
654.398	106
654.602	99
654.806	100
655.01	91
655.214	109
655.418	109
655.622	99
655.826	97
656.03	101
656.234	89
656.438	95
656.642	106
656.846	90
657.049	100
657.253	95
657.457	120
657.661	98
657.865	91
658.068	102
658.272	86
658.476	114
658.68	91
658.883	81
659.087	93
659.291	82
659.494	99
659.698	80
659.901	87
660.105	93
660.309	82
660.512	95
660.716	91
660.919	84
661.123	91
661.326	90
661.53	84
661.733	77
661.936	91
662.14	77
662.343	82
662.546	74
662.75	90
662.953	97
663.156	83
663.36	84
663.563	79
663.766	85
663.969	91
664.173	91
664.376	81
664.579	83
664.782	77
664.985	83
665.188	91
665.391	92
665.594	76
665.797	90
666	88
666.203	93
666.406	87
666.609	89
666.812	91
667.015	81
667.218	86
667.421	75
667.624	84
667.827	83
668.03	76
668.232	84
668.435	75
668.638	71
668.841	88
669.043	80
669.246	87
669.449	85
669.651	82
669.854	81
670.057	84
670.259	85
670.462	76
670.665	81
670.867	73
671.07	83
671.272	84
671.475	73
671.677	66
671.88	71
672.082	63
672.284	83
672.487	76
672.689	81
672.892	89
