Data from Fe(NO3)3@0.1M.TitratingCurve.Agarose3%dH2O.NegLispCup.LampEnergy10.LIBS07252019_HRD10591_16-37-15-331.txt Node
Date: Thu Jul 25 16:37:15 EDT 2019
User: cochatt
Spectrometer: HR+D1059
Trigger mode: 1
Integration Time (sec): 1.000000E-1
Scans to average: 1
Electric dark correction enabled: true
Nonlinearity correction enabled: false
Boxcar width: 0
XAxis mode: Wavelengths
Number of Pixels in Spectrum: 2048
>>>>>Begin Spectral Data<<<<<
223.165	-22
223.4	-22
223.635	-22
223.869	-9
224.104	-11
224.338	-16
224.573	-17
224.808	-10
225.042	-11
225.277	-1
225.511	-9
225.746	9
225.98	7
226.215	6
226.449	17
226.683	17
226.918	29
227.152	21
227.387	19
227.621	25
227.856	31
228.09	43
228.324	43
228.559	39
228.793	65
229.027	74
229.262	67
229.496	81
229.73	77
229.964	98
230.199	92
230.433	90
230.667	84
230.901	91
231.136	71
231.37	90
231.604	88
231.838	96
232.072	101
232.306	103
232.541	93
232.775	90
233.009	108
233.243	85
233.477	104
233.711	100
233.945	88
234.179	92
234.413	89
234.647	103
234.881	74
235.115	85
235.349	73
235.583	99
235.817	91
236.051	96
236.285	101
236.519	83
236.753	79
236.987	100
237.221	97
237.455	99
237.689	83
237.922	99
238.156	87
238.39	116
238.624	115
238.858	95
239.091	82
239.325	84
239.559	90
239.793	87
240.027	96
240.26	103
240.494	90
240.728	106
240.961	97
241.195	100
241.429	100
241.662	108
241.896	118
242.13	101
242.363	95
242.597	96
242.83	101
243.064	101
243.298	84
243.531	103
243.765	107
243.998	88
244.232	102
244.465	96
244.699	116
244.932	114
245.166	102
245.399	114
245.633	93
245.866	116
246.099	85
246.333	108
246.566	104
246.8	104
247.033	113
247.266	116
247.5	102
247.733	91
247.966	100
248.2	120
248.433	106
248.666	116
248.899	137
249.133	124
249.366	112
249.599	108
249.832	111
250.066	123
250.299	117
250.532	117
250.765	111
250.998	101
251.231	116
251.465	119
251.698	117
251.931	105
252.164	123
252.397	123
252.63	124
252.863	115
253.096	121
253.329	114
253.562	124
253.795	114
254.028	119
254.261	111
254.494	126
254.727	127
254.96	120
255.193	121
255.426	112
255.659	132
255.892	128
256.124	117
256.357	138
256.59	124
256.823	116
257.056	131
257.289	117
257.521	119
257.754	129
257.987	124
258.22	115
258.452	119
258.685	139
258.918	124
259.151	124
259.383	140
259.616	123
259.849	125
260.081	134
260.314	151
260.547	138
260.779	149
261.012	144
261.244	145
261.477	139
261.71	139
261.942	130
262.175	125
262.407	135
262.64	132
262.872	141
263.105	141
263.337	145
263.57	123
263.802	128
264.035	123
264.267	139
264.499	134
264.732	133
264.964	127
265.197	140
265.429	132
265.661	121
265.894	126
266.126	139
266.358	140
266.591	155
266.823	141
267.055	150
267.287	135
267.52	137
267.752	127
267.984	141
268.216	146
268.448	145
268.681	159
268.913	133
269.145	137
269.377	141
269.609	135
269.841	141
270.073	138
270.306	137
270.538	137
270.77	138
271.002	159
271.234	147
271.466	171
271.698	154
271.93	152
272.162	149
272.394	151
272.626	144
272.858	148
273.09	145
273.322	141
273.553	138
273.785	151
274.017	133
274.249	161
274.481	162
274.713	170
274.945	173
275.176	169
275.408	167
275.64	158
275.872	140
276.104	154
276.335	147
276.567	151
276.799	151
277.031	152
277.262	138
277.494	161
277.726	161
277.957	160
278.189	150
278.421	159
278.652	161
278.884	167
279.115	150
279.347	169
279.579	159
279.81	157
280.042	153
280.273	153
280.505	163
280.736	159
280.968	163
281.199	171
281.431	154
281.662	167
281.894	173
282.125	153
282.356	179
282.588	168
282.819	151
283.051	170
283.282	160
283.513	191
283.745	165
283.976	166
284.207	159
284.439	158
284.67	186
284.901	160
285.132	177
285.364	169
285.595	174
285.826	175
286.057	155
286.288	164
286.52	185
286.751	175
286.982	167
287.213	152
287.444	188
287.675	191
287.906	175
288.138	164
288.369	169
288.6	171
288.831	184
289.062	187
289.293	176
289.524	167
289.755	176
289.986	175
290.217	175
290.448	186
290.679	180
290.91	187
291.141	173
291.371	178
291.602	164
291.833	175
292.064	169
292.295	192
292.526	163
292.757	196
292.987	169
293.218	163
293.449	179
293.68	178
293.91	176
294.141	163
294.372	171
294.603	191
294.833	185
295.064	196
295.295	185
295.525	180
295.756	191
295.987	187
296.217	183
296.448	195
296.679	193
296.909	176
297.14	197
297.37	189
297.601	197
297.831	215
298.062	188
298.292	187
298.523	198
298.753	202
298.984	184
299.214	188
299.445	185
299.675	195
299.905	198
300.136	189
300.366	187
300.597	200
300.827	193
301.057	213
301.288	193
301.518	191
301.748	214
301.979	208
302.209	202
302.439	203
302.669	198
302.9	213
303.13	189
303.36	201
303.59	188
303.82	178
304.051	201
304.281	209
304.511	200
304.741	205
304.971	204
305.201	211
305.431	194
305.661	197
305.891	203
306.121	208
306.352	191
306.582	186
306.812	196
307.042	192
307.272	210
307.502	200
307.731	192
307.961	202
308.191	199
308.421	198
308.651	204
308.881	204
309.111	202
309.341	186
309.571	196
309.8	201
310.03	204
310.26	189
310.49	202
310.72	183
310.949	195
311.179	192
311.409	204
311.639	211
311.868	186
312.098	203
312.328	204
312.557	208
312.787	202
313.017	208
313.246	208
313.476	223
313.706	226
313.935	214
314.165	203
314.394	213
314.624	215
314.853	215
315.083	205
315.312	207
315.542	208
315.771	225
316.001	200
316.23	214
316.46	191
316.689	204
316.919	215
317.148	213
317.377	194
317.607	205
317.836	209
318.065	209
318.295	202
318.524	204
318.753	219
318.983	220
319.212	206
319.441	202
319.67	218
319.9	216
320.129	208
320.358	212
320.587	208
320.816	215
321.046	203
321.275	206
321.504	203
321.733	211
321.962	214
322.191	212
322.42	224
322.649	216
322.878	219
323.108	210
323.337	219
323.566	215
323.795	222
324.024	214
324.253	208
324.482	211
324.71	214
324.939	220
325.168	205
325.397	220
325.626	217
325.855	234
326.084	225
326.313	232
326.542	234
326.77	223
326.999	217
327.228	226
327.457	222
327.686	209
327.914	244
328.143	247
328.372	219
328.6	208
328.829	209
329.058	219
329.287	226
329.515	217
329.744	223
329.972	229
330.201	229
330.43	223
330.658	229
330.887	225
331.115	227
331.344	216
331.572	238
331.801	247
332.03	268
332.258	245
332.486	255
332.715	256
332.943	253
333.172	275
333.4	277
333.629	283
333.857	285
334.085	275
334.314	280
334.542	294
334.771	264
334.999	254
335.227	260
335.455	263
335.684	261
335.912	256
336.14	252
336.369	263
336.597	273
336.825	267
337.053	247
337.281	247
337.51	236
337.738	245
337.966	241
338.194	220
338.422	267
338.65	235
338.878	239
339.106	240
339.334	249
339.562	217
339.79	223
340.018	229
340.246	247
340.474	231
340.702	239
340.93	230
341.158	239
341.386	243
341.614	233
341.842	234
342.07	233
342.298	226
342.526	234
342.754	247
342.981	229
343.209	255
343.437	250
343.665	245
343.893	266
344.12	269
344.348	260
344.576	266
344.804	242
345.031	267
345.259	256
345.487	235
345.714	247
345.942	232
346.17	230
346.397	230
346.625	221
346.853	217
347.08	213
347.308	228
347.535	227
347.763	242
347.99	233
348.218	232
348.445	215
348.673	229
348.9	210
349.128	233
349.355	228
349.583	237
349.81	240
350.037	228
350.265	217
350.492	246
350.72	237
350.947	246
351.174	239
351.402	230
351.629	225
351.856	228
352.083	219
352.311	218
352.538	238
352.765	237
352.992	227
353.22	226
353.447	209
353.674	229
353.901	219
354.128	228
354.355	213
354.583	233
354.81	232
355.037	229
355.264	242
355.491	226
355.718	235
355.945	241
356.172	221
356.399	228
356.626	228
356.853	235
357.08	231
357.307	229
357.534	231
357.761	227
357.988	237
358.215	236
358.441	237
358.668	226
358.895	234
359.122	232
359.349	241
359.576	223
359.802	228
360.029	235
360.256	247
360.483	227
360.709	232
360.936	248
361.163	239
361.39	249
361.616	224
361.843	243
362.07	230
362.296	244
362.523	231
362.749	253
362.976	249
363.203	255
363.429	219
363.656	245
363.882	233
364.109	240
364.335	224
364.562	236
364.788	240
365.015	250
365.241	234
365.468	255
365.694	230
365.92	247
366.147	234
366.373	239
366.599	227
366.826	224
367.052	255
367.278	243
367.505	244
367.731	263
367.957	240
368.184	265
368.41	249
368.636	262
368.862	244
369.089	263
369.315	245
369.541	259
369.767	261
369.993	268
370.219	268
370.445	260
370.672	269
370.898	250
371.124	257
371.35	265
371.576	246
371.802	268
372.028	260
372.254	269
372.48	269
372.706	276
372.932	262
373.158	265
373.384	273
373.61	267
373.835	297
374.061	279
374.287	268
374.513	287
374.739	273
374.965	285
375.191	293
375.416	292
375.642	287
375.868	287
376.094	273
376.319	273
376.545	293
376.771	278
376.997	270
377.222	303
377.448	284
377.674	273
377.899	294
378.125	270
378.35	276
378.576	274
378.802	292
379.027	270
379.253	275
379.478	270
379.704	263
379.929	271
380.155	292
380.38	290
380.606	286
380.831	286
381.057	272
381.282	285
381.507	279
381.733	289
381.958	285
382.184	291
382.409	298
382.634	291
382.86	294
383.085	314
383.31	305
383.535	317
383.761	305
383.986	314
384.211	305
384.436	334
384.662	327
384.887	334
385.112	343
385.337	340
385.562	324
385.787	337
386.013	348
386.238	353
386.463	336
386.688	332
386.913	309
387.138	327
387.363	339
387.588	341
387.813	339
388.038	330
388.263	336
388.488	357
388.713	333
388.938	338
389.163	340
389.387	329
389.612	337
389.837	331
390.062	346
390.287	330
390.512	333
390.736	319
390.961	333
391.186	331
391.411	351
391.636	345
391.86	372
392.085	376
392.31	367
392.534	356
392.759	365
392.984	362
393.208	357
393.433	366
393.658	371
393.882	357
394.107	360
394.331	369
394.556	372
394.78	337
395.005	367
395.229	393
395.454	359
395.678	371
395.903	390
396.127	362
396.352	379
396.576	365
396.801	357
397.025	388
397.249	375
397.474	391
397.698	368
397.922	381
398.147	382
398.371	392
398.595	393
398.82	401
399.044	416
399.268	445
399.492	513
399.717	541
399.941	540
400.165	517
400.389	471
400.613	444
400.837	413
401.062	428
401.286	406
401.51	412
401.734	401
401.958	414
402.182	433
402.406	429
402.63	441
402.854	448
403.078	451
403.302	440
403.526	430
403.75	470
403.974	466
404.198	467
404.422	476
404.645	452
404.869	467
405.093	470
405.317	458
405.541	423
405.765	469
405.988	449
406.212	443
406.436	455
406.66	468
406.883	457
407.107	499
407.331	507
407.555	527
407.778	513
408.002	518
408.226	495
408.449	481
408.673	467
408.896	455
409.12	467
409.344	471
409.567	481
409.791	466
410.014	449
410.238	452
410.461	463
410.685	459
410.908	448
411.132	446
411.355	419
411.578	456
411.802	427
412.025	448
412.249	433
412.472	433
412.695	431
412.919	419
413.142	413
413.365	401
413.589	422
413.812	402
414.035	445
414.258	429
414.482	428
414.705	430
414.928	449
415.151	438
415.374	439
415.597	428
415.821	431
416.044	434
416.267	420
416.49	434
416.713	433
416.936	411
417.159	425
417.382	416
417.605	420
417.828	413
418.051	423
418.274	428
418.497	411
418.72	419
418.943	431
419.166	485
419.389	465
419.611	463
419.834	446
420.057	444
420.28	432
420.503	417
420.726	408
420.948	402
421.171	409
421.394	396
421.617	411
421.839	419
422.062	409
422.285	417
422.507	424
422.73	438
422.953	438
423.175	414
423.398	444
423.621	421
423.843	436
424.066	441
424.288	442
424.511	423
424.733	429
424.956	429
425.178	433
425.401	426
425.623	424
425.846	412
426.068	406
426.291	413
426.513	420
426.735	406
426.958	404
427.18	395
427.402	395
427.625	391
427.847	380
428.069	394
428.292	395
428.514	387
428.736	393
428.958	399
429.181	379
429.403	389
429.625	382
429.847	378
430.069	352
430.292	385
430.514	369
430.736	378
430.958	397
431.18	377
431.402	377
431.624	381
431.846	400
432.068	379
432.29	405
432.512	397
432.734	381
432.956	391
433.178	402
433.4	369
433.622	409
433.844	389
434.066	395
434.287	398
434.509	393
434.731	401
434.953	441
435.175	407
435.397	420
435.618	405
435.84	388
436.062	411
436.284	389
436.505	399
436.727	395
436.949	399
437.17	394
437.392	377
437.614	369
437.835	352
438.057	372
438.278	389
438.5	379
438.721	387
438.943	394
439.165	375
439.386	354
439.608	399
439.829	363
440.05	387
440.272	392
440.493	387
440.715	395
440.936	398
441.158	406
441.379	420
441.6	444
441.822	403
442.043	419
442.264	422
442.486	392
442.707	400
442.928	431
443.149	418
443.371	418
443.592	409
443.813	431
444.034	431
444.255	431
444.476	457
444.698	464
444.919	456
445.14	574
445.361	489
445.582	419
445.803	412
446.024	376
446.245	388
446.466	391
446.687	370
446.908	389
447.129	389
447.35	385
447.571	377
447.792	376
448.013	377
448.234	371
448.455	355
448.675	369
448.896	351
449.117	345
449.338	353
449.559	349
449.779	368
450	339
450.221	349
450.442	365
450.662	375
450.883	347
451.104	361
451.324	375
451.545	358
451.766	380
451.986	367
452.207	367
452.428	362
452.648	355
452.869	357
453.089	355
453.31	346
453.53	332
453.751	329
453.971	342
454.192	353
454.412	337
454.633	363
454.853	355
455.073	353
455.294	349
455.514	335
455.734	337
455.955	348
456.175	331
456.395	344
456.616	338
456.836	353
457.056	351
457.276	343
457.497	354
457.717	336
457.937	351
458.157	354
458.377	318
458.598	359
458.818	350
459.038	358
459.258	364
459.478	383
459.698	403
459.918	376
460.138	395
460.358	408
460.578	432
460.798	440
461.018	440
461.238	426
461.458	417
461.678	412
461.898	439
462.118	456
462.338	443
462.558	464
462.777	479
462.997	520
463.217	559
463.437	529
463.657	490
463.876	509
464.096	495
464.316	489
464.536	499
464.755	473
464.975	465
465.195	465
465.414	423
465.634	404
465.854	391
466.073	387
466.293	396
466.512	382
466.732	390
466.951	387
467.171	380
467.391	355
467.61	391
467.829	380
468.049	372
468.268	374
468.488	376
468.707	369
468.927	339
469.146	362
469.365	386
469.585	373
469.804	384
470.023	379
470.243	365
470.462	389
470.681	397
470.901	383
471.12	383
471.339	367
471.558	382
471.777	380
471.997	383
472.216	379
472.435	365
472.654	372
472.873	362
473.092	359
473.311	348
473.53	343
473.749	360
473.968	364
474.187	364
474.406	350
474.625	354
474.844	347
475.063	350
475.282	381
475.501	348
475.72	369
475.939	371
476.158	374
476.377	384
476.596	383
476.814	396
477.033	392
477.252	384
477.471	381
477.69	408
477.908	392
478.127	411
478.346	416
478.564	411
478.783	455
479.002	447
479.22	439
479.439	436
479.658	415
479.876	427
480.095	425
480.313	448
480.532	469
480.751	451
480.969	429
481.188	441
481.406	436
481.624	425
481.843	415
482.061	411
482.28	406
482.498	437
482.717	403
482.935	411
483.153	402
483.372	394
483.59	414
483.808	403
484.027	411
484.245	401
484.463	421
484.681	416
484.9	442
485.118	419
485.336	444
485.554	430
485.772	427
485.99	459
486.209	416
486.427	422
486.645	435
486.863	434
487.081	434
487.299	428
487.517	439
487.735	428
487.953	422
488.171	425
488.389	428
488.607	419
488.825	435
489.043	419
489.261	421
489.479	423
489.696	427
489.914	450
490.132	433
490.35	438
490.568	442
490.786	429
491.003	437
491.221	419
491.439	420
491.657	437
491.874	439
492.092	436
492.31	442
492.527	439
492.745	443
492.963	453
493.18	442
493.398	460
493.615	451
493.833	443
494.05	456
494.268	455
494.485	442
494.703	458
494.92	473
495.138	437
495.355	449
495.573	483
495.79	471
496.008	456
496.225	463
496.442	459
496.66	499
496.877	503
497.094	501
497.312	480
497.529	509
497.746	496
497.963	532
498.181	522
498.398	553
498.615	559
498.832	575
499.049	623
499.267	655
499.484	721
499.701	797
499.918	813
500.135	945
500.352	1034
500.569	1073
500.786	1060
501.003	992
501.22	905
501.437	842
501.654	775
501.871	690
502.088	639
502.305	617
502.522	619
502.739	598
502.956	564
503.172	536
503.389	520
503.606	505
503.823	505
504.04	490
504.256	496
504.473	505
504.69	502
504.907	508
505.123	484
505.34	457
505.557	465
505.773	451
505.99	435
506.207	415
506.423	417
506.64	423
506.856	420
507.073	415
507.289	397
507.506	396
507.722	415
507.939	391
508.155	399
508.372	375
508.588	396
508.805	385
509.021	369
509.238	381
509.454	387
509.67	379
509.887	372
510.103	381
510.319	386
510.536	375
510.752	358
510.968	381
511.184	365
511.401	373
511.617	373
511.833	393
512.049	360
512.265	390
512.481	361
512.698	373
512.914	385
513.13	381
513.346	375
513.562	383
513.778	383
513.994	389
514.21	376
514.426	388
514.642	385
514.858	386
515.074	372
515.29	394
515.506	388
515.721	392
515.937	406
516.153	391
516.369	410
516.585	409
516.801	424
517.016	422
517.232	443
517.448	459
517.664	495
517.879	451
518.095	457
518.311	458
518.527	461
518.742	423
518.958	445
519.173	415
519.389	421
519.605	393
519.82	398
520.036	414
520.251	403
520.467	409
520.682	374
520.898	394
521.113	381
521.329	372
521.544	381
521.76	375
521.975	350
522.19	359
522.406	359
522.621	372
522.836	358
523.052	348
523.267	349
523.482	346
523.698	350
523.913	369
524.128	345
524.343	367
524.559	371
524.774	357
524.989	339
525.204	326
525.419	345
525.634	342
525.849	347
526.064	362
526.28	347
526.495	345
526.71	351
526.925	343
527.14	349
527.355	358
527.57	333
527.785	340
527.999	340
528.214	355
528.429	326
528.644	326
528.859	339
529.074	341
529.289	346
529.503	343
529.718	341
529.933	356
530.148	362
530.363	349
530.577	355
530.792	328
531.007	333
531.221	349
531.436	335
531.651	343
531.865	346
532.08	342
532.295	348
532.509	345
532.724	332
532.938	369
533.153	344
533.367	353
533.582	369
533.796	359
534.011	350
534.225	332
534.44	331
534.654	338
534.868	341
535.083	322
535.297	330
535.511	337
535.726	339
535.94	339
536.154	328
536.369	337
536.583	340
536.797	333
537.011	320
537.225	335
537.44	353
537.654	330
537.868	319
538.082	339
538.296	322
538.51	325
538.724	339
538.938	324
539.153	308
539.367	324
539.581	307
539.795	304
540.009	315
540.222	309
540.436	332
540.65	304
540.864	302
541.078	297
541.292	313
541.506	296
541.72	319
541.934	319
542.147	318
542.361	322
542.575	347
542.789	313
543.002	311
543.216	324
543.43	324
543.644	305
543.857	319
544.071	321
544.285	339
544.498	332
544.712	319
544.925	307
545.139	323
545.352	324
545.566	333
545.779	336
545.993	326
546.206	332
546.42	303
546.633	323
546.847	314
547.06	329
547.274	322
547.487	341
547.7	331
547.914	334
548.127	325
548.34	332
548.554	332
548.767	324
548.98	324
549.193	337
549.407	317
549.62	343
549.833	315
550.046	336
550.259	332
550.473	322
550.686	332
550.899	323
551.112	316
551.325	303
551.538	327
551.751	313
551.964	320
552.177	325
552.39	326
552.603	322
552.816	328
553.029	346
553.242	333
553.455	320
553.667	357
553.88	338
554.093	312
554.306	335
554.519	313
554.732	313
554.944	316
555.157	305
555.37	296
555.583	303
555.795	295
556.008	303
556.221	295
556.433	290
556.646	305
556.859	277
557.071	278
557.284	291
557.496	294
557.709	283
557.921	280
558.134	304
558.346	280
558.559	303
558.771	276
558.984	279
559.196	294
559.409	278
559.621	288
559.833	288
560.046	296
560.258	280
560.47	256
560.683	274
560.895	273
561.107	270
561.32	281
561.532	288
561.744	282
561.956	283
562.168	278
562.381	280
562.593	272
562.805	278
563.017	269
563.229	282
563.441	293
563.653	293
563.865	289
564.077	279
564.289	291
564.501	308
564.713	315
564.925	284
565.137	310
565.349	295
565.561	292
565.773	320
565.985	326
566.197	339
566.408	355
566.62	363
566.832	405
567.044	409
567.255	389
567.467	404
567.679	394
567.891	428
568.102	467
568.314	419
568.526	394
568.737	365
568.949	343
569.161	328
569.372	312
569.584	297
569.795	291
570.007	292
570.218	280
570.43	294
570.641	279
570.853	290
571.064	280
571.276	287
571.487	256
571.698	264
571.91	254
572.121	269
572.333	246
572.544	252
572.755	254
572.966	222
573.178	248
573.389	253
573.6	253
573.811	245
574.023	223
574.234	227
574.445	235
574.656	238
574.867	245
575.078	259
575.289	245
575.501	221
575.712	227
575.923	236
576.134	230
576.345	228
576.556	225
576.767	220
576.978	216
577.188	223
577.399	232
577.61	228
577.821	218
578.032	239
578.243	229
578.454	221
578.665	208
578.875	225
579.086	225
579.297	213
579.508	213
579.718	220
579.929	218
580.14	223
580.35	226
580.561	224
580.772	200
580.982	209
581.193	206
581.403	209
581.614	241
581.825	194
582.035	208
582.246	220
582.456	227
582.667	223
582.877	201
583.087	201
583.298	212
583.508	207
583.719	220
583.929	197
584.139	208
584.35	213
584.56	211
584.77	205
584.981	219
585.191	201
585.401	199
585.611	194
585.821	199
586.032	206
586.242	199
586.452	210
586.662	205
586.872	210
587.082	183
587.292	211
587.502	198
587.713	199
587.923	204
588.133	199
588.343	209
588.553	214
588.762	194
588.972	196
589.182	205
589.392	195
589.602	215
589.812	196
590.022	197
590.232	205
590.441	199
590.651	208
590.861	191
591.071	203
591.281	201
591.49	195
591.7	214
591.91	211
592.119	201
592.329	219
592.539	210
592.748	220
592.958	237
593.167	224
593.377	228
593.587	240
593.796	239
594.006	241
594.215	238
594.424	233
594.634	232
594.843	230
595.053	219
595.262	213
595.472	212
595.681	219
595.89	196
596.1	207
596.309	189
596.518	203
596.727	187
596.937	193
597.146	203
597.355	187
597.564	191
597.774	188
597.983	197
598.192	196
598.401	201
598.61	175
598.819	195
599.028	188
599.237	186
599.446	203
599.655	180
599.864	164
600.073	166
600.282	169
600.491	172
600.7	179
600.909	181
601.118	171
601.327	185
601.536	181
601.745	170
601.953	165
602.162	177
602.371	180
602.58	168
602.789	187
602.997	177
603.206	173
603.415	180
603.623	183
603.832	170
604.041	167
604.249	166
604.458	184
604.666	179
604.875	172
605.084	195
605.292	191
605.501	170
605.709	177
605.918	179
606.126	173
606.334	153
606.543	170
606.751	163
606.96	166
607.168	171
607.376	177
607.585	174
607.793	175
608.001	165
608.21	161
608.418	172
608.626	161
608.834	151
609.043	154
609.251	160
609.459	166
609.667	183
609.875	181
610.083	155
610.291	157
610.499	178
610.707	180
610.916	169
611.124	182
611.332	171
611.54	172
611.748	172
611.955	172
612.163	188
612.371	173
612.579	165
612.787	163
612.995	164
613.203	176
613.411	171
613.618	157
613.826	148
614.034	161
614.242	164
614.449	157
614.657	160
614.865	164
615.072	163
615.28	165
615.488	171
615.695	178
615.903	159
616.111	152
616.318	161
616.526	169
616.733	164
616.941	158
617.148	176
617.356	163
617.563	161
617.771	168
617.978	155
618.185	149
618.393	157
618.6	159
618.807	140
619.015	169
619.222	164
619.429	159
619.637	163
619.844	172
620.051	144
620.258	164
620.466	164
620.673	157
620.88	139
621.087	156
621.294	159
621.501	159
621.708	157
621.915	160
622.122	162
622.329	155
622.536	156
622.743	155
622.95	164
623.157	151
623.364	140
623.571	163
623.778	163
623.985	155
624.192	166
624.399	151
624.606	160
624.812	165
625.019	153
625.226	141
625.433	146
625.639	139
625.846	149
626.053	163
626.259	139
626.466	143
626.673	139
626.879	155
627.086	155
627.293	151
627.499	141
627.706	151
627.912	143
628.119	148
628.325	153
628.532	162
628.738	154
628.945	134
629.151	147
629.357	140
629.564	145
629.77	147
629.976	145
630.183	154
630.389	140
630.595	143
630.802	147
631.008	136
631.214	147
631.42	147
631.627	144
631.833	155
632.039	138
632.245	153
632.451	131
632.657	133
632.863	135
633.069	136
633.275	143
633.481	147
633.688	141
633.893	141
634.099	141
634.305	140
634.511	148
634.717	136
634.923	130
635.129	141
635.335	142
635.541	157
635.747	135
635.952	139
636.158	121
636.364	142
636.57	139
636.775	141
636.981	146
637.187	140
637.392	139
637.598	125
637.804	123
638.009	142
638.215	121
638.421	134
638.626	146
638.832	149
639.037	130
639.243	123
639.448	140
639.654	126
639.859	137
640.065	123
640.27	132
640.475	129
640.681	119
640.886	136
641.091	133
641.297	151
641.502	131
641.707	130
641.913	139
642.118	126
642.323	130
642.528	130
642.733	150
642.939	128
643.144	134
643.349	140
643.554	136
643.759	118
643.964	128
644.169	135
644.374	123
644.579	135
644.784	133
644.989	120
645.194	127
645.399	132
645.604	131
645.809	131
646.014	138
646.219	125
646.423	151
646.628	124
646.833	116
647.038	121
647.243	124
647.447	115
647.652	111
647.857	128
648.062	139
648.266	123
648.471	129
648.676	111
648.88	119
649.085	134
649.289	125
649.494	129
649.698	124
649.903	135
650.107	126
650.312	126
650.516	123
650.721	119
650.925	126
651.13	116
651.334	113
651.539	105
651.743	115
651.947	120
652.152	121
652.356	106
652.56	123
652.764	127
652.969	109
653.173	125
653.377	115
653.581	111
653.785	128
653.99	117
654.194	109
654.398	108
654.602	131
654.806	112
655.01	111
655.214	118
655.418	108
655.622	113
655.826	111
656.03	126
656.234	110
656.438	117
656.642	106
656.846	123
657.049	114
657.253	120
657.457	108
657.661	93
657.865	103
658.068	112
658.272	86
658.476	89
658.68	98
658.883	79
659.087	92
659.291	98
659.494	108
659.698	94
659.901	103
660.105	80
660.309	104
660.512	89
660.716	94
660.919	98
661.123	92
661.326	81
661.53	85
661.733	92
661.936	93
662.14	100
662.343	80
662.546	72
662.75	78
662.953	87
663.156	75
663.36	87
663.563	76
663.766	87
663.969	82
664.173	82
664.376	82
664.579	96
664.782	91
664.985	87
665.188	80
665.391	77
665.594	75
665.797	82
666	77
666.203	82
666.406	93
666.609	68
666.812	79
667.015	75
667.218	90
667.421	85
667.624	74
667.827	86
668.03	83
668.232	78
668.435	83
668.638	80
668.841	79
669.043	92
669.246	84
669.449	82
669.651	75
669.854	73
670.057	76
670.259	82
670.462	75
670.665	91
670.867	77
671.07	89
671.272	95
671.475	92
671.677	80
671.88	68
672.082	77
672.284	74
672.487	80
672.689	80
672.892	85
