Data from Fe(NO3)3@0.05M.TitratingCurve.Agarose3%dH2O.NegLispCup.LampEnergy10.LIBS07252019_HRD10591_16-48-47-334.txt Node
Date: Thu Jul 25 16:48:47 EDT 2019
User: cochatt
Spectrometer: HR+D1059
Trigger mode: 1
Integration Time (sec): 1.000000E-1
Scans to average: 1
Electric dark correction enabled: true
Nonlinearity correction enabled: false
Boxcar width: 0
XAxis mode: Wavelengths
Number of Pixels in Spectrum: 2048
>>>>>Begin Spectral Data<<<<<
223.165	-17.81
223.4	-17.81
223.635	-17.81
223.869	-9.81
224.104	-20.81
224.338	-23.81
224.573	-15.81
224.808	-13.81
225.042	-4.81
225.277	1.19
225.511	3.19
225.746	6.19
225.98	8.19
226.215	4.19
226.449	28.19
226.683	15.19
226.918	20.19
227.152	20.19
227.387	29.19
227.621	41.19
227.856	46.19
228.09	52.19
228.324	56.19
228.559	45.19
228.793	51.19
229.027	53.19
229.262	73.19
229.496	80.19
229.73	80.19
229.964	73.19
230.199	67.19
230.433	91.19
230.667	87.19
230.901	79.19
231.136	77.19
231.37	97.19
231.604	70.19
231.838	85.19
232.072	94.19
232.306	86.19
232.541	79.19
232.775	87.19
233.009	83.19
233.243	96.19
233.477	99.19
233.711	90.19
233.945	84.19
234.179	95.19
234.413	100.19
234.647	102.19
234.881	80.19
235.115	93.19
235.349	88.19
235.583	91.19
235.817	91.19
236.051	84.19
236.285	89.19
236.519	99.19
236.753	86.19
236.987	91.19
237.221	80.19
237.455	74.19
237.689	95.19
237.922	88.19
238.156	82.19
238.39	76.19
238.624	86.19
238.858	89.19
239.091	76.19
239.325	91.19
239.559	81.19
239.793	77.19
240.027	95.19
240.26	72.19
240.494	89.19
240.728	87.19
240.961	86.19
241.195	101.19
241.429	88.19
241.662	93.19
241.896	98.19
242.13	102.19
242.363	79.19
242.597	89.19
242.83	93.19
243.064	88.19
243.298	96.19
243.531	84.19
243.765	95.19
243.998	99.19
244.232	79.19
244.465	97.19
244.699	106.19
244.932	83.19
245.166	84.19
245.399	84.19
245.633	87.19
245.866	101.19
246.099	83.19
246.333	102.19
246.566	104.19
246.8	95.19
247.033	100.19
247.266	92.19
247.5	106.19
247.733	100.19
247.966	110.19
248.2	104.19
248.433	86.19
248.666	87.19
248.899	98.19
249.133	96.19
249.366	111.19
249.599	103.19
249.832	85.19
250.066	88.19
250.299	103.19
250.532	100.19
250.765	100.19
250.998	107.19
251.231	95.19
251.465	92.19
251.698	107.19
251.931	100.19
252.164	106.19
252.397	104.19
252.63	102.19
252.863	104.19
253.096	96.19
253.329	110.19
253.562	90.19
253.795	116.19
254.028	115.19
254.261	100.19
254.494	90.19
254.727	99.19
254.96	103.19
255.193	100.19
255.426	96.19
255.659	96.19
255.892	107.19
256.124	93.19
256.357	84.19
256.59	91.19
256.823	106.19
257.056	109.19
257.289	93.19
257.521	98.19
257.754	106.19
257.987	124.19
258.22	112.19
258.452	105.19
258.685	107.19
258.918	102.19
259.151	99.19
259.383	99.19
259.616	112.19
259.849	102.19
260.081	112.19
260.314	117.19
260.547	116.19
260.779	108.19
261.012	102.19
261.244	104.19
261.477	106.19
261.71	109.19
261.942	100.19
262.175	114.19
262.407	115.19
262.64	109.19
262.872	94.19
263.105	107.19
263.337	106.19
263.57	112.19
263.802	108.19
264.035	112.19
264.267	101.19
264.499	98.19
264.732	117.19
264.964	112.19
265.197	103.19
265.429	115.19
265.661	115.19
265.894	114.19
266.126	128.19
266.358	106.19
266.591	123.19
266.823	100.19
267.055	109.19
267.287	108.19
267.52	115.19
267.752	114.19
267.984	101.19
268.216	104.19
268.448	110.19
268.681	101.19
268.913	116.19
269.145	116.19
269.377	108.19
269.609	110.19
269.841	117.19
270.073	116.19
270.306	134.19
270.538	113.19
270.77	117.19
271.002	109.19
271.234	103.19
271.466	130.19
271.698	116.19
271.93	126.19
272.162	110.19
272.394	119.19
272.626	131.19
272.858	111.19
273.09	108.19
273.322	127.19
273.553	114.19
273.785	117.19
274.017	117.19
274.249	117.19
274.481	130.19
274.713	123.19
274.945	117.19
275.176	127.19
275.408	128.19
275.64	120.19
275.872	134.19
276.104	116.19
276.335	106.19
276.567	119.19
276.799	116.19
277.031	107.19
277.262	114.19
277.494	120.19
277.726	125.19
277.957	114.19
278.189	118.19
278.421	120.19
278.652	118.19
278.884	116.19
279.115	123.19
279.347	117.19
279.579	129.19
279.81	127.19
280.042	123.19
280.273	115.19
280.505	123.19
280.736	116.19
280.968	120.19
281.199	123.19
281.431	127.19
281.662	123.19
281.894	108.19
282.125	134.19
282.356	122.19
282.588	111.19
282.819	121.19
283.051	118.19
283.282	117.19
283.513	129.19
283.745	120.19
283.976	125.19
284.207	119.19
284.439	135.19
284.67	119.19
284.901	137.19
285.132	137.19
285.364	124.19
285.595	131.19
285.826	130.19
286.057	138.19
286.288	134.19
286.52	119.19
286.751	124.19
286.982	127.19
287.213	128.19
287.444	130.19
287.675	122.19
287.906	119.19
288.138	130.19
288.369	121.19
288.6	138.19
288.831	124.19
289.062	138.19
289.293	139.19
289.524	129.19
289.755	136.19
289.986	120.19
290.217	127.19
290.448	129.19
290.679	129.19
290.91	117.19
291.141	134.19
291.371	130.19
291.602	133.19
291.833	137.19
292.064	130.19
292.295	126.19
292.526	137.19
292.757	129.19
292.987	125.19
293.218	132.19
293.449	130.19
293.68	135.19
293.91	115.19
294.141	121.19
294.372	122.19
294.603	140.19
294.833	141.19
295.064	132.19
295.295	138.19
295.525	118.19
295.756	136.19
295.987	130.19
296.217	125.19
296.448	138.19
296.679	122.19
296.909	120.19
297.14	132.19
297.37	136.19
297.601	146.19
297.831	130.19
298.062	126.19
298.292	119.19
298.523	137.19
298.753	124.19
298.984	140.19
299.214	122.19
299.445	120.19
299.675	142.19
299.905	123.19
300.136	139.19
300.366	119.19
300.597	135.19
300.827	128.19
301.057	139.19
301.288	144.19
301.518	139.19
301.748	139.19
301.979	144.19
302.209	129.19
302.439	134.19
302.669	141.19
302.9	135.19
303.13	141.19
303.36	144.19
303.59	135.19
303.82	121.19
304.051	136.19
304.281	136.19
304.511	155.19
304.741	140.19
304.971	132.19
305.201	138.19
305.431	148.19
305.661	130.19
305.891	134.19
306.121	130.19
306.352	143.19
306.582	138.19
306.812	138.19
307.042	138.19
307.272	135.19
307.502	135.19
307.731	137.19
307.961	127.19
308.191	137.19
308.421	136.19
308.651	135.19
308.881	109.19
309.111	125.19
309.341	119.19
309.571	138.19
309.8	140.19
310.03	149.19
310.26	134.19
310.49	143.19
310.72	141.19
310.949	141.19
311.179	127.19
311.409	141.19
311.639	129.19
311.868	126.19
312.098	154.19
312.328	150.19
312.557	137.19
312.787	147.19
313.017	139.19
313.246	140.19
313.476	139.19
313.706	145.19
313.935	136.19
314.165	138.19
314.394	142.19
314.624	140.19
314.853	148.19
315.083	138.19
315.312	162.19
315.542	136.19
315.771	142.19
316.001	136.19
316.23	140.19
316.46	134.19
316.689	144.19
316.919	141.19
317.148	144.19
317.377	138.19
317.607	142.19
317.836	142.19
318.065	131.19
318.295	130.19
318.524	131.19
318.753	131.19
318.983	131.19
319.212	148.19
319.441	149.19
319.67	153.19
319.9	130.19
320.129	141.19
320.358	138.19
320.587	148.19
320.816	146.19
321.046	135.19
321.275	154.19
321.504	162.19
321.733	141.19
321.962	140.19
322.191	142.19
322.42	148.19
322.649	140.19
322.878	143.19
323.108	137.19
323.337	145.19
323.566	158.19
323.795	124.19
324.024	145.19
324.253	154.19
324.482	155.19
324.71	138.19
324.939	143.19
325.168	136.19
325.397	153.19
325.626	152.19
325.855	145.19
326.084	139.19
326.313	142.19
326.542	148.19
326.77	150.19
326.999	145.19
327.228	145.19
327.457	153.19
327.686	141.19
327.914	130.19
328.143	143.19
328.372	161.19
328.6	150.19
328.829	144.19
329.058	153.19
329.287	145.19
329.515	159.19
329.744	154.19
329.972	156.19
330.201	162.19
330.43	134.19
330.658	158.19
330.887	157.19
331.115	163.19
331.344	133.19
331.572	160.19
331.801	162.19
332.03	143.19
332.258	163.19
332.486	174.19
332.715	162.19
332.943	179.19
333.172	166.19
333.4	172.19
333.629	153.19
333.857	165.19
334.085	174.19
334.314	171.19
334.542	163.19
334.771	155.19
334.999	166.19
335.227	155.19
335.455	166.19
335.684	176.19
335.912	159.19
336.14	158.19
336.369	159.19
336.597	163.19
336.825	162.19
337.053	162.19
337.281	165.19
337.51	156.19
337.738	144.19
337.966	170.19
338.194	153.19
338.422	142.19
338.65	143.19
338.878	149.19
339.106	148.19
339.334	164.19
339.562	152.19
339.79	148.19
340.018	148.19
340.246	154.19
340.474	155.19
340.702	162.19
340.93	148.19
341.158	134.19
341.386	154.19
341.614	149.19
341.842	167.19
342.07	169.19
342.298	158.19
342.526	154.19
342.754	143.19
342.981	152.19
343.209	142.19
343.437	175.19
343.665	151.19
343.893	156.19
344.12	171.19
344.348	175.19
344.576	159.19
344.804	156.19
345.031	156.19
345.259	158.19
345.487	144.19
345.714	150.19
345.942	147.19
346.17	168.19
346.397	138.19
346.625	146.19
346.853	156.19
347.08	154.19
347.308	159.19
347.535	158.19
347.763	143.19
347.99	151.19
348.218	142.19
348.445	151.19
348.673	143.19
348.9	171.19
349.128	165.19
349.355	146.19
349.583	162.19
349.81	138.19
350.037	136.19
350.265	144.19
350.492	142.19
350.72	152.19
350.947	151.19
351.174	163.19
351.402	149.19
351.629	159.19
351.856	141.19
352.083	169.19
352.311	149.19
352.538	168.19
352.765	158.19
352.992	148.19
353.22	144.19
353.447	133.19
353.674	143.19
353.901	150.19
354.128	151.19
354.355	156.19
354.583	144.19
354.81	141.19
355.037	169.19
355.264	146.19
355.491	157.19
355.718	156.19
355.945	159.19
356.172	147.19
356.399	148.19
356.626	140.19
356.853	158.19
357.08	155.19
357.307	158.19
357.534	152.19
357.761	157.19
357.988	155.19
358.215	161.19
358.441	134.19
358.668	143.19
358.895	155.19
359.122	157.19
359.349	157.19
359.576	150.19
359.802	141.19
360.029	156.19
360.256	141.19
360.483	162.19
360.709	155.19
360.936	154.19
361.163	139.19
361.39	159.19
361.616	154.19
361.843	149.19
362.07	144.19
362.296	151.19
362.523	161.19
362.749	142.19
362.976	154.19
363.203	156.19
363.429	159.19
363.656	158.19
363.882	157.19
364.109	152.19
364.335	149.19
364.562	157.19
364.788	159.19
365.015	140.19
365.241	141.19
365.468	157.19
365.694	151.19
365.92	156.19
366.147	135.19
366.373	148.19
366.599	163.19
366.826	154.19
367.052	158.19
367.278	150.19
367.505	155.19
367.731	162.19
367.957	165.19
368.184	148.19
368.41	171.19
368.636	139.19
368.862	152.19
369.089	160.19
369.315	148.19
369.541	160.19
369.767	154.19
369.993	148.19
370.219	149.19
370.445	140.19
370.672	156.19
370.898	143.19
371.124	179.19
371.35	156.19
371.576	171.19
371.802	164.19
372.028	168.19
372.254	166.19
372.48	154.19
372.706	165.19
372.932	174.19
373.158	170.19
373.384	178.19
373.61	162.19
373.835	149.19
374.061	159.19
374.287	158.19
374.513	175.19
374.739	179.19
374.965	163.19
375.191	170.19
375.416	166.19
375.642	182.19
375.868	182.19
376.094	178.19
376.319	156.19
376.545	160.19
376.771	169.19
376.997	165.19
377.222	151.19
377.448	157.19
377.674	158.19
377.899	158.19
378.125	161.19
378.35	184.19
378.576	141.19
378.802	159.19
379.027	173.19
379.253	162.19
379.478	165.19
379.704	154.19
379.929	173.19
380.155	151.19
380.38	137.19
380.606	171.19
380.831	167.19
381.057	169.19
381.282	171.19
381.507	169.19
381.733	171.19
381.958	173.19
382.184	169.19
382.409	169.19
382.634	165.19
382.86	187.19
383.085	186.19
383.31	179.19
383.535	181.19
383.761	197.19
383.986	187.19
384.211	197.19
384.436	172.19
384.662	181.19
384.887	189.19
385.112	175.19
385.337	192.19
385.562	182.19
385.787	154.19
386.013	202.19
386.238	201.19
386.463	190.19
386.688	206.19
386.913	193.19
387.138	164.19
387.363	190.19
387.588	189.19
387.813	183.19
388.038	190.19
388.263	182.19
388.488	198.19
388.713	189.19
388.938	195.19
389.163	187.19
389.387	201.19
389.612	184.19
389.837	190.19
390.062	181.19
390.287	185.19
390.512	190.19
390.736	181.19
390.961	193.19
391.186	194.19
391.411	205.19
391.636	221.19
391.86	203.19
392.085	211.19
392.31	202.19
392.534	214.19
392.759	197.19
392.984	216.19
393.208	199.19
393.433	201.19
393.658	203.19
393.882	200.19
394.107	200.19
394.331	194.19
394.556	193.19
394.78	217.19
395.005	207.19
395.229	217.19
395.454	198.19
395.678	205.19
395.903	196.19
396.127	218.19
396.352	201.19
396.576	191.19
396.801	200.19
397.025	206.19
397.249	198.19
397.474	218.19
397.698	197.19
397.922	207.19
398.147	205.19
398.371	212.19
398.595	208.19
398.82	211.19
399.044	238.19
399.268	243.19
399.492	261.19
399.717	272.19
399.941	293.19
400.165	263.19
400.389	255.19
400.613	230.19
400.837	223.19
401.062	226.19
401.286	220.19
401.51	247.19
401.734	232.19
401.958	230.19
402.182	216.19
402.406	234.19
402.63	231.19
402.854	244.19
403.078	242.19
403.302	258.19
403.526	244.19
403.75	225.19
403.974	244.19
404.198	254.19
404.422	252.19
404.645	259.19
404.869	255.19
405.093	243.19
405.317	232.19
405.541	247.19
405.765	236.19
405.988	235.19
406.212	256.19
406.436	258.19
406.66	251.19
406.883	254.19
407.107	255.19
407.331	253.19
407.555	283.19
407.778	285.19
408.002	261.19
408.226	272.19
408.449	247.19
408.673	241.19
408.896	262.19
409.12	262.19
409.344	267.19
409.567	261.19
409.791	270.19
410.014	266.19
410.238	268.19
410.461	251.19
410.685	254.19
410.908	254.19
411.132	253.19
411.355	263.19
411.578	252.19
411.802	227.19
412.025	240.19
412.249	238.19
412.472	250.19
412.695	261.19
412.919	246.19
413.142	249.19
413.365	237.19
413.589	248.19
413.812	234.19
414.035	241.19
414.258	238.19
414.482	231.19
414.705	262.19
414.928	243.19
415.151	242.19
415.374	246.19
415.597	247.19
415.821	230.19
416.044	246.19
416.267	229.19
416.49	239.19
416.713	241.19
416.936	216.19
417.159	223.19
417.382	239.19
417.605	234.19
417.828	242.19
418.051	240.19
418.274	251.19
418.497	226.19
418.72	232.19
418.943	239.19
419.166	260.19
419.389	262.19
419.611	261.19
419.834	271.19
420.057	242.19
420.28	222.19
420.503	239.19
420.726	239.19
420.948	228.19
421.171	230.19
421.394	239.19
421.617	240.19
421.839	247.19
422.062	244.19
422.285	247.19
422.507	226.19
422.73	234.19
422.953	232.19
423.175	244.19
423.398	255.19
423.621	248.19
423.843	260.19
424.066	258.19
424.288	255.19
424.511	252.19
424.733	247.19
424.956	252.19
425.178	242.19
425.401	248.19
425.623	235.19
425.846	244.19
426.068	232.19
426.291	243.19
426.513	233.19
426.735	245.19
426.958	234.19
427.18	220.19
427.402	232.19
427.625	226.19
427.847	225.19
428.069	215.19
428.292	228.19
428.514	215.19
428.736	230.19
428.958	222.19
429.181	218.19
429.403	231.19
429.625	219.19
429.847	229.19
430.069	220.19
430.292	230.19
430.514	221.19
430.736	245.19
430.958	223.19
431.18	220.19
431.402	222.19
431.624	229.19
431.846	223.19
432.068	228.19
432.29	229.19
432.512	222.19
432.734	239.19
432.956	236.19
433.178	226.19
433.4	229.19
433.622	197.19
433.844	240.19
434.066	233.19
434.287	242.19
434.509	233.19
434.731	264.19
434.953	241.19
435.175	258.19
435.397	254.19
435.618	243.19
435.84	228.19
436.062	232.19
436.284	222.19
436.505	244.19
436.727	251.19
436.949	228.19
437.17	237.19
437.392	226.19
437.614	229.19
437.835	216.19
438.057	217.19
438.278	230.19
438.5	230.19
438.721	238.19
438.943	226.19
439.165	221.19
439.386	228.19
439.608	228.19
439.829	236.19
440.05	243.19
440.272	254.19
440.493	252.19
440.715	251.19
440.936	251.19
441.158	256.19
441.379	256.19
441.6	256.19
441.822	269.19
442.043	236.19
442.264	252.19
442.486	250.19
442.707	251.19
442.928	246.19
443.149	270.19
443.371	258.19
443.592	245.19
443.813	265.19
444.034	273.19
444.255	283.19
444.476	272.19
444.698	281.19
444.919	283.19
445.14	387.19
445.361	341.19
445.582	278.19
445.803	259.19
446.024	262.19
446.245	248.19
446.466	251.19
446.687	227.19
446.908	244.19
447.129	252.19
447.35	245.19
447.571	235.19
447.792	242.19
448.013	239.19
448.234	243.19
448.455	248.19
448.675	243.19
448.896	220.19
449.117	228.19
449.338	234.19
449.559	242.19
449.779	254.19
450	227.19
450.221	237.19
450.442	247.19
450.662	227.19
450.883	222.19
451.104	234.19
451.324	236.19
451.545	227.19
451.766	230.19
451.986	226.19
452.207	214.19
452.428	226.19
452.648	231.19
452.869	219.19
453.089	215.19
453.31	239.19
453.53	221.19
453.751	227.19
453.971	222.19
454.192	214.19
454.412	215.19
454.633	201.19
454.853	191.19
455.073	210.19
455.294	208.19
455.514	216.19
455.734	228.19
455.955	216.19
456.175	209.19
456.395	216.19
456.616	195.19
456.836	201.19
457.056	216.19
457.276	197.19
457.497	211.19
457.717	219.19
457.937	212.19
458.157	231.19
458.377	220.19
458.598	213.19
458.818	219.19
459.038	194.19
459.258	232.19
459.478	226.19
459.698	240.19
459.918	236.19
460.138	261.19
460.358	265.19
460.578	247.19
460.798	256.19
461.018	269.19
461.238	272.19
461.458	269.19
461.678	254.19
461.898	274.19
462.118	269.19
462.338	269.19
462.558	286.19
462.777	298.19
462.997	294.19
463.217	304.19
463.437	322.19
463.657	293.19
463.876	289.19
464.096	289.19
464.316	277.19
464.536	271.19
464.755	282.19
464.975	278.19
465.195	254.19
465.414	260.19
465.634	240.19
465.854	257.19
466.073	233.19
466.293	235.19
466.512	263.19
466.732	259.19
466.951	244.19
467.171	235.19
467.391	244.19
467.61	243.19
467.829	250.19
468.049	245.19
468.268	224.19
468.488	222.19
468.707	232.19
468.927	261.19
469.146	223.19
469.365	234.19
469.585	239.19
469.804	236.19
470.023	244.19
470.243	234.19
470.462	243.19
470.681	219.19
470.901	247.19
471.12	237.19
471.339	234.19
471.558	233.19
471.777	235.19
471.997	232.19
472.216	228.19
472.435	221.19
472.654	229.19
472.873	223.19
473.092	231.19
473.311	227.19
473.53	220.19
473.749	236.19
473.968	221.19
474.187	219.19
474.406	232.19
474.625	230.19
474.844	215.19
475.063	240.19
475.282	241.19
475.501	236.19
475.72	247.19
475.939	230.19
476.158	225.19
476.377	222.19
476.596	235.19
476.814	233.19
477.033	242.19
477.252	223.19
477.471	249.19
477.69	244.19
477.908	239.19
478.127	262.19
478.346	259.19
478.564	254.19
478.783	270.19
479.002	261.19
479.22	244.19
479.439	242.19
479.658	260.19
479.876	247.19
480.095	272.19
480.313	260.19
480.532	259.19
480.751	263.19
480.969	259.19
481.188	261.19
481.406	260.19
481.624	240.19
481.843	220.19
482.061	235.19
482.28	245.19
482.498	234.19
482.717	219.19
482.935	253.19
483.153	255.19
483.372	237.19
483.59	246.19
483.808	260.19
484.027	244.19
484.245	251.19
484.463	251.19
484.681	252.19
484.9	258.19
485.118	260.19
485.336	267.19
485.554	247.19
485.772	255.19
485.99	249.19
486.209	261.19
486.427	254.19
486.645	247.19
486.863	266.19
487.081	264.19
487.299	267.19
487.517	244.19
487.735	230.19
487.953	262.19
488.171	265.19
488.389	245.19
488.607	270.19
488.825	252.19
489.043	248.19
489.261	257.19
489.479	268.19
489.696	274.19
489.914	265.19
490.132	263.19
490.35	262.19
490.568	247.19
490.786	271.19
491.003	263.19
491.221	263.19
491.439	257.19
491.657	262.19
491.874	258.19
492.092	286.19
492.31	293.19
492.527	280.19
492.745	269.19
492.963	286.19
493.18	279.19
493.398	265.19
493.615	271.19
493.833	276.19
494.05	271.19
494.268	297.19
494.485	278.19
494.703	277.19
494.92	271.19
495.138	259.19
495.355	268.19
495.573	281.19
495.79	290.19
496.008	269.19
496.225	287.19
496.442	307.19
496.66	287.19
496.877	283.19
497.094	272.19
497.312	296.19
497.529	301.19
497.746	299.19
497.963	303.19
498.181	316.19
498.398	297.19
498.615	310.19
498.832	357.19
499.049	366.19
499.267	353.19
499.484	388.19
499.701	418.19
499.918	442.19
500.135	491.19
500.352	546.19
500.569	553.19
500.786	579.19
501.003	514.19
501.22	480.19
501.437	431.19
501.654	422.19
501.871	395.19
502.088	348.19
502.305	349.19
502.522	335.19
502.739	298.19
502.956	299.19
503.172	278.19
503.389	290.19
503.606	307.19
503.823	300.19
504.04	283.19
504.256	287.19
504.473	284.19
504.69	308.19
504.907	288.19
505.123	262.19
505.34	270.19
505.557	270.19
505.773	266.19
505.99	264.19
506.207	259.19
506.423	246.19
506.64	261.19
506.856	238.19
507.073	226.19
507.289	249.19
507.506	263.19
507.722	249.19
507.939	234.19
508.155	237.19
508.372	231.19
508.588	236.19
508.805	215.19
509.021	218.19
509.238	228.19
509.454	219.19
509.67	235.19
509.887	223.19
510.103	218.19
510.319	218.19
510.536	223.19
510.752	233.19
510.968	206.19
511.184	214.19
511.401	214.19
511.617	228.19
511.833	224.19
512.049	207.19
512.265	222.19
512.481	231.19
512.698	214.19
512.914	203.19
513.13	224.19
513.346	222.19
513.562	214.19
513.778	226.19
513.994	222.19
514.21	211.19
514.426	231.19
514.642	237.19
514.858	213.19
515.074	233.19
515.29	230.19
515.506	213.19
515.721	239.19
515.937	242.19
516.153	214.19
516.369	231.19
516.585	250.19
516.801	254.19
517.016	253.19
517.232	259.19
517.448	267.19
517.664	270.19
517.879	263.19
518.095	259.19
518.311	276.19
518.527	255.19
518.742	248.19
518.958	260.19
519.173	250.19
519.389	238.19
519.605	255.19
519.82	229.19
520.036	235.19
520.251	238.19
520.467	220.19
520.682	226.19
520.898	219.19
521.113	222.19
521.329	231.19
521.544	238.19
521.76	214.19
521.975	217.19
522.19	202.19
522.406	229.19
522.621	223.19
522.836	220.19
523.052	211.19
523.267	216.19
523.482	216.19
523.698	203.19
523.913	232.19
524.128	226.19
524.343	219.19
524.559	218.19
524.774	206.19
524.989	209.19
525.204	208.19
525.419	215.19
525.634	220.19
525.849	204.19
526.064	185.19
526.28	208.19
526.495	209.19
526.71	206.19
526.925	197.19
527.14	207.19
527.355	224.19
527.57	230.19
527.785	213.19
527.999	208.19
528.214	218.19
528.429	213.19
528.644	207.19
528.859	222.19
529.074	224.19
529.289	222.19
529.503	218.19
529.718	196.19
529.933	214.19
530.148	204.19
530.363	201.19
530.577	224.19
530.792	210.19
531.007	208.19
531.221	201.19
531.436	206.19
531.651	212.19
531.865	220.19
532.08	205.19
532.295	214.19
532.509	191.19
532.724	207.19
532.938	216.19
533.153	219.19
533.367	226.19
533.582	212.19
533.796	206.19
534.011	210.19
534.225	213.19
534.44	207.19
534.654	215.19
534.868	208.19
535.083	203.19
535.297	210.19
535.511	196.19
535.726	201.19
535.94	221.19
536.154	199.19
536.369	191.19
536.583	204.19
536.797	186.19
537.011	194.19
537.225	185.19
537.44	205.19
537.654	203.19
537.868	186.19
538.082	209.19
538.296	175.19
538.51	197.19
538.724	199.19
538.938	208.19
539.153	196.19
539.367	200.19
539.581	190.19
539.795	190.19
540.009	198.19
540.222	200.19
540.436	200.19
540.65	199.19
540.864	212.19
541.078	200.19
541.292	197.19
541.506	202.19
541.72	212.19
541.934	208.19
542.147	210.19
542.361	212.19
542.575	200.19
542.789	208.19
543.002	201.19
543.216	199.19
543.43	196.19
543.644	198.19
543.857	186.19
544.071	197.19
544.285	214.19
544.498	204.19
544.712	198.19
544.925	208.19
545.139	212.19
545.352	214.19
545.566	216.19
545.779	214.19
545.993	188.19
546.206	206.19
546.42	202.19
546.633	205.19
546.847	210.19
547.06	203.19
547.274	213.19
547.487	206.19
547.7	201.19
547.914	198.19
548.127	219.19
548.34	214.19
548.554	198.19
548.767	207.19
548.98	224.19
549.193	210.19
549.407	214.19
549.62	221.19
549.833	204.19
550.046	205.19
550.259	208.19
550.473	205.19
550.686	207.19
550.899	219.19
551.112	196.19
551.325	200.19
551.538	208.19
551.751	215.19
551.964	208.19
552.177	204.19
552.39	199.19
552.603	220.19
552.816	223.19
553.029	215.19
553.242	211.19
553.455	204.19
553.667	224.19
553.88	212.19
554.093	221.19
554.306	206.19
554.519	215.19
554.732	206.19
554.944	197.19
555.157	187.19
555.37	194.19
555.583	203.19
555.795	185.19
556.008	188.19
556.221	192.19
556.433	199.19
556.646	182.19
556.859	191.19
557.071	194.19
557.284	206.19
557.496	199.19
557.709	178.19
557.921	194.19
558.134	189.19
558.346	187.19
558.559	190.19
558.771	183.19
558.984	180.19
559.196	181.19
559.409	173.19
559.621	182.19
559.833	189.19
560.046	191.19
560.258	206.19
560.47	178.19
560.683	179.19
560.895	171.19
561.107	192.19
561.32	184.19
561.532	188.19
561.744	183.19
561.956	188.19
562.168	175.19
562.381	191.19
562.593	179.19
562.805	195.19
563.017	170.19
563.229	173.19
563.441	160.19
563.653	180.19
563.865	169.19
564.077	196.19
564.289	173.19
564.501	192.19
564.713	186.19
564.925	184.19
565.137	187.19
565.349	187.19
565.561	194.19
565.773	200.19
565.985	190.19
566.197	204.19
566.408	231.19
566.62	222.19
566.832	230.19
567.044	231.19
567.255	236.19
567.467	224.19
567.679	223.19
567.891	262.19
568.102	249.19
568.314	246.19
568.526	217.19
568.737	212.19
568.949	208.19
569.161	190.19
569.372	178.19
569.584	162.19
569.795	183.19
570.007	192.19
570.218	188.19
570.43	166.19
570.641	193.19
570.853	180.19
571.064	170.19
571.276	182.19
571.487	198.19
571.698	161.19
571.91	158.19
572.121	182.19
572.333	169.19
572.544	159.19
572.755	158.19
572.966	174.19
573.178	151.19
573.389	168.19
573.6	153.19
573.811	162.19
574.023	162.19
574.234	156.19
574.445	154.19
574.656	168.19
574.867	164.19
575.078	162.19
575.289	150.19
575.501	156.19
575.712	138.19
575.923	160.19
576.134	170.19
576.345	151.19
576.556	150.19
576.767	146.19
576.978	166.19
577.188	160.19
577.399	154.19
577.61	142.19
577.821	151.19
578.032	159.19
578.243	148.19
578.454	135.19
578.665	146.19
578.875	148.19
579.086	157.19
579.297	143.19
579.508	154.19
579.718	161.19
579.929	142.19
580.14	145.19
580.35	150.19
580.561	138.19
580.772	156.19
580.982	140.19
581.193	156.19
581.403	146.19
581.614	159.19
581.825	152.19
582.035	145.19
582.246	132.19
582.456	146.19
582.667	142.19
582.877	134.19
583.087	141.19
583.298	133.19
583.508	156.19
583.719	150.19
583.929	143.19
584.139	164.19
584.35	130.19
584.56	153.19
584.77	134.19
584.981	160.19
585.191	133.19
585.401	130.19
585.611	143.19
585.821	135.19
586.032	141.19
586.242	126.19
586.452	142.19
586.662	150.19
586.872	145.19
587.082	135.19
587.292	124.19
587.502	157.19
587.713	124.19
587.923	148.19
588.133	141.19
588.343	146.19
588.553	148.19
588.762	149.19
588.972	138.19
589.182	138.19
589.392	139.19
589.602	140.19
589.812	151.19
590.022	140.19
590.232	140.19
590.441	142.19
590.651	136.19
590.861	139.19
591.071	127.19
591.281	146.19
591.49	145.19
591.7	140.19
591.91	149.19
592.119	152.19
592.329	145.19
592.539	146.19
592.748	158.19
592.958	149.19
593.167	139.19
593.377	147.19
593.587	155.19
593.796	156.19
594.006	154.19
594.215	151.19
594.424	167.19
594.634	141.19
594.843	141.19
595.053	149.19
595.262	143.19
595.472	152.19
595.681	147.19
595.89	130.19
596.1	155.19
596.309	142.19
596.518	140.19
596.727	133.19
596.937	140.19
597.146	130.19
597.355	131.19
597.564	130.19
597.774	132.19
597.983	122.19
598.192	132.19
598.401	127.19
598.61	120.19
598.819	122.19
599.028	146.19
599.237	131.19
599.446	138.19
599.655	134.19
599.864	123.19
600.073	135.19
600.282	117.19
600.491	122.19
600.7	128.19
600.909	125.19
601.118	120.19
601.327	138.19
601.536	128.19
601.745	127.19
601.953	130.19
602.162	136.19
602.371	126.19
602.58	138.19
602.789	133.19
602.997	123.19
603.206	134.19
603.415	120.19
603.623	127.19
603.832	135.19
604.041	139.19
604.249	122.19
604.458	112.19
604.666	128.19
604.875	119.19
605.084	121.19
605.292	122.19
605.501	147.19
605.709	118.19
605.918	129.19
606.126	123.19
606.334	114.19
606.543	119.19
606.751	125.19
606.96	133.19
607.168	123.19
607.376	118.19
607.585	110.19
607.793	116.19
608.001	130.19
608.21	132.19
608.418	109.19
608.626	136.19
608.834	126.19
609.043	127.19
609.251	126.19
609.459	122.19
609.667	126.19
609.875	119.19
610.083	130.19
610.291	126.19
610.499	119.19
610.707	120.19
610.916	135.19
611.124	130.19
611.332	118.19
611.54	127.19
611.748	123.19
611.955	133.19
612.163	118.19
612.371	136.19
612.579	142.19
612.787	134.19
612.995	116.19
613.203	123.19
613.411	125.19
613.618	120.19
613.826	115.19
614.034	147.19
614.242	123.19
614.449	126.19
614.657	126.19
614.865	121.19
615.072	113.19
615.28	121.19
615.488	119.19
615.695	130.19
615.903	120.19
616.111	141.19
616.318	107.19
616.526	129.19
616.733	136.19
616.941	129.19
617.148	119.19
617.356	145.19
617.563	127.19
617.771	123.19
617.978	132.19
618.185	125.19
618.393	126.19
618.6	130.19
618.807	127.19
619.015	138.19
619.222	116.19
619.429	124.19
619.637	129.19
619.844	127.19
620.051	114.19
620.258	119.19
620.466	115.19
620.673	122.19
620.88	122.19
621.087	132.19
621.294	102.19
621.501	122.19
621.708	124.19
621.915	119.19
622.122	124.19
622.329	123.19
622.536	106.19
622.743	114.19
622.95	132.19
623.157	130.19
623.364	119.19
623.571	135.19
623.778	123.19
623.985	122.19
624.192	120.19
624.399	132.19
624.606	123.19
624.812	122.19
625.019	127.19
625.226	121.19
625.433	116.19
625.639	127.19
625.846	119.19
626.053	113.19
626.259	110.19
626.466	116.19
626.673	124.19
626.879	123.19
627.086	113.19
627.293	116.19
627.499	118.19
627.706	119.19
627.912	132.19
628.119	113.19
628.325	118.19
628.532	115.19
628.738	108.19
628.945	121.19
629.151	111.19
629.357	124.19
629.564	121.19
629.77	111.19
629.976	116.19
630.183	126.19
630.389	121.19
630.595	115.19
630.802	103.19
631.008	110.19
631.214	116.19
631.42	112.19
631.627	131.19
631.833	126.19
632.039	119.19
632.245	119.19
632.451	122.19
632.657	123.19
632.863	126.19
633.069	111.19
633.275	118.19
633.481	114.19
633.688	118.19
633.893	125.19
634.099	123.19
634.305	111.19
634.511	111.19
634.717	119.19
634.923	111.19
635.129	89.19
635.335	112.19
635.541	117.19
635.747	105.19
635.952	118.19
636.158	106.19
636.364	104.19
636.57	116.19
636.775	115.19
636.981	120.19
637.187	118.19
637.392	110.19
637.598	104.19
637.804	81.19
638.009	117.19
638.215	104.19
638.421	129.19
638.626	106.19
638.832	105.19
639.037	120.19
639.243	121.19
639.448	110.19
639.654	119.19
639.859	116.19
640.065	88.19
640.27	124.19
640.475	102.19
640.681	106.19
640.886	119.19
641.091	94.19
641.297	105.19
641.502	107.19
641.707	105.19
641.913	103.19
642.118	115.19
642.323	99.19
642.528	95.19
642.733	102.19
642.939	117.19
643.144	117.19
643.349	117.19
643.554	123.19
643.759	97.19
643.964	107.19
644.169	117.19
644.374	118.19
644.579	105.19
644.784	116.19
644.989	110.19
645.194	101.19
645.399	111.19
645.604	110.19
645.809	100.19
646.014	120.19
646.219	111.19
646.423	100.19
646.628	105.19
646.833	112.19
647.038	112.19
647.243	110.19
647.447	122.19
647.652	113.19
647.857	104.19
648.062	105.19
648.266	116.19
648.471	114.19
648.676	118.19
648.88	113.19
649.085	124.19
649.289	106.19
649.494	113.19
649.698	102.19
649.903	105.19
650.107	110.19
650.312	114.19
650.516	107.19
650.721	94.19
650.925	110.19
651.13	122.19
651.334	97.19
651.539	99.19
651.743	114.19
651.947	106.19
652.152	100.19
652.356	116.19
652.56	102.19
652.764	103.19
652.969	96.19
653.173	84.19
653.377	94.19
653.581	110.19
653.785	111.19
653.99	104.19
654.194	103.19
654.398	94.19
654.602	115.19
654.806	117.19
655.01	92.19
655.214	99.19
655.418	103.19
655.622	95.19
655.826	101.19
656.03	103.19
656.234	100.19
656.438	96.19
656.642	102.19
656.846	101.19
657.049	87.19
657.253	94.19
657.457	94.19
657.661	106.19
657.865	86.19
658.068	92.19
658.272	98.19
658.476	95.19
658.68	89.19
658.883	98.19
659.087	84.19
659.291	75.19
659.494	89.19
659.698	88.19
659.901	96.19
660.105	99.19
660.309	101.19
660.512	96.19
660.716	92.19
660.919	94.19
661.123	93.19
661.326	100.19
661.53	97.19
661.733	103.19
661.936	77.19
662.14	87.19
662.343	99.19
662.546	94.19
662.75	92.19
662.953	90.19
663.156	91.19
663.36	84.19
663.563	82.19
663.766	87.19
663.969	92.19
664.173	86.19
664.376	80.19
664.579	85.19
664.782	83.19
664.985	84.19
665.188	72.19
665.391	96.19
665.594	85.19
665.797	91.19
666	74.19
666.203	79.19
666.406	79.19
666.609	92.19
666.812	95.19
667.015	89.19
667.218	70.19
667.421	91.19
667.624	84.19
667.827	77.19
668.03	81.19
668.232	70.19
668.435	86.19
668.638	83.19
668.841	86.19
669.043	79.19
669.246	83.19
669.449	92.19
669.651	78.19
669.854	86.19
670.057	98.19
670.259	76.19
670.462	79.19
670.665	82.19
670.867	93.19
671.07	84.19
671.272	86.19
671.475	84.19
671.677	83.19
671.88	85.19
672.082	84.19
672.284	91.19
672.487	82.19
672.689	86.19
672.892	77.19
