Data from Fe(NO3)3@0.0125M.TitratingCurve.Agarose3%dH2O.NegLispCup.LampEnergy10.LIBS07252019_HRD10591_17-00-44-336.txt Node
Date: Thu Jul 25 17:00:44 EDT 2019
User: cochatt
Spectrometer: HR+D1059
Trigger mode: 1
Integration Time (sec): 1.000000E-1
Scans to average: 1
Electric dark correction enabled: true
Nonlinearity correction enabled: false
Boxcar width: 0
XAxis mode: Wavelengths
Number of Pixels in Spectrum: 2048
>>>>>Begin Spectral Data<<<<<
223.165	-22
223.4	-22
223.635	-22
223.869	-19
224.104	-3
224.338	-14
224.573	-10
224.808	-6
225.042	-11
225.277	-12
225.511	-8
225.746	13
225.98	14
226.215	-8
226.449	19
226.683	11
226.918	20
227.152	36
227.387	46
227.621	35
227.856	36
228.09	42
228.324	62
228.559	57
228.793	70
229.027	71
229.262	82
229.496	73
229.73	86
229.964	79
230.199	74
230.433	89
230.667	86
230.901	86
231.136	82
231.37	84
231.604	83
231.838	92
232.072	86
232.306	92
232.541	107
232.775	93
233.009	93
233.243	103
233.477	95
233.711	83
233.945	105
234.179	109
234.413	85
234.647	95
234.881	97
235.115	86
235.349	91
235.583	94
235.817	106
236.051	97
236.285	84
236.519	80
236.753	104
236.987	82
237.221	95
237.455	85
237.689	96
237.922	101
238.156	88
238.39	87
238.624	85
238.858	93
239.091	94
239.325	89
239.559	116
239.793	97
240.027	98
240.26	103
240.494	106
240.728	98
240.961	83
241.195	109
241.429	97
241.662	84
241.896	82
242.13	88
242.363	98
242.597	84
242.83	94
243.064	100
243.298	97
243.531	96
243.765	88
243.998	98
244.232	108
244.465	99
244.699	114
244.932	87
245.166	93
245.399	88
245.633	105
245.866	110
246.099	96
246.333	99
246.566	101
246.8	120
247.033	105
247.266	99
247.5	102
247.733	104
247.966	104
248.2	112
248.433	97
248.666	114
248.899	100
249.133	107
249.366	91
249.599	94
249.832	99
250.066	114
250.299	115
250.532	99
250.765	120
250.998	101
251.231	105
251.465	125
251.698	114
251.931	104
252.164	100
252.397	121
252.63	100
252.863	113
253.096	121
253.329	118
253.562	112
253.795	104
254.028	120
254.261	117
254.494	113
254.727	112
254.96	104
255.193	101
255.426	116
255.659	104
255.892	112
256.124	115
256.357	120
256.59	126
256.823	123
257.056	122
257.289	132
257.521	104
257.754	114
257.987	103
258.22	114
258.452	122
258.685	130
258.918	118
259.151	108
259.383	103
259.616	105
259.849	127
260.081	121
260.314	138
260.547	129
260.779	124
261.012	126
261.244	125
261.477	115
261.71	116
261.942	132
262.175	137
262.407	129
262.64	129
262.872	131
263.105	118
263.337	121
263.57	120
263.802	124
264.035	132
264.267	116
264.499	125
264.732	127
264.964	114
265.197	124
265.429	129
265.661	135
265.894	127
266.126	152
266.358	132
266.591	136
266.823	119
267.055	135
267.287	118
267.52	120
267.752	136
267.984	119
268.216	130
268.448	121
268.681	126
268.913	130
269.145	132
269.377	131
269.609	137
269.841	130
270.073	116
270.306	135
270.538	128
270.77	133
271.002	135
271.234	124
271.466	144
271.698	124
271.93	143
272.162	145
272.394	130
272.626	126
272.858	133
273.09	149
273.322	140
273.553	126
273.785	133
274.017	144
274.249	170
274.481	146
274.713	162
274.945	168
275.176	163
275.408	152
275.64	161
275.872	158
276.104	144
276.335	134
276.567	139
276.799	142
277.031	150
277.262	157
277.494	153
277.726	141
277.957	137
278.189	155
278.421	149
278.652	158
278.884	146
279.115	166
279.347	157
279.579	143
279.81	160
280.042	130
280.273	150
280.505	136
280.736	149
280.968	146
281.199	152
281.431	157
281.662	137
281.894	148
282.125	153
282.356	154
282.588	164
282.819	142
283.051	151
283.282	150
283.513	167
283.745	159
283.976	145
284.207	156
284.439	151
284.67	165
284.901	160
285.132	167
285.364	170
285.595	164
285.826	162
286.057	166
286.288	157
286.52	160
286.751	160
286.982	165
287.213	160
287.444	172
287.675	163
287.906	167
288.138	174
288.369	164
288.6	181
288.831	161
289.062	168
289.293	169
289.524	170
289.755	159
289.986	166
290.217	168
290.448	177
290.679	166
290.91	173
291.141	178
291.371	168
291.602	180
291.833	165
292.064	182
292.295	160
292.526	170
292.757	163
292.987	150
293.218	170
293.449	159
293.68	166
293.91	168
294.141	156
294.372	180
294.603	168
294.833	165
295.064	168
295.295	185
295.525	188
295.756	166
295.987	176
296.217	157
296.448	186
296.679	164
296.909	172
297.14	181
297.37	180
297.601	194
297.831	177
298.062	172
298.292	169
298.523	178
298.753	180
298.984	187
299.214	183
299.445	179
299.675	191
299.905	194
300.136	176
300.366	196
300.597	193
300.827	196
301.057	180
301.288	183
301.518	176
301.748	178
301.979	190
302.209	189
302.439	198
302.669	193
302.9	192
303.13	175
303.36	181
303.59	201
303.82	184
304.051	179
304.281	190
304.511	187
304.741	196
304.971	190
305.201	180
305.431	200
305.661	199
305.891	198
306.121	203
306.352	174
306.582	192
306.812	189
307.042	210
307.272	187
307.502	185
307.731	201
307.961	197
308.191	191
308.421	214
308.651	192
308.881	188
309.111	180
309.341	171
309.571	199
309.8	199
310.03	207
310.26	191
310.49	184
310.72	191
310.949	211
311.179	182
311.409	209
311.639	194
311.868	197
312.098	197
312.328	192
312.557	186
312.787	197
313.017	189
313.246	181
313.476	213
313.706	197
313.935	210
314.165	208
314.394	193
314.624	192
314.853	202
315.083	205
315.312	218
315.542	197
315.771	197
316.001	194
316.23	212
316.46	200
316.689	212
316.919	198
317.148	215
317.377	213
317.607	210
317.836	216
318.065	217
318.295	206
318.524	206
318.753	200
318.983	214
319.212	204
319.441	217
319.67	208
319.9	211
320.129	218
320.358	228
320.587	195
320.816	215
321.046	219
321.275	220
321.504	205
321.733	210
321.962	206
322.191	202
322.42	216
322.649	212
322.878	208
323.108	228
323.337	220
323.566	206
323.795	206
324.024	206
324.253	208
324.482	205
324.71	197
324.939	219
325.168	218
325.397	206
325.626	234
325.855	205
326.084	226
326.313	216
326.542	237
326.77	228
326.999	224
327.228	215
327.457	225
327.686	211
327.914	226
328.143	221
328.372	252
328.6	225
328.829	211
329.058	214
329.287	234
329.515	245
329.744	235
329.972	230
330.201	231
330.43	260
330.658	224
330.887	206
331.115	227
331.344	228
331.572	238
331.801	234
332.03	233
332.258	244
332.486	248
332.715	234
332.943	237
333.172	232
333.4	259
333.629	271
333.857	258
334.085	271
334.314	236
334.542	240
334.771	258
334.999	250
335.227	254
335.455	246
335.684	257
335.912	260
336.14	258
336.369	264
336.597	244
336.825	258
337.053	248
337.281	249
337.51	251
337.738	241
337.966	243
338.194	246
338.422	235
338.65	236
338.878	230
339.106	234
339.334	249
339.562	254
339.79	232
340.018	225
340.246	230
340.474	221
340.702	253
340.93	237
341.158	241
341.386	226
341.614	250
341.842	244
342.07	229
342.298	236
342.526	234
342.754	245
342.981	242
343.209	248
343.437	251
343.665	253
343.893	275
344.12	253
344.348	271
344.576	256
344.804	231
345.031	248
345.259	245
345.487	245
345.714	237
345.942	232
346.17	229
346.397	245
346.625	249
346.853	236
347.08	242
347.308	237
347.535	229
347.763	248
347.99	242
348.218	244
348.445	221
348.673	232
348.9	234
349.128	246
349.355	244
349.583	229
349.81	241
350.037	254
350.265	225
350.492	240
350.72	234
350.947	221
351.174	226
351.402	228
351.629	235
351.856	241
352.083	242
352.311	229
352.538	227
352.765	239
352.992	245
353.22	236
353.447	256
353.674	229
353.901	219
354.128	243
354.355	244
354.583	236
354.81	237
355.037	241
355.264	227
355.491	254
355.718	258
355.945	225
356.172	235
356.399	247
356.626	235
356.853	240
357.08	229
357.307	248
357.534	237
357.761	229
357.988	245
358.215	247
358.441	264
358.668	220
358.895	234
359.122	225
359.349	230
359.576	244
359.802	221
360.029	229
360.256	254
360.483	221
360.709	239
360.936	242
361.163	225
361.39	241
361.616	247
361.843	244
362.07	236
362.296	238
362.523	244
362.749	247
362.976	223
363.203	249
363.429	236
363.656	240
363.882	226
364.109	241
364.335	262
364.562	258
364.788	244
365.015	254
365.241	260
365.468	252
365.694	261
365.92	248
366.147	244
366.373	244
366.599	253
366.826	241
367.052	246
367.278	238
367.505	246
367.731	224
367.957	250
368.184	260
368.41	240
368.636	268
368.862	268
369.089	249
369.315	235
369.541	244
369.767	242
369.993	268
370.219	258
370.445	277
370.672	268
370.898	258
371.124	263
371.35	241
371.576	258
371.802	268
372.028	271
372.254	281
372.48	279
372.706	269
372.932	245
373.158	265
373.384	270
373.61	289
373.835	276
374.061	266
374.287	268
374.513	280
374.739	288
374.965	284
375.191	268
375.416	279
375.642	276
375.868	277
376.094	279
376.319	279
376.545	263
376.771	270
376.997	256
377.222	252
377.448	272
377.674	252
377.899	264
378.125	258
378.35	257
378.576	258
378.802	264
379.027	268
379.253	267
379.478	236
379.704	257
379.929	263
380.155	260
380.38	246
380.606	258
380.831	279
381.057	258
381.282	264
381.507	265
381.733	281
381.958	272
382.184	269
382.409	283
382.634	267
382.86	280
383.085	290
383.31	276
383.535	269
383.761	266
383.986	292
384.211	283
384.436	280
384.662	278
384.887	284
385.112	290
385.337	280
385.562	286
385.787	296
386.013	298
386.238	291
386.463	284
386.688	305
386.913	293
387.138	306
387.363	282
387.588	297
387.813	306
388.038	289
388.263	301
388.488	306
388.713	305
388.938	291
389.163	299
389.387	293
389.612	307
389.837	280
390.062	290
390.287	311
390.512	297
390.736	307
390.961	301
391.186	307
391.411	317
391.636	307
391.86	308
392.085	288
392.31	310
392.534	305
392.759	311
392.984	287
393.208	316
393.433	324
393.658	312
393.882	318
394.107	316
394.331	312
394.556	311
394.78	310
395.005	321
395.229	304
395.454	320
395.678	326
395.903	324
396.127	322
396.352	315
396.576	317
396.801	327
397.025	335
397.249	341
397.474	334
397.698	336
397.922	330
398.147	323
398.371	327
398.595	342
398.82	349
399.044	355
399.268	365
399.492	374
399.717	393
399.941	388
400.165	379
400.389	386
400.613	354
400.837	358
401.062	335
401.286	346
401.51	333
401.734	335
401.958	330
402.182	340
402.406	344
402.63	347
402.854	365
403.078	334
403.302	364
403.526	341
403.75	342
403.974	338
404.198	331
404.422	368
404.645	346
404.869	357
405.093	344
405.317	359
405.541	338
405.765	378
405.988	336
406.212	365
406.436	341
406.66	360
406.883	364
407.107	372
407.331	384
407.555	392
407.778	386
408.002	381
408.226	390
408.449	392
408.673	364
408.896	372
409.12	377
409.344	354
409.567	357
409.791	359
410.014	368
410.238	360
410.461	366
410.685	373
410.908	375
411.132	380
411.355	373
411.578	363
411.802	342
412.025	374
412.249	350
412.472	358
412.695	360
412.919	358
413.142	373
413.365	362
413.589	353
413.812	333
414.035	356
414.258	360
414.482	350
414.705	353
414.928	344
415.151	340
415.374	341
415.597	349
415.821	349
416.044	326
416.267	349
416.49	343
416.713	333
416.936	349
417.159	338
417.382	341
417.605	348
417.828	341
418.051	353
418.274	349
418.497	333
418.72	358
418.943	342
419.166	353
419.389	373
419.611	374
419.834	362
420.057	365
420.28	334
420.503	319
420.726	325
420.948	341
421.171	332
421.394	327
421.617	336
421.839	330
422.062	345
422.285	340
422.507	344
422.73	347
422.953	350
423.175	345
423.398	343
423.621	342
423.843	343
424.066	346
424.288	343
424.511	331
424.733	320
424.956	346
425.178	342
425.401	334
425.623	338
425.846	324
426.068	346
426.291	324
426.513	330
426.735	340
426.958	329
427.18	321
427.402	338
427.625	315
427.847	294
428.069	334
428.292	323
428.514	318
428.736	340
428.958	315
429.181	328
429.403	310
429.625	334
429.847	307
430.069	318
430.292	325
430.514	333
430.736	348
430.958	364
431.18	346
431.402	324
431.624	349
431.846	320
432.068	336
432.29	315
432.512	327
432.734	328
432.956	337
433.178	356
433.4	320
433.622	329
433.844	339
434.066	323
434.287	356
434.509	322
434.731	352
434.953	328
435.175	348
435.397	341
435.618	335
435.84	334
436.062	318
436.284	317
436.505	321
436.727	317
436.949	337
437.17	329
437.392	338
437.614	337
437.835	320
438.057	331
438.278	325
438.5	331
438.721	318
438.943	325
439.165	320
439.386	306
439.608	329
439.829	318
440.05	324
440.272	323
440.493	331
440.715	324
440.936	339
441.158	342
441.379	353
441.6	338
441.822	338
442.043	347
442.264	320
442.486	335
442.707	352
442.928	339
443.149	343
443.371	349
443.592	334
443.813	341
444.034	351
444.255	361
444.476	352
444.698	347
444.919	352
445.14	400
445.361	398
445.582	348
445.803	356
446.024	320
446.245	331
446.466	328
446.687	328
446.908	341
447.129	348
447.35	349
447.571	330
447.792	318
448.013	332
448.234	325
448.455	327
448.675	326
448.896	328
449.117	340
449.338	318
449.559	322
449.779	328
450	322
450.221	318
450.442	324
450.662	304
450.883	319
451.104	316
451.324	309
451.545	319
451.766	301
451.986	311
452.207	301
452.428	311
452.648	300
452.869	313
453.089	305
453.31	307
453.53	308
453.751	300
453.971	307
454.192	305
454.412	298
454.633	309
454.853	286
455.073	292
455.294	317
455.514	313
455.734	308
455.955	313
456.175	308
456.395	320
456.616	308
456.836	306
457.056	318
457.276	304
457.497	299
457.717	292
457.937	313
458.157	326
458.377	308
458.598	322
458.818	326
459.038	322
459.258	321
459.478	334
459.698	329
459.918	334
460.138	343
460.358	348
460.578	348
460.798	344
461.018	358
461.238	337
461.458	350
461.678	351
461.898	377
462.118	354
462.338	376
462.558	372
462.777	372
462.997	377
463.217	385
463.437	375
463.657	358
463.876	384
464.096	404
464.316	365
464.536	372
464.755	372
464.975	387
465.195	359
465.414	361
465.634	347
465.854	364
466.073	348
466.293	364
466.512	334
466.732	337
466.951	344
467.171	341
467.391	337
467.61	332
467.829	351
468.049	328
468.268	315
468.488	335
468.707	326
468.927	320
469.146	330
469.365	337
469.585	326
469.804	338
470.023	335
470.243	319
470.462	321
470.681	345
470.901	327
471.12	312
471.339	342
471.558	352
471.777	342
471.997	321
472.216	332
472.435	337
472.654	338
472.873	335
473.092	355
473.311	341
473.53	351
473.749	331
473.968	322
474.187	345
474.406	337
474.625	334
474.844	359
475.063	357
475.282	340
475.501	339
475.72	354
475.939	347
476.158	350
476.377	365
476.596	359
476.814	363
477.033	366
477.252	361
477.471	370
477.69	360
477.908	372
478.127	380
478.346	380
478.564	376
478.783	378
479.002	391
479.22	396
479.439	382
479.658	412
479.876	412
480.095	394
480.313	405
480.532	395
480.751	412
480.969	401
481.188	388
481.406	397
481.624	390
481.843	389
482.061	396
482.28	409
482.498	411
482.717	391
482.935	401
483.153	395
483.372	399
483.59	390
483.808	390
484.027	413
484.245	395
484.463	378
484.681	407
484.9	411
485.118	389
485.336	400
485.554	416
485.772	407
485.99	393
486.209	426
486.427	404
486.645	414
486.863	399
487.081	422
487.299	410
487.517	413
487.735	405
487.953	394
488.171	428
488.389	422
488.607	415
488.825	422
489.043	411
489.261	410
489.479	427
489.696	422
489.914	417
490.132	404
490.35	428
490.568	408
490.786	420
491.003	406
491.221	424
491.439	412
491.657	416
491.874	445
492.092	440
492.31	430
492.527	420
492.745	438
492.963	420
493.18	434
493.398	444
493.615	418
493.833	426
494.05	437
494.268	423
494.485	411
494.703	425
494.92	461
495.138	429
495.355	451
495.573	451
495.79	446
496.008	430
496.225	448
496.442	445
496.66	452
496.877	478
497.094	474
497.312	454
497.529	457
497.746	468
497.963	487
498.181	488
498.398	485
498.615	515
498.832	532
499.049	551
499.267	558
499.484	551
499.701	587
499.918	610
500.135	616
500.352	641
500.569	675
500.786	638
501.003	619
501.22	605
501.437	594
501.654	573
501.871	539
502.088	538
502.305	519
502.522	516
502.739	532
502.956	521
503.172	496
503.389	473
503.606	457
503.823	474
504.04	464
504.256	443
504.473	465
504.69	453
504.907	440
505.123	445
505.34	444
505.557	414
505.773	435
505.99	412
506.207	416
506.423	419
506.64	419
506.856	404
507.073	400
507.289	406
507.506	419
507.722	399
507.939	401
508.155	402
508.372	389
508.588	381
508.805	404
509.021	377
509.238	375
509.454	384
509.67	379
509.887	383
510.103	395
510.319	382
510.536	394
510.752	390
510.968	377
511.184	374
511.401	376
511.617	356
511.833	378
512.049	378
512.265	364
512.481	394
512.698	376
512.914	388
513.13	389
513.346	365
513.562	359
513.778	376
513.994	356
514.21	376
514.426	380
514.642	376
514.858	384
515.074	370
515.29	386
515.506	371
515.721	376
515.937	395
516.153	391
516.369	397
516.585	392
516.801	380
517.016	406
517.232	407
517.448	397
517.664	416
517.879	405
518.095	411
518.311	407
518.527	403
518.742	403
518.958	403
519.173	396
519.389	390
519.605	409
519.82	396
520.036	372
520.251	394
520.467	382
520.682	362
520.898	370
521.113	368
521.329	359
521.544	371
521.76	372
521.975	376
522.19	357
522.406	368
522.621	364
522.836	357
523.052	364
523.267	378
523.482	374
523.698	359
523.913	360
524.128	347
524.343	352
524.559	352
524.774	346
524.989	354
525.204	355
525.419	341
525.634	347
525.849	334
526.064	334
526.28	345
526.495	346
526.71	354
526.925	353
527.14	349
527.355	343
527.57	345
527.785	347
527.999	333
528.214	350
528.429	353
528.644	349
528.859	353
529.074	346
529.289	366
529.503	359
529.718	357
529.933	342
530.148	377
530.363	362
530.577	333
530.792	349
531.007	348
531.221	353
531.436	339
531.651	330
531.865	342
532.08	346
532.295	354
532.509	322
532.724	343
532.938	331
533.153	333
533.367	341
533.582	341
533.796	351
534.011	334
534.225	341
534.44	332
534.654	335
534.868	355
535.083	347
535.297	356
535.511	347
535.726	345
535.94	329
536.154	347
536.369	340
536.583	335
536.797	331
537.011	355
537.225	342
537.44	363
537.654	341
537.868	346
538.082	309
538.296	343
538.51	336
538.724	353
538.938	341
539.153	330
539.367	352
539.581	354
539.795	321
540.009	341
540.222	325
540.436	317
540.65	330
540.864	333
541.078	333
541.292	333
541.506	327
541.72	343
541.934	328
542.147	320
542.361	334
542.575	340
542.789	344
543.002	349
543.216	345
543.43	296
543.644	331
543.857	348
544.071	328
544.285	353
544.498	343
544.712	308
544.925	340
545.139	334
545.352	349
545.566	347
545.779	338
545.993	309
546.206	336
546.42	322
546.633	344
546.847	333
547.06	325
547.274	323
547.487	324
547.7	345
547.914	343
548.127	340
548.34	339
548.554	324
548.767	330
548.98	334
549.193	342
549.407	347
549.62	338
549.833	324
550.046	337
550.259	338
550.473	352
550.686	340
550.899	332
551.112	326
551.325	330
551.538	325
551.751	306
551.964	322
552.177	331
552.39	344
552.603	326
552.816	334
553.029	350
553.242	349
553.455	338
553.667	338
553.88	336
554.093	339
554.306	345
554.519	326
554.732	322
554.944	311
555.157	318
555.37	306
555.583	316
555.795	320
556.008	328
556.221	334
556.433	301
556.646	310
556.859	304
557.071	304
557.284	300
557.496	298
557.709	287
557.921	310
558.134	295
558.346	299
558.559	308
558.771	286
558.984	290
559.196	288
559.409	291
559.621	305
559.833	301
560.046	309
560.258	294
560.47	300
560.683	298
560.895	290
561.107	306
561.32	304
561.532	298
561.744	310
561.956	309
562.168	284
562.381	324
562.593	305
562.805	300
563.017	302
563.229	295
563.441	312
563.653	307
563.865	298
564.077	291
564.289	304
564.501	315
564.713	308
564.925	306
565.137	309
565.349	317
565.561	325
565.773	304
565.985	344
566.197	332
566.408	332
566.62	317
566.832	342
567.044	340
567.255	345
567.467	355
567.679	344
567.891	361
568.102	337
568.314	343
568.526	327
568.737	324
568.949	322
569.161	301
569.372	308
569.584	283
569.795	281
570.007	299
570.218	283
570.43	280
570.641	278
570.853	284
571.064	295
571.276	275
571.487	278
571.698	289
571.91	266
572.121	285
572.333	276
572.544	272
572.755	260
572.966	262
573.178	248
573.389	274
573.6	267
573.811	250
574.023	256
574.234	247
574.445	256
574.656	251
574.867	250
575.078	248
575.289	260
575.501	249
575.712	235
575.923	245
576.134	240
576.345	228
576.556	255
576.767	231
576.978	261
577.188	244
577.399	235
577.61	226
577.821	237
578.032	237
578.243	231
578.454	227
578.665	229
578.875	222
579.086	237
579.297	229
579.508	215
579.718	225
579.929	234
580.14	225
580.35	220
580.561	235
580.772	218
580.982	250
581.193	209
581.403	219
581.614	219
581.825	209
582.035	220
582.246	240
582.456	247
582.667	230
582.877	232
583.087	218
583.298	218
583.508	221
583.719	227
583.929	196
584.139	227
584.35	213
584.56	220
584.77	219
584.981	211
585.191	214
585.401	225
585.611	225
585.821	233
586.032	235
586.242	217
586.452	220
586.662	212
586.872	230
587.082	224
587.292	210
587.502	204
587.713	216
587.923	237
588.133	212
588.343	228
588.553	221
588.762	202
588.972	219
589.182	259
589.392	252
589.602	228
589.812	250
590.022	232
590.232	248
590.441	220
590.651	200
590.861	190
591.071	211
591.281	220
591.49	230
591.7	223
591.91	210
592.119	192
592.329	205
592.539	215
592.748	216
592.958	225
593.167	207
593.377	213
593.587	245
593.796	234
594.006	230
594.215	231
594.424	226
594.634	213
594.843	215
595.053	198
595.262	213
595.472	226
595.681	221
595.89	206
596.1	204
596.309	216
596.518	205
596.727	217
596.937	201
597.146	197
597.355	203
597.564	214
597.774	188
597.983	203
598.192	221
598.401	188
598.61	196
598.819	207
599.028	200
599.237	186
599.446	195
599.655	204
599.864	197
600.073	190
600.282	213
600.491	178
600.7	198
600.909	172
601.118	189
601.327	193
601.536	190
601.745	200
601.953	193
602.162	197
602.371	171
602.58	183
602.789	189
602.997	198
603.206	198
603.415	193
603.623	182
603.832	178
604.041	203
604.249	189
604.458	192
604.666	178
604.875	171
605.084	196
605.292	193
605.501	187
605.709	199
605.918	187
606.126	190
606.334	197
606.543	192
606.751	176
606.96	188
607.168	185
607.376	166
607.585	169
607.793	180
608.001	186
608.21	180
608.418	188
608.626	176
608.834	177
609.043	192
609.251	190
609.459	184
609.667	191
609.875	176
610.083	188
610.291	180
610.499	183
610.707	197
610.916	184
611.124	185
611.332	181
611.54	181
611.748	168
611.955	191
612.163	174
612.371	183
612.579	186
612.787	177
612.995	171
613.203	187
613.411	188
613.618	166
613.826	168
614.034	184
614.242	180
614.449	187
614.657	196
614.865	178
615.072	169
615.28	178
615.488	164
615.695	184
615.903	169
616.111	173
616.318	184
616.526	178
616.733	185
616.941	161
617.148	167
617.356	178
617.563	155
617.771	168
617.978	183
618.185	163
618.393	172
618.6	169
618.807	182
619.015	168
619.222	181
619.429	188
619.637	179
619.844	159
620.051	166
620.258	174
620.466	168
620.673	156
620.88	173
621.087	157
621.294	184
621.501	173
621.708	165
621.915	167
622.122	158
622.329	166
622.536	166
622.743	155
622.95	164
623.157	165
623.364	173
623.571	160
623.778	167
623.985	164
624.192	162
624.399	182
624.606	174
624.812	168
625.019	163
625.226	158
625.433	174
625.639	164
625.846	155
626.053	148
626.259	155
626.466	167
626.673	146
626.879	164
627.086	167
627.293	143
627.499	154
627.706	155
627.912	173
628.119	151
628.325	166
628.532	164
628.738	174
628.945	169
629.151	153
629.357	165
629.564	151
629.77	147
629.976	150
630.183	158
630.389	152
630.595	151
630.802	148
631.008	144
631.214	154
631.42	141
631.627	158
631.833	150
632.039	163
632.245	155
632.451	145
632.657	155
632.863	148
633.069	152
633.275	153
633.481	129
633.688	152
633.893	148
634.099	150
634.305	147
634.511	154
634.717	166
634.923	169
635.129	148
635.335	138
635.541	152
635.747	152
635.952	145
636.158	140
636.364	142
636.57	151
636.775	134
636.981	135
637.187	157
637.392	141
637.598	143
637.804	150
638.009	156
638.215	145
638.421	157
638.626	134
638.832	132
639.037	142
639.243	157
639.448	156
639.654	145
639.859	140
640.065	158
640.27	153
640.475	159
640.681	156
640.886	150
641.091	138
641.297	133
641.502	147
641.707	150
641.913	133
642.118	150
642.323	125
642.528	144
642.733	134
642.939	146
643.144	143
643.349	150
643.554	139
643.759	146
643.964	151
644.169	126
644.374	155
644.579	146
644.784	147
644.989	134
645.194	152
645.399	140
645.604	150
645.809	137
646.014	140
646.219	151
646.423	142
646.628	134
646.833	138
647.038	140
647.243	139
647.447	141
647.652	152
647.857	157
648.062	150
648.266	132
648.471	143
648.676	133
648.88	142
649.085	156
649.289	151
649.494	131
649.698	132
649.903	143
650.107	155
650.312	144
650.516	145
650.721	144
650.925	148
651.13	138
651.334	139
651.539	134
651.743	132
651.947	133
652.152	144
652.356	141
652.56	129
652.764	158
652.969	128
653.173	143
653.377	134
653.581	126
653.785	128
653.99	132
654.194	146
654.398	140
654.602	148
654.806	136
655.01	141
655.214	122
655.418	144
655.622	141
655.826	132
656.03	128
656.234	123
656.438	113
656.642	139
656.846	126
657.049	120
657.253	130
657.457	122
657.661	132
657.865	121
658.068	130
658.272	126
658.476	118
658.68	107
658.883	116
659.087	114
659.291	112
659.494	99
659.698	87
659.901	90
660.105	91
660.309	107
660.512	88
660.716	102
660.919	101
661.123	103
661.326	84
661.53	94
661.733	90
661.936	84
662.14	76
662.343	80
662.546	84
662.75	96
662.953	89
663.156	79
663.36	81
663.563	92
663.766	94
663.969	88
664.173	87
664.376	96
664.579	77
664.782	74
664.985	84
665.188	92
665.391	87
665.594	78
665.797	69
666	94
666.203	75
666.406	79
666.609	71
666.812	82
667.015	89
667.218	88
667.421	56
667.624	80
667.827	95
668.03	86
668.232	78
668.435	82
668.638	94
668.841	89
669.043	84
669.246	87
669.449	75
669.651	84
669.854	89
670.057	88
670.259	94
670.462	83
670.665	74
670.867	85
671.07	77
671.272	81
671.475	83
671.677	88
671.88	91
672.082	81
672.284	94
672.487	82
672.689	86
672.892	86
