Data from Fe(NO3)3@0.05M.TitratingCurve.Agarose3%dH2O.NegLispCup.LampEnergy10.LIBS07252019_HRD10591_16-48-25-334.txt Node
Date: Thu Jul 25 16:48:25 EDT 2019
User: cochatt
Spectrometer: HR+D1059
Trigger mode: 1
Integration Time (sec): 1.000000E-1
Scans to average: 1
Electric dark correction enabled: true
Nonlinearity correction enabled: false
Boxcar width: 0
XAxis mode: Wavelengths
Number of Pixels in Spectrum: 2048
>>>>>Begin Spectral Data<<<<<
223.165	-17
223.4	-17
223.635	-17
223.869	-28
224.104	-10
224.338	-25
224.573	-13
224.808	-14
225.042	-19
225.277	1
225.511	-4
225.746	-1
225.98	2
226.215	21
226.449	20
226.683	35
226.918	16
227.152	36
227.387	35
227.621	40
227.856	47
228.09	39
228.324	72
228.559	59
228.793	54
229.027	70
229.262	87
229.496	79
229.73	92
229.964	92
230.199	83
230.433	78
230.667	82
230.901	95
231.136	86
231.37	86
231.604	93
231.838	96
232.072	71
232.306	82
232.541	94
232.775	69
233.009	100
233.243	86
233.477	106
233.711	91
233.945	105
234.179	91
234.413	102
234.647	101
234.881	94
235.115	92
235.349	78
235.583	81
235.817	88
236.051	78
236.285	86
236.519	98
236.753	95
236.987	96
237.221	95
237.455	89
237.689	80
237.922	90
238.156	95
238.39	92
238.624	87
238.858	90
239.091	92
239.325	94
239.559	95
239.793	97
240.027	98
240.26	92
240.494	104
240.728	100
240.961	93
241.195	92
241.429	96
241.662	100
241.896	86
242.13	98
242.363	82
242.597	86
242.83	83
243.064	93
243.298	104
243.531	91
243.765	100
243.998	98
244.232	106
244.465	103
244.699	100
244.932	86
245.166	99
245.399	111
245.633	87
245.866	95
246.099	109
246.333	131
246.566	116
246.8	109
247.033	101
247.266	107
247.5	93
247.733	86
247.966	98
248.2	106
248.433	101
248.666	108
248.899	86
249.133	100
249.366	106
249.599	103
249.832	105
250.066	105
250.299	100
250.532	116
250.765	121
250.998	107
251.231	106
251.465	118
251.698	101
251.931	106
252.164	103
252.397	119
252.63	119
252.863	116
253.096	123
253.329	118
253.562	109
253.795	116
254.028	114
254.261	108
254.494	122
254.727	129
254.96	112
255.193	123
255.426	104
255.659	116
255.892	113
256.124	112
256.357	117
256.59	116
256.823	110
257.056	118
257.289	132
257.521	114
257.754	122
257.987	111
258.22	125
258.452	128
258.685	122
258.918	110
259.151	109
259.383	130
259.616	112
259.849	126
260.081	124
260.314	132
260.547	126
260.779	125
261.012	101
261.244	134
261.477	124
261.71	121
261.942	118
262.175	128
262.407	111
262.64	124
262.872	131
263.105	128
263.337	128
263.57	125
263.802	119
264.035	126
264.267	126
264.499	133
264.732	123
264.964	135
265.197	128
265.429	116
265.661	134
265.894	130
266.126	131
266.358	126
266.591	126
266.823	127
267.055	143
267.287	128
267.52	141
267.752	124
267.984	136
268.216	131
268.448	144
268.681	130
268.913	137
269.145	134
269.377	116
269.609	117
269.841	122
270.073	125
270.306	132
270.538	130
270.77	133
271.002	141
271.234	143
271.466	144
271.698	150
271.93	128
272.162	145
272.394	137
272.626	118
272.858	133
273.09	139
273.322	129
273.553	124
273.785	128
274.017	141
274.249	134
274.481	149
274.713	145
274.945	147
275.176	147
275.408	151
275.64	144
275.872	137
276.104	159
276.335	147
276.567	118
276.799	124
277.031	146
277.262	147
277.494	126
277.726	136
277.957	139
278.189	153
278.421	151
278.652	141
278.884	140
279.115	139
279.347	139
279.579	143
279.81	157
280.042	137
280.273	139
280.505	152
280.736	141
280.968	132
281.199	148
281.431	145
281.662	152
281.894	143
282.125	148
282.356	134
282.588	137
282.819	159
283.051	144
283.282	152
283.513	148
283.745	136
283.976	128
284.207	163
284.439	143
284.67	167
284.901	139
285.132	156
285.364	157
285.595	151
285.826	154
286.057	143
286.288	143
286.52	140
286.751	149
286.982	164
287.213	149
287.444	143
287.675	150
287.906	148
288.138	156
288.369	155
288.6	141
288.831	146
289.062	159
289.293	159
289.524	155
289.755	160
289.986	157
290.217	158
290.448	141
290.679	151
290.91	155
291.141	154
291.371	167
291.602	169
291.833	146
292.064	167
292.295	143
292.526	152
292.757	156
292.987	181
293.218	151
293.449	159
293.68	158
293.91	148
294.141	127
294.372	141
294.603	163
294.833	152
295.064	156
295.295	143
295.525	156
295.756	162
295.987	144
296.217	159
296.448	170
296.679	152
296.909	171
297.14	165
297.37	165
297.601	151
297.831	154
298.062	162
298.292	182
298.523	167
298.753	148
298.984	157
299.214	166
299.445	171
299.675	166
299.905	165
300.136	165
300.366	168
300.597	165
300.827	164
301.057	169
301.288	184
301.518	174
301.748	171
301.979	160
302.209	162
302.439	173
302.669	177
302.9	158
303.13	174
303.36	176
303.59	175
303.82	156
304.051	164
304.281	175
304.511	160
304.741	165
304.971	152
305.201	169
305.431	164
305.661	167
305.891	176
306.121	163
306.352	184
306.582	164
306.812	158
307.042	169
307.272	167
307.502	168
307.731	170
307.961	162
308.191	167
308.421	162
308.651	151
308.881	166
309.111	172
309.341	168
309.571	154
309.8	179
310.03	163
310.26	180
310.49	184
310.72	195
310.949	178
311.179	180
311.409	163
311.639	158
311.868	164
312.098	171
312.328	187
312.557	165
312.787	152
313.017	176
313.246	167
313.476	169
313.706	160
313.935	170
314.165	163
314.394	180
314.624	184
314.853	184
315.083	195
315.312	178
315.542	182
315.771	173
316.001	184
316.23	179
316.46	183
316.689	169
316.919	168
317.148	165
317.377	182
317.607	167
317.836	168
318.065	191
318.295	166
318.524	184
318.753	169
318.983	178
319.212	156
319.441	179
319.67	165
319.9	187
320.129	171
320.358	177
320.587	168
320.816	164
321.046	171
321.275	187
321.504	178
321.733	174
321.962	186
322.191	183
322.42	169
322.649	184
322.878	180
323.108	181
323.337	190
323.566	183
323.795	178
324.024	174
324.253	178
324.482	187
324.71	181
324.939	171
325.168	169
325.397	191
325.626	190
325.855	177
326.084	176
326.313	194
326.542	189
326.77	180
326.999	184
327.228	200
327.457	184
327.686	180
327.914	171
328.143	181
328.372	184
328.6	196
328.829	179
329.058	184
329.287	180
329.515	174
329.744	193
329.972	186
330.201	177
330.43	203
330.658	186
330.887	184
331.115	203
331.344	199
331.572	186
331.801	192
332.03	203
332.258	194
332.486	200
332.715	199
332.943	210
333.172	209
333.4	210
333.629	229
333.857	225
334.085	216
334.314	219
334.542	232
334.771	220
334.999	210
335.227	213
335.455	199
335.684	214
335.912	217
336.14	195
336.369	208
336.597	199
336.825	208
337.053	207
337.281	206
337.51	216
337.738	192
337.966	195
338.194	192
338.422	197
338.65	194
338.878	179
339.106	181
339.334	212
339.562	189
339.79	197
340.018	165
340.246	190
340.474	186
340.702	193
340.93	201
341.158	195
341.386	199
341.614	201
341.842	181
342.07	189
342.298	191
342.526	187
342.754	190
342.981	185
343.209	188
343.437	192
343.665	214
343.893	227
344.12	225
344.348	202
344.576	206
344.804	208
345.031	208
345.259	192
345.487	196
345.714	196
345.942	201
346.17	205
346.397	189
346.625	188
346.853	207
347.08	195
347.308	199
347.535	188
347.763	180
347.99	175
348.218	194
348.445	179
348.673	181
348.9	185
349.128	191
349.355	192
349.583	211
349.81	184
350.037	174
350.265	182
350.492	205
350.72	188
350.947	190
351.174	205
351.402	189
351.629	180
351.856	179
352.083	194
352.311	186
352.538	186
352.765	183
352.992	192
353.22	174
353.447	174
353.674	181
353.901	171
354.128	184
354.355	186
354.583	184
354.81	198
355.037	198
355.264	194
355.491	185
355.718	201
355.945	191
356.172	188
356.399	187
356.626	184
356.853	181
357.08	192
357.307	178
357.534	156
357.761	173
357.988	191
358.215	196
358.441	178
358.668	179
358.895	185
359.122	186
359.349	191
359.576	202
359.802	185
360.029	187
360.256	188
360.483	168
360.709	195
360.936	195
361.163	192
361.39	187
361.616	170
361.843	188
362.07	192
362.296	204
362.523	189
362.749	184
362.976	203
363.203	190
363.429	202
363.656	194
363.882	180
364.109	199
364.335	195
364.562	194
364.788	192
365.015	203
365.241	172
365.468	205
365.694	172
365.92	197
366.147	184
366.373	203
366.599	187
366.826	186
367.052	204
367.278	207
367.505	200
367.731	174
367.957	204
368.184	182
368.41	213
368.636	205
368.862	204
369.089	193
369.315	192
369.541	195
369.767	198
369.993	187
370.219	196
370.445	186
370.672	202
370.898	216
371.124	212
371.35	215
371.576	203
371.802	204
372.028	203
372.254	207
372.48	221
372.706	197
372.932	211
373.158	215
373.384	205
373.61	223
373.835	195
374.061	191
374.287	199
374.513	209
374.739	212
374.965	240
375.191	236
375.416	227
375.642	226
375.868	225
376.094	210
376.319	210
376.545	242
376.771	218
376.997	230
377.222	204
377.448	210
377.674	220
377.899	211
378.125	214
378.35	215
378.576	215
378.802	205
379.027	205
379.253	204
379.478	212
379.704	213
379.929	214
380.155	215
380.38	222
380.606	222
380.831	201
381.057	219
381.282	220
381.507	213
381.733	213
381.958	236
382.184	232
382.409	230
382.634	241
382.86	239
383.085	252
383.31	230
383.535	228
383.761	232
383.986	243
384.211	243
384.436	230
384.662	247
384.887	240
385.112	227
385.337	234
385.562	263
385.787	257
386.013	255
386.238	267
386.463	262
386.688	258
386.913	250
387.138	277
387.363	247
387.588	258
387.813	276
388.038	253
388.263	250
388.488	275
388.713	260
388.938	276
389.163	247
389.387	254
389.612	244
389.837	260
390.062	255
390.287	266
390.512	256
390.736	270
390.961	267
391.186	264
391.411	273
391.636	272
391.86	268
392.085	283
392.31	261
392.534	284
392.759	285
392.984	290
393.208	277
393.433	276
393.658	264
393.882	277
394.107	283
394.331	268
394.556	277
394.78	267
395.005	293
395.229	263
395.454	275
395.678	283
395.903	306
396.127	293
396.352	273
396.576	282
396.801	287
397.025	271
397.249	287
397.474	311
397.698	286
397.922	301
398.147	287
398.371	287
398.595	299
398.82	310
399.044	339
399.268	362
399.492	377
399.717	408
399.941	410
400.165	389
400.389	362
400.613	324
400.837	331
401.062	318
401.286	319
401.51	322
401.734	295
401.958	326
402.182	331
402.406	314
402.63	334
402.854	330
403.078	328
403.302	332
403.526	328
403.75	342
403.974	342
404.198	339
404.422	358
404.645	361
404.869	335
405.093	370
405.317	344
405.541	344
405.765	343
405.988	338
406.212	343
406.436	357
406.66	350
406.883	346
407.107	378
407.331	363
407.555	386
407.778	389
408.002	377
408.226	383
408.449	373
408.673	371
408.896	350
409.12	386
409.344	370
409.567	365
409.791	356
410.014	346
410.238	360
410.461	356
410.685	368
410.908	356
411.132	359
411.355	347
411.578	372
411.802	329
412.025	349
412.249	344
412.472	356
412.695	332
412.919	346
413.142	330
413.365	342
413.589	336
413.812	338
414.035	331
414.258	338
414.482	334
414.705	340
414.928	342
415.151	324
415.374	325
415.597	329
415.821	321
416.044	328
416.267	333
416.49	326
416.713	326
416.936	319
417.159	304
417.382	314
417.605	330
417.828	342
418.051	360
418.274	340
418.497	325
418.72	335
418.943	333
419.166	371
419.389	345
419.611	368
419.834	354
420.057	344
420.28	350
420.503	341
420.726	328
420.948	336
421.171	325
421.394	344
421.617	346
421.839	333
422.062	327
422.285	339
422.507	349
422.73	328
422.953	344
423.175	345
423.398	349
423.621	353
423.843	337
424.066	330
424.288	371
424.511	344
424.733	333
424.956	332
425.178	336
425.401	365
425.623	343
425.846	346
426.068	336
426.291	327
426.513	320
426.735	332
426.958	348
427.18	345
427.402	316
427.625	326
427.847	317
428.069	326
428.292	299
428.514	322
428.736	319
428.958	311
429.181	311
429.403	318
429.625	310
429.847	327
430.069	314
430.292	317
430.514	312
430.736	318
430.958	312
431.18	329
431.402	316
431.624	315
431.846	333
432.068	305
432.29	318
432.512	332
432.734	309
432.956	340
433.178	329
433.4	326
433.622	318
433.844	329
434.066	340
434.287	309
434.509	335
434.731	342
434.953	343
435.175	354
435.397	324
435.618	349
435.84	353
436.062	342
436.284	324
436.505	341
436.727	334
436.949	335
437.17	316
437.392	323
437.614	321
437.835	334
438.057	336
438.278	312
438.5	346
438.721	331
438.943	338
439.165	327
439.386	338
439.608	347
439.829	328
440.05	336
440.272	342
440.493	331
440.715	336
440.936	321
441.158	349
441.379	343
441.6	338
441.822	362
442.043	375
442.264	367
442.486	363
442.707	379
442.928	349
443.149	360
443.371	358
443.592	354
443.813	368
444.034	371
444.255	373
444.476	357
444.698	406
444.919	376
445.14	501
445.361	445
445.582	367
445.803	349
446.024	342
446.245	344
446.466	342
446.687	352
446.908	355
447.129	335
447.35	354
447.571	336
447.792	344
448.013	315
448.234	318
448.455	333
448.675	318
448.896	313
449.117	312
449.338	310
449.559	307
449.779	313
450	308
450.221	316
450.442	334
450.662	329
450.883	312
451.104	317
451.324	318
451.545	326
451.766	312
451.986	331
452.207	324
452.428	325
452.648	332
452.869	324
453.089	324
453.31	326
453.53	313
453.751	288
453.971	308
454.192	317
454.412	294
454.633	291
454.853	302
455.073	293
455.294	308
455.514	285
455.734	300
455.955	304
456.175	292
456.395	299
456.616	290
456.836	312
457.056	306
457.276	294
457.497	289
457.717	298
457.937	297
458.157	294
458.377	304
458.598	286
458.818	310
459.038	308
459.258	335
459.478	332
459.698	318
459.918	341
460.138	340
460.358	371
460.578	347
460.798	379
461.018	374
461.238	395
461.458	380
461.678	384
461.898	380
462.118	371
462.338	393
462.558	388
462.777	408
462.997	434
463.217	456
463.437	444
463.657	435
463.876	415
464.096	424
464.316	422
464.536	431
464.755	405
464.975	380
465.195	383
465.414	374
465.634	361
465.854	356
466.073	338
466.293	332
466.512	341
466.732	336
466.951	321
467.171	333
467.391	340
467.61	329
467.829	348
468.049	324
468.268	334
468.488	319
468.707	336
468.927	325
469.146	324
469.365	319
469.585	310
469.804	333
470.023	348
470.243	354
470.462	344
470.681	350
470.901	339
471.12	340
471.339	329
471.558	330
471.777	335
471.997	320
472.216	340
472.435	319
472.654	308
472.873	314
473.092	312
473.311	322
473.53	316
473.749	326
473.968	320
474.187	297
474.406	290
474.625	331
474.844	334
475.063	317
475.282	317
475.501	313
475.72	330
475.939	315
476.158	340
476.377	343
476.596	339
476.814	315
477.033	333
477.252	334
477.471	346
477.69	366
477.908	356
478.127	364
478.346	356
478.564	353
478.783	375
479.002	381
479.22	363
479.439	380
479.658	362
479.876	378
480.095	376
480.313	389
480.532	383
480.751	388
480.969	364
481.188	375
481.406	375
481.624	352
481.843	341
482.061	360
482.28	353
482.498	347
482.717	362
482.935	365
483.153	367
483.372	359
483.59	368
483.808	360
484.027	359
484.245	370
484.463	380
484.681	376
484.9	378
485.118	361
485.336	370
485.554	368
485.772	359
485.99	360
486.209	352
486.427	366
486.645	374
486.863	388
487.081	377
487.299	374
487.517	367
487.735	369
487.953	360
488.171	376
488.389	365
488.607	373
488.825	378
489.043	381
489.261	380
489.479	368
489.696	386
489.914	380
490.132	372
490.35	387
490.568	378
490.786	380
491.003	396
491.221	386
491.439	373
491.657	385
491.874	374
492.092	389
492.31	398
492.527	409
492.745	390
492.963	392
493.18	390
493.398	403
493.615	382
493.833	387
494.05	384
494.268	392
494.485	393
494.703	396
494.92	408
495.138	375
495.355	404
495.573	396
495.79	400
496.008	388
496.225	408
496.442	396
496.66	382
496.877	424
497.094	420
497.312	425
497.529	425
497.746	407
497.963	436
498.181	472
498.398	458
498.615	477
498.832	515
499.049	503
499.267	543
499.484	569
499.701	640
499.918	660
500.135	736
500.352	779
500.569	818
500.786	770
501.003	783
501.22	695
501.437	663
501.654	611
501.871	556
502.088	526
502.305	506
502.522	495
502.739	470
502.956	463
503.172	446
503.389	454
503.606	424
503.823	412
504.04	418
504.256	423
504.473	423
504.69	426
504.907	419
505.123	396
505.34	385
505.557	352
505.773	364
505.99	365
506.207	368
506.423	353
506.64	359
506.856	363
507.073	339
507.289	320
507.506	336
507.722	334
507.939	340
508.155	343
508.372	324
508.588	325
508.805	339
509.021	328
509.238	322
509.454	332
509.67	332
509.887	325
510.103	319
510.319	331
510.536	319
510.752	316
510.968	319
511.184	336
511.401	323
511.617	335
511.833	321
512.049	318
512.265	325
512.481	296
512.698	303
512.914	322
513.13	338
513.346	328
513.562	292
513.778	322
513.994	329
514.21	316
514.426	333
514.642	314
514.858	317
515.074	342
515.29	317
515.506	319
515.721	338
515.937	346
516.153	343
516.369	334
516.585	357
516.801	362
517.016	373
517.232	371
517.448	395
517.664	399
517.879	387
518.095	379
518.311	379
518.527	375
518.742	362
518.958	346
519.173	365
519.389	357
519.605	337
519.82	332
520.036	326
520.251	329
520.467	354
520.682	307
520.898	325
521.113	325
521.329	307
521.544	315
521.76	306
521.975	320
522.19	313
522.406	310
522.621	306
522.836	309
523.052	301
523.267	294
523.482	309
523.698	320
523.913	290
524.128	312
524.343	285
524.559	308
524.774	300
524.989	303
525.204	303
525.419	301
525.634	278
525.849	308
526.064	293
526.28	310
526.495	277
526.71	290
526.925	286
527.14	296
527.355	291
527.57	278
527.785	281
527.999	300
528.214	295
528.429	288
528.644	304
528.859	303
529.074	304
529.289	295
529.503	309
529.718	286
529.933	292
530.148	286
530.363	308
530.577	278
530.792	301
531.007	279
531.221	286
531.436	290
531.651	274
531.865	280
532.08	276
532.295	289
532.509	287
532.724	285
532.938	296
533.153	300
533.367	280
533.582	292
533.796	290
534.011	301
534.225	277
534.44	291
534.654	298
534.868	294
535.083	292
535.297	281
535.511	258
535.726	268
535.94	273
536.154	269
536.369	259
536.583	290
536.797	291
537.011	285
537.225	281
537.44	276
537.654	283
537.868	271
538.082	268
538.296	258
538.51	274
538.724	282
538.938	270
539.153	300
539.367	281
539.581	259
539.795	283
540.009	270
540.222	276
540.436	258
540.65	292
540.864	276
541.078	279
541.292	286
541.506	278
541.72	290
541.934	286
542.147	284
542.361	274
542.575	280
542.789	258
543.002	270
543.216	276
543.43	282
543.644	277
543.857	276
544.071	282
544.285	305
544.498	283
544.712	276
544.925	276
545.139	280
545.352	271
545.566	276
545.779	281
545.993	273
546.206	290
546.42	270
546.633	279
546.847	282
547.06	278
547.274	287
547.487	277
547.7	283
547.914	291
548.127	293
548.34	278
548.554	265
548.767	295
548.98	284
549.193	272
549.407	267
549.62	297
549.833	286
550.046	288
550.259	276
550.473	288
550.686	295
550.899	264
551.112	283
551.325	261
551.538	263
551.751	279
551.964	256
552.177	284
552.39	284
552.603	273
552.816	280
553.029	288
553.242	282
553.455	281
553.667	278
553.88	285
554.093	276
554.306	282
554.519	275
554.732	277
554.944	270
555.157	266
555.37	284
555.583	268
555.795	270
556.008	270
556.221	260
556.433	256
556.646	249
556.859	247
557.071	244
557.284	234
557.496	266
557.709	248
557.921	256
558.134	244
558.346	230
558.559	246
558.771	234
558.984	266
559.196	266
559.409	252
559.621	256
559.833	248
560.046	250
560.258	237
560.47	254
560.683	245
560.895	239
561.107	240
561.32	245
561.532	222
561.744	250
561.956	228
562.168	250
562.381	230
562.593	239
562.805	254
563.017	246
563.229	257
563.441	240
563.653	254
563.865	236
564.077	238
564.289	245
564.501	249
564.713	248
564.925	256
565.137	266
565.349	255
565.561	266
565.773	250
565.985	246
566.197	258
566.408	287
566.62	303
566.832	307
567.044	300
567.255	326
567.467	320
567.679	335
567.891	326
568.102	348
568.314	328
568.526	306
568.737	304
568.949	265
569.161	270
569.372	269
569.584	257
569.795	239
570.007	257
570.218	241
570.43	236
570.641	236
570.853	244
571.064	242
571.276	237
571.487	226
571.698	222
571.91	246
572.121	206
572.333	233
572.544	223
572.755	230
572.966	192
573.178	218
573.389	200
573.6	210
573.811	206
574.023	206
574.234	221
574.445	205
574.656	214
574.867	199
575.078	220
575.289	205
575.501	190
575.712	187
575.923	193
576.134	203
576.345	194
576.556	205
576.767	200
576.978	192
577.188	212
577.399	195
577.61	195
577.821	181
578.032	187
578.243	184
578.454	190
578.665	183
578.875	203
579.086	190
579.297	194
579.508	185
579.718	189
579.929	176
580.14	186
580.35	166
580.561	190
580.772	180
580.982	174
581.193	182
581.403	186
581.614	182
581.825	194
582.035	171
582.246	183
582.456	206
582.667	197
582.877	186
583.087	184
583.298	174
583.508	178
583.719	183
583.929	190
584.139	181
584.35	177
584.56	180
584.77	199
584.981	166
585.191	176
585.401	175
585.611	172
585.821	178
586.032	177
586.242	171
586.452	185
586.662	172
586.872	172
587.082	172
587.292	182
587.502	174
587.713	182
587.923	180
588.133	183
588.343	182
588.553	180
588.762	168
588.972	188
589.182	178
589.392	179
589.602	182
589.812	170
590.022	184
590.232	176
590.441	188
590.651	180
590.861	173
591.071	170
591.281	198
591.49	176
591.7	158
591.91	165
592.119	167
592.329	200
592.539	182
592.748	189
592.958	188
593.167	198
593.377	198
593.587	215
593.796	212
594.006	203
594.215	199
594.424	206
594.634	186
594.843	213
595.053	196
595.262	184
595.472	181
595.681	183
595.89	170
596.1	173
596.309	170
596.518	171
596.727	168
596.937	180
597.146	167
597.355	185
597.564	171
597.774	175
597.983	172
598.192	160
598.401	163
598.61	173
598.819	167
599.028	163
599.237	150
599.446	158
599.655	147
599.864	164
600.073	170
600.282	165
600.491	164
600.7	167
600.909	151
601.118	163
601.327	143
601.536	171
601.745	151
601.953	162
602.162	159
602.371	168
602.58	162
602.789	159
602.997	163
603.206	156
603.415	154
603.623	153
603.832	157
604.041	151
604.249	146
604.458	167
604.666	161
604.875	135
605.084	155
605.292	151
605.501	164
605.709	154
605.918	178
606.126	171
606.334	143
606.543	147
606.751	143
606.96	160
607.168	149
607.376	155
607.585	163
607.793	152
608.001	171
608.21	162
608.418	140
608.626	154
608.834	148
609.043	170
609.251	145
609.459	156
609.667	155
609.875	139
610.083	151
610.291	154
610.499	158
610.707	167
610.916	150
611.124	150
611.332	154
611.54	159
611.748	168
611.955	164
612.163	138
612.371	140
612.579	140
612.787	159
612.995	164
613.203	145
613.411	136
613.618	153
613.826	146
614.034	170
614.242	148
614.449	147
614.657	150
614.865	142
615.072	152
615.28	153
615.488	145
615.695	155
615.903	138
616.111	136
616.318	167
616.526	144
616.733	149
616.941	148
617.148	160
617.356	149
617.563	154
617.771	159
617.978	143
618.185	143
618.393	138
618.6	134
618.807	152
619.015	160
619.222	161
619.429	138
619.637	148
619.844	138
620.051	149
620.258	138
620.466	141
620.673	148
620.88	139
621.087	139
621.294	127
621.501	144
621.708	147
621.915	145
622.122	146
622.329	138
622.536	136
622.743	146
622.95	147
623.157	136
623.364	141
623.571	138
623.778	139
623.985	145
624.192	150
624.399	147
624.606	149
624.812	134
625.019	145
625.226	147
625.433	139
625.639	141
625.846	130
626.053	135
626.259	143
626.466	126
626.673	131
626.879	134
627.086	137
627.293	123
627.499	124
627.706	124
627.912	141
628.119	132
628.325	138
628.532	141
628.738	142
628.945	136
629.151	138
629.357	128
629.564	135
629.77	136
629.976	132
630.183	110
630.389	124
630.595	129
630.802	132
631.008	126
631.214	137
631.42	142
631.627	120
631.833	131
632.039	132
632.245	125
632.451	130
632.657	129
632.863	123
633.069	133
633.275	130
633.481	136
633.688	117
633.893	130
634.099	127
634.305	117
634.511	123
634.717	128
634.923	127
635.129	131
635.335	148
635.541	115
635.747	140
635.952	128
636.158	142
636.364	134
636.57	118
636.775	109
636.981	126
637.187	127
637.392	122
637.598	138
637.804	135
638.009	122
638.215	123
638.421	132
638.626	126
638.832	120
639.037	125
639.243	126
639.448	123
639.654	121
639.859	125
640.065	117
640.27	117
640.475	114
640.681	118
640.886	115
641.091	114
641.297	130
641.502	133
641.707	121
641.913	116
642.118	131
642.323	131
642.528	124
642.733	124
642.939	135
643.144	127
643.349	118
643.554	120
643.759	117
643.964	127
644.169	133
644.374	127
644.579	141
644.784	111
644.989	121
645.194	114
645.399	120
645.604	121
645.809	133
646.014	132
646.219	112
646.423	132
646.628	126
646.833	123
647.038	128
647.243	124
647.447	121
647.652	124
647.857	132
648.062	138
648.266	118
648.471	122
648.676	128
648.88	135
649.085	117
649.289	114
649.494	108
649.698	130
649.903	110
650.107	126
650.312	125
650.516	122
650.721	118
650.925	119
651.13	129
651.334	120
651.539	111
651.743	107
651.947	115
652.152	111
652.356	121
652.56	124
652.764	119
652.969	112
653.173	123
653.377	117
653.581	107
653.785	110
653.99	118
654.194	110
654.398	114
654.602	109
654.806	112
655.01	115
655.214	111
655.418	120
655.622	117
655.826	116
656.03	118
656.234	107
656.438	108
656.642	119
656.846	122
657.049	101
657.253	113
657.457	112
657.661	105
657.865	103
658.068	98
658.272	100
658.476	93
658.68	101
658.883	103
659.087	102
659.291	98
659.494	86
659.698	89
659.901	84
660.105	98
660.309	81
660.512	91
660.716	84
660.919	92
661.123	96
661.326	90
661.53	92
661.733	100
661.936	90
662.14	93
662.343	83
662.546	89
662.75	79
662.953	104
663.156	74
663.36	76
663.563	88
663.766	79
663.969	95
664.173	81
664.376	69
664.579	83
664.782	84
664.985	77
665.188	75
665.391	80
665.594	79
665.797	92
666	77
666.203	79
666.406	84
666.609	98
666.812	87
667.015	90
667.218	83
667.421	99
667.624	80
667.827	84
668.03	77
668.232	85
668.435	90
668.638	87
668.841	91
669.043	74
669.246	83
669.449	80
669.651	99
669.854	86
670.057	82
670.259	78
670.462	66
670.665	85
670.867	93
671.07	90
671.272	76
671.475	82
671.677	87
671.88	78
672.082	87
672.284	86
672.487	88
672.689	91
672.892	81
