Data from Fe(NO3)3@0.05M.TitratingCurve.Agarose3%dH2O.NegLispCup.LampEnergy10.LIBS07252019_HRD10591_16-46-57-334.txt Node
Date: Thu Jul 25 16:46:57 EDT 2019
User: cochatt
Spectrometer: HR+D1059
Trigger mode: 1
Integration Time (sec): 1.000000E-1
Scans to average: 1
Electric dark correction enabled: true
Nonlinearity correction enabled: false
Boxcar width: 0
XAxis mode: Wavelengths
Number of Pixels in Spectrum: 2048
>>>>>Begin Spectral Data<<<<<
223.165	-22
223.4	-22
223.635	-22
223.869	-25
224.104	-14
224.338	-17
224.573	-3
224.808	-12
225.042	-9
225.277	0
225.511	-7
225.746	-2
225.98	6
226.215	13
226.449	14
226.683	23
226.918	32
227.152	23
227.387	33
227.621	51
227.856	29
228.09	40
228.324	45
228.559	62
228.793	75
229.027	124
229.262	131
229.496	129
229.73	138
229.964	140
230.199	156
230.433	136
230.667	141
230.901	152
231.136	150
231.37	151
231.604	151
231.838	176
232.072	154
232.306	155
232.541	164
232.775	164
233.009	161
233.243	176
233.477	185
233.711	198
233.945	167
234.179	184
234.413	163
234.647	197
234.881	204
235.115	190
235.349	186
235.583	170
235.817	198
236.051	174
236.285	185
236.519	201
236.753	201
236.987	191
237.221	185
237.455	180
237.689	186
237.922	210
238.156	216
238.39	227
238.624	249
238.858	249
239.091	213
239.325	211
239.559	217
239.793	219
240.027	250
240.26	229
240.494	241
240.728	247
240.961	245
241.195	243
241.429	230
241.662	250
241.896	225
242.13	228
242.363	234
242.597	241
242.83	231
243.064	235
243.298	230
243.531	268
243.765	267
243.998	234
244.232	255
244.465	257
244.699	258
244.932	270
245.166	274
245.399	258
245.633	256
245.866	260
246.099	264
246.333	283
246.566	291
246.8	291
247.033	293
247.266	288
247.5	291
247.733	282
247.966	283
248.2	282
248.433	305
248.666	317
248.899	316
249.133	323
249.366	332
249.599	318
249.832	331
250.066	319
250.299	308
250.532	327
250.765	322
250.998	320
251.231	325
251.465	327
251.698	328
251.931	337
252.164	342
252.397	343
252.63	323
252.863	368
253.096	377
253.329	364
253.562	371
253.795	371
254.028	382
254.261	384
254.494	362
254.727	364
254.96	380
255.193	376
255.426	380
255.659	366
255.892	363
256.124	362
256.357	355
256.59	378
256.823	387
257.056	389
257.289	381
257.521	393
257.754	385
257.987	389
258.22	383
258.452	401
258.685	382
258.918	429
259.151	423
259.383	409
259.616	402
259.849	435
260.081	488
260.314	521
260.547	450
260.779	435
261.012	468
261.244	451
261.477	457
261.71	455
261.942	450
262.175	418
262.407	432
262.64	444
262.872	446
263.105	467
263.337	474
263.57	460
263.802	436
264.035	414
264.267	423
264.499	410
264.732	445
264.964	442
265.197	435
265.429	437
265.661	456
265.894	439
266.126	449
266.358	441
266.591	444
266.823	481
267.055	449
267.287	452
267.52	444
267.752	464
267.984	469
268.216	444
268.448	468
268.681	465
268.913	480
269.145	479
269.377	471
269.609	451
269.841	474
270.073	459
270.306	490
270.538	498
270.77	477
271.002	491
271.234	489
271.466	516
271.698	487
271.93	497
272.162	524
272.394	506
272.626	497
272.858	513
273.09	534
273.322	527
273.553	526
273.785	548
274.017	564
274.249	618
274.481	583
274.713	631
274.945	717
275.176	713
275.408	627
275.64	642
275.872	639
276.104	618
276.335	555
276.567	543
276.799	577
277.031	588
277.262	569
277.494	580
277.726	568
277.957	584
278.189	578
278.421	587
278.652	575
278.884	552
279.115	568
279.347	587
279.579	577
279.81	572
280.042	567
280.273	589
280.505	599
280.736	589
280.968	584
281.199	598
281.431	601
281.662	584
281.894	589
282.125	603
282.356	608
282.588	611
282.819	579
283.051	588
283.282	595
283.513	611
283.745	642
283.976	619
284.207	643
284.439	611
284.67	623
284.901	603
285.132	603
285.364	617
285.595	621
285.826	637
286.057	629
286.288	632
286.52	635
286.751	624
286.982	636
287.213	652
287.444	637
287.675	639
287.906	630
288.138	652
288.369	654
288.6	647
288.831	628
289.062	659
289.293	649
289.524	660
289.755	662
289.986	661
290.217	652
290.448	633
290.679	669
290.91	642
291.141	616
291.371	665
291.602	659
291.833	665
292.064	651
292.295	670
292.526	660
292.757	678
292.987	676
293.218	650
293.449	681
293.68	668
293.91	673
294.141	665
294.372	683
294.603	651
294.833	657
295.064	675
295.295	672
295.525	679
295.756	675
295.987	674
296.217	708
296.448	714
296.679	672
296.909	684
297.14	682
297.37	695
297.601	714
297.831	707
298.062	708
298.292	712
298.523	708
298.753	752
298.984	695
299.214	717
299.445	715
299.675	724
299.905	734
300.136	724
300.366	723
300.597	715
300.827	755
301.057	745
301.288	739
301.518	724
301.748	766
301.979	745
302.209	780
302.439	791
302.669	771
302.9	756
303.13	755
303.36	770
303.59	780
303.82	757
304.051	770
304.281	757
304.511	778
304.741	767
304.971	764
305.201	768
305.431	736
305.661	767
305.891	773
306.121	744
306.352	777
306.582	766
306.812	748
307.042	774
307.272	785
307.502	742
307.731	783
307.961	776
308.191	759
308.421	763
308.651	773
308.881	785
309.111	766
309.341	759
309.571	747
309.8	781
310.03	769
310.26	802
310.49	773
310.72	799
310.949	805
311.179	778
311.409	758
311.639	791
311.868	797
312.098	812
312.328	803
312.557	802
312.787	845
313.017	821
313.246	836
313.476	792
313.706	813
313.935	832
314.165	833
314.394	840
314.624	850
314.853	839
315.083	831
315.312	845
315.542	844
315.771	821
316.001	841
316.23	857
316.46	826
316.689	837
316.919	858
317.148	862
317.377	856
317.607	835
317.836	847
318.065	837
318.295	829
318.524	841
318.753	822
318.983	817
319.212	853
319.441	843
319.67	840
319.9	807
320.129	849
320.358	826
320.587	874
320.816	846
321.046	855
321.275	860
321.504	874
321.733	876
321.962	881
322.191	864
322.42	863
322.649	874
322.878	864
323.108	850
323.337	911
323.566	874
323.795	872
324.024	894
324.253	894
324.482	884
324.71	884
324.939	873
325.168	867
325.397	919
325.626	908
325.855	924
326.084	916
326.313	912
326.542	876
326.77	913
326.999	907
327.228	928
327.457	932
327.686	935
327.914	907
328.143	912
328.372	917
328.6	924
328.829	910
329.058	948
329.287	922
329.515	936
329.744	929
329.972	945
330.201	912
330.43	963
330.658	955
330.887	955
331.115	953
331.344	972
331.572	964
331.801	978
332.03	948
332.258	971
332.486	992
332.715	1052
332.943	1012
333.172	1044
333.4	1033
333.629	1051
333.857	1086
334.085	1107
334.314	1063
334.542	1079
334.771	1087
334.999	1095
335.227	1086
335.455	1064
335.684	1084
335.912	1092
336.14	1097
336.369	1085
336.597	1103
336.825	1062
337.053	1062
337.281	1058
337.51	1061
337.738	1054
337.966	1049
338.194	1038
338.422	1024
338.65	1021
338.878	1033
339.106	1008
339.334	993
339.562	1000
339.79	1012
340.018	992
340.246	989
340.474	1003
340.702	995
340.93	1005
341.158	1006
341.386	1003
341.614	976
341.842	949
342.07	970
342.298	963
342.526	1001
342.754	979
342.981	986
343.209	1009
343.437	1008
343.665	1035
343.893	1097
344.12	1084
344.348	1110
344.576	1059
344.804	1043
345.031	1012
345.259	1009
345.487	1020
345.714	992
345.942	961
346.17	1000
346.397	967
346.625	965
346.853	963
347.08	947
347.308	931
347.535	964
347.763	968
347.99	965
348.218	962
348.445	955
348.673	963
348.9	932
349.128	947
349.355	954
349.583	972
349.81	932
350.037	921
350.265	941
350.492	939
350.72	930
350.947	934
351.174	939
351.402	972
351.629	941
351.856	946
352.083	940
352.311	929
352.538	914
352.765	928
352.992	927
353.22	938
353.447	908
353.674	921
353.901	929
354.128	948
354.355	941
354.583	951
354.81	921
355.037	941
355.264	930
355.491	943
355.718	943
355.945	945
356.172	940
356.399	952
356.626	961
356.853	949
357.08	964
357.307	985
357.534	961
357.761	963
357.988	953
358.215	977
358.441	972
358.668	979
358.895	953
359.122	955
359.349	953
359.576	948
359.802	939
360.029	925
360.256	948
360.483	956
360.709	943
360.936	995
361.163	979
361.39	976
361.616	946
361.843	961
362.07	1011
362.296	930
362.523	954
362.749	957
362.976	924
363.203	970
363.429	967
363.656	985
363.882	960
364.109	918
364.335	955
364.562	974
364.788	968
365.015	959
365.241	970
365.468	952
365.694	963
365.92	950
366.147	957
366.373	967
366.599	981
366.826	969
367.052	975
367.278	979
367.505	975
367.731	975
367.957	1009
368.184	972
368.41	987
368.636	968
368.862	992
369.089	1014
369.315	1015
369.541	987
369.767	1009
369.993	995
370.219	980
370.445	1032
370.672	1027
370.898	999
371.124	1023
371.35	1044
371.576	1026
371.802	1059
372.028	1069
372.254	1073
372.48	1049
372.706	1054
372.932	1087
373.158	1039
373.384	1056
373.61	1113
373.835	1095
374.061	1052
374.287	1075
374.513	1101
374.739	1111
374.965	1157
375.191	1150
375.416	1118
375.642	1089
375.868	1125
376.094	1085
376.319	1118
376.545	1087
376.771	1061
376.997	1064
377.222	1016
377.448	1035
377.674	1071
377.899	1055
378.125	1053
378.35	1051
378.576	1033
378.802	1047
379.027	1032
379.253	1054
379.478	1058
379.704	1082
379.929	1025
380.155	1073
380.38	1050
380.606	1042
380.831	1047
381.057	1085
381.282	1080
381.507	1041
381.733	1086
381.958	1110
382.184	1089
382.409	1099
382.634	1105
382.86	1127
383.085	1108
383.31	1123
383.535	1125
383.761	1124
383.986	1124
384.211	1170
384.436	1124
384.662	1160
384.887	1178
385.112	1189
385.337	1227
385.562	1169
385.787	1205
386.013	1208
386.238	1242
386.463	1209
386.688	1208
386.913	1212
387.138	1242
387.363	1243
387.588	1235
387.813	1232
388.038	1222
388.263	1233
388.488	1229
388.713	1244
388.938	1259
389.163	1229
389.387	1244
389.612	1222
389.837	1247
390.062	1219
390.287	1254
390.512	1265
390.736	1250
390.961	1250
391.186	1287
391.411	1261
391.636	1300
391.86	1277
392.085	1344
392.31	1322
392.534	1331
392.759	1329
392.984	1331
393.208	1327
393.433	1317
393.658	1306
393.882	1316
394.107	1299
394.331	1287
394.556	1289
394.78	1317
395.005	1337
395.229	1331
395.454	1375
395.678	1357
395.903	1346
396.127	1349
396.352	1348
396.576	1337
396.801	1354
397.025	1347
397.249	1383
397.474	1387
397.698	1412
397.922	1403
398.147	1389
398.371	1455
398.595	1483
398.82	1514
399.044	1587
399.268	1624
399.492	1701
399.717	1794
399.941	1785
400.165	1746
400.389	1663
400.613	1627
400.837	1578
401.062	1523
401.286	1521
401.51	1532
401.734	1527
401.958	1537
402.182	1489
402.406	1477
402.63	1509
402.854	1529
403.078	1532
403.302	1527
403.526	1561
403.75	1530
403.974	1580
404.198	1574
404.422	1545
404.645	1562
404.869	1546
405.093	1559
405.317	1530
405.541	1537
405.765	1592
405.988	1542
406.212	1559
406.436	1585
406.66	1623
406.883	1631
407.107	1665
407.331	1744
407.555	1770
407.778	1739
408.002	1732
408.226	1738
408.449	1729
408.673	1682
408.896	1648
409.12	1647
409.344	1640
409.567	1614
409.791	1636
410.014	1598
410.238	1584
410.461	1595
410.685	1567
410.908	1580
411.132	1583
411.355	1506
411.578	1551
411.802	1538
412.025	1517
412.249	1595
412.472	1572
412.695	1525
412.919	1535
413.142	1530
413.365	1535
413.589	1562
413.812	1519
414.035	1490
414.258	1501
414.482	1499
414.705	1524
414.928	1526
415.151	1493
415.374	1480
415.597	1487
415.821	1477
416.044	1465
416.267	1450
416.49	1440
416.713	1472
416.936	1461
417.159	1441
417.382	1420
417.605	1429
417.828	1426
418.051	1467
418.274	1431
418.497	1419
418.72	1468
418.943	1450
419.166	1501
419.389	1614
419.611	1644
419.834	1558
420.057	1481
420.28	1448
420.503	1424
420.726	1400
420.948	1396
421.171	1424
421.394	1409
421.617	1431
421.839	1441
422.062	1426
422.285	1420
422.507	1460
422.73	1469
422.953	1431
423.175	1459
423.398	1447
423.621	1421
423.843	1434
424.066	1440
424.288	1423
424.511	1423
424.733	1439
424.956	1398
425.178	1470
425.401	1418
425.623	1432
425.846	1396
426.068	1405
426.291	1418
426.513	1395
426.735	1392
426.958	1397
427.18	1384
427.402	1392
427.625	1365
427.847	1338
428.069	1370
428.292	1385
428.514	1368
428.736	1371
428.958	1403
429.181	1333
429.403	1311
429.625	1361
429.847	1377
430.069	1347
430.292	1363
430.514	1353
430.736	1323
430.958	1363
431.18	1348
431.402	1335
431.624	1319
431.846	1361
432.068	1331
432.29	1387
432.512	1358
432.734	1403
432.956	1389
433.178	1380
433.4	1385
433.622	1391
433.844	1397
434.066	1363
434.287	1354
434.509	1417
434.731	1427
434.953	1473
435.175	1475
435.397	1457
435.618	1411
435.84	1397
436.062	1389
436.284	1383
436.505	1362
436.727	1315
436.949	1351
437.17	1354
437.392	1359
437.614	1327
437.835	1321
438.057	1327
438.278	1339
438.5	1358
438.721	1332
438.943	1349
439.165	1287
439.386	1318
439.608	1311
439.829	1377
440.05	1340
440.272	1357
440.493	1346
440.715	1345
440.936	1359
441.158	1417
441.379	1372
441.6	1419
441.822	1415
442.043	1439
442.264	1416
442.486	1391
442.707	1441
442.928	1392
443.149	1436
443.371	1409
443.592	1432
443.813	1462
444.034	1418
444.255	1452
444.476	1468
444.698	1506
444.919	1517
445.14	1585
445.361	1497
445.582	1436
445.803	1419
446.024	1397
446.245	1395
446.466	1383
446.687	1335
446.908	1355
447.129	1305
447.35	1298
447.571	1287
447.792	1306
448.013	1276
448.234	1256
448.455	1281
448.675	1291
448.896	1229
449.117	1260
449.338	1251
449.559	1235
449.779	1212
450	1219
450.221	1211
450.442	1249
450.662	1238
450.883	1236
451.104	1271
451.324	1211
451.545	1192
451.766	1212
451.986	1214
452.207	1231
452.428	1198
452.648	1220
452.869	1187
453.089	1199
453.31	1189
453.53	1199
453.751	1202
453.971	1201
454.192	1183
454.412	1185
454.633	1180
454.853	1219
455.073	1183
455.294	1171
455.514	1185
455.734	1209
455.955	1177
456.175	1171
456.395	1178
456.616	1205
456.836	1179
457.056	1185
457.276	1189
457.497	1208
457.717	1191
457.937	1225
458.157	1221
458.377	1239
458.598	1229
458.818	1275
459.038	1277
459.258	1271
459.478	1313
459.698	1345
459.918	1367
460.138	1403
460.358	1425
460.578	1413
460.798	1461
461.018	1502
461.238	1465
461.458	1482
461.678	1439
461.898	1506
462.118	1509
462.338	1525
462.558	1605
462.777	1631
462.997	1641
463.217	1703
463.437	1695
463.657	1671
463.876	1661
464.096	1630
464.316	1610
464.536	1584
464.755	1608
464.975	1570
465.195	1547
465.414	1482
465.634	1417
465.854	1408
466.073	1420
466.293	1373
466.512	1341
466.732	1329
466.951	1337
467.171	1338
467.391	1324
467.61	1315
467.829	1297
468.049	1343
468.268	1280
468.488	1284
468.707	1304
468.927	1365
469.146	1319
469.365	1312
469.585	1288
469.804	1330
470.023	1342
470.243	1347
470.462	1342
470.681	1322
470.901	1336
471.12	1362
471.339	1323
471.558	1354
471.777	1324
471.997	1338
472.216	1318
472.435	1321
472.654	1297
472.873	1279
473.092	1324
473.311	1324
473.53	1300
473.749	1317
473.968	1322
474.187	1335
474.406	1319
474.625	1341
474.844	1363
475.063	1326
475.282	1311
475.501	1350
475.72	1332
475.939	1357
476.158	1386
476.377	1404
476.596	1424
476.814	1474
477.033	1417
477.252	1404
477.471	1414
477.69	1455
477.908	1493
478.127	1545
478.346	1519
478.564	1527
478.783	1545
479.002	1566
479.22	1579
479.439	1617
479.658	1648
479.876	1619
480.095	1595
480.313	1632
480.532	1629
480.751	1636
480.969	1599
481.188	1601
481.406	1603
481.624	1581
481.843	1564
482.061	1593
482.28	1581
482.498	1524
482.717	1576
482.935	1597
483.153	1569
483.372	1563
483.59	1576
483.808	1568
484.027	1527
484.245	1555
484.463	1576
484.681	1574
484.9	1609
485.118	1593
485.336	1616
485.554	1554
485.772	1607
485.99	1610
486.209	1597
486.427	1603
486.645	1547
486.863	1608
487.081	1591
487.299	1599
487.517	1593
487.735	1582
487.953	1595
488.171	1609
488.389	1612
488.607	1573
488.825	1597
489.043	1571
489.261	1616
489.479	1606
489.696	1579
489.914	1622
490.132	1640
490.35	1624
490.568	1603
490.786	1626
491.003	1620
491.221	1631
491.439	1633
491.657	1622
491.874	1666
492.092	1657
492.31	1659
492.527	1651
492.745	1637
492.963	1628
493.18	1636
493.398	1667
493.615	1664
493.833	1662
494.05	1705
494.268	1649
494.485	1683
494.703	1659
494.92	1658
495.138	1709
495.355	1683
495.573	1681
495.79	1727
496.008	1730
496.225	1755
496.442	1715
496.66	1772
496.877	1791
497.094	1836
497.312	1841
497.529	1841
497.746	1892
497.963	1954
498.181	2009
498.398	2072
498.615	2150
498.832	2223
499.049	2260
499.267	2321
499.484	2452
499.701	2571
499.918	2725
500.135	2912
500.352	3043
500.569	3077
500.786	3078
501.003	2933
501.22	2801
501.437	2678
501.654	2521
501.871	2473
502.088	2359
502.305	2220
502.522	2183
502.739	2105
502.956	2009
503.172	2008
503.389	1947
503.606	1895
503.823	1869
504.04	1853
504.256	1808
504.473	1819
504.69	1793
504.907	1783
505.123	1742
505.34	1661
505.557	1661
505.773	1615
505.99	1553
506.207	1579
506.423	1532
506.64	1527
506.856	1516
507.073	1494
507.289	1491
507.506	1491
507.722	1479
507.939	1452
508.155	1449
508.372	1433
508.588	1394
508.805	1381
509.021	1429
509.238	1367
509.454	1382
509.67	1368
509.887	1379
510.103	1353
510.319	1330
510.536	1313
510.752	1331
510.968	1318
511.184	1292
511.401	1347
511.617	1321
511.833	1317
512.049	1343
512.265	1283
512.481	1331
512.698	1313
512.914	1335
513.13	1316
513.346	1328
513.562	1295
513.778	1311
513.994	1320
514.21	1331
514.426	1349
514.642	1331
514.858	1322
515.074	1315
515.29	1365
515.506	1350
515.721	1353
515.937	1423
516.153	1365
516.369	1424
516.585	1422
516.801	1440
517.016	1500
517.232	1491
517.448	1553
517.664	1559
517.879	1531
518.095	1522
518.311	1540
518.527	1538
518.742	1473
518.958	1453
519.173	1408
519.389	1384
519.605	1387
519.82	1382
520.036	1421
520.251	1363
520.467	1307
520.682	1308
520.898	1288
521.113	1301
521.329	1270
521.544	1269
521.76	1273
521.975	1273
522.19	1245
522.406	1217
522.621	1256
522.836	1249
523.052	1250
523.267	1217
523.482	1223
523.698	1222
523.913	1170
524.128	1208
524.343	1190
524.559	1186
524.774	1184
524.989	1186
525.204	1182
525.419	1229
525.634	1180
525.849	1205
526.064	1186
526.28	1183
526.495	1192
526.71	1173
526.925	1173
527.14	1169
527.355	1152
527.57	1179
527.785	1141
527.999	1143
528.214	1148
528.429	1122
528.644	1129
528.859	1132
529.074	1141
529.289	1139
529.503	1137
529.718	1141
529.933	1118
530.148	1115
530.363	1110
530.577	1109
530.792	1106
531.007	1117
531.221	1135
531.436	1104
531.651	1128
531.865	1119
532.08	1115
532.295	1122
532.509	1111
532.724	1120
532.938	1096
533.153	1094
533.367	1119
533.582	1110
533.796	1143
534.011	1093
534.225	1105
534.44	1069
534.654	1082
534.868	1112
535.083	1079
535.297	1079
535.511	1103
535.726	1079
535.94	1090
536.154	1073
536.369	1079
536.583	1085
536.797	1059
537.011	1066
537.225	1043
537.44	1073
537.654	1080
537.868	1027
538.082	1043
538.296	1040
538.51	1037
538.724	1037
538.938	1046
539.153	1029
539.367	1049
539.581	1036
539.795	1013
540.009	1003
540.222	1029
540.436	999
540.65	1033
540.864	1016
541.078	1020
541.292	1037
541.506	1032
541.72	1062
541.934	1010
542.147	1023
542.361	1024
542.575	998
542.789	995
543.002	1021
543.216	1001
543.43	1006
543.644	1011
543.857	1005
544.071	1035
544.285	1024
544.498	975
544.712	1030
544.925	1031
545.139	998
545.352	1024
545.566	1024
545.779	1038
545.993	1018
546.206	1041
546.42	993
546.633	1015
546.847	999
547.06	1014
547.274	1002
547.487	1022
547.7	1019
547.914	1077
548.127	1015
548.34	1013
548.554	992
548.767	1016
548.98	1033
549.193	1019
549.407	1032
549.62	1043
549.833	1033
550.046	1038
550.259	1031
550.473	1003
550.686	1016
550.899	1013
551.112	1007
551.325	1008
551.538	1011
551.751	1018
551.964	984
552.177	1026
552.39	1007
552.603	1001
552.816	1027
553.029	1037
553.242	1041
553.455	1026
553.667	1026
553.88	1005
554.093	985
554.306	1002
554.519	985
554.732	946
554.944	975
555.157	956
555.37	957
555.583	919
555.795	947
556.008	922
556.221	901
556.433	899
556.646	905
556.859	875
557.071	911
557.284	876
557.496	845
557.709	869
557.921	870
558.134	860
558.346	870
558.559	852
558.771	856
558.984	859
559.196	871
559.409	868
559.621	853
559.833	881
560.046	850
560.258	863
560.47	834
560.683	854
560.895	856
561.107	840
561.32	839
561.532	843
561.744	836
561.956	845
562.168	844
562.381	877
562.593	815
562.805	844
563.017	874
563.229	852
563.441	864
563.653	861
563.865	862
564.077	868
564.289	888
564.501	899
564.713	907
564.925	917
565.137	936
565.349	941
565.561	943
565.773	963
565.985	974
566.197	1002
566.408	1044
566.62	1077
566.832	1099
567.044	1128
567.255	1123
567.467	1121
567.679	1167
567.891	1164
568.102	1161
568.314	1135
568.526	1074
568.737	1032
568.949	1008
569.161	980
569.372	915
569.584	910
569.795	882
570.007	877
570.218	838
570.43	846
570.641	828
570.853	823
571.064	804
571.276	821
571.487	776
571.698	776
571.91	755
572.121	753
572.333	737
572.544	723
572.755	728
572.966	725
573.178	732
573.389	705
573.6	701
573.811	701
574.023	680
574.234	682
574.445	709
574.656	688
574.867	663
575.078	685
575.289	681
575.501	672
575.712	665
575.923	649
576.134	647
576.345	653
576.556	689
576.767	654
576.978	655
577.188	639
577.399	637
577.61	600
577.821	638
578.032	645
578.243	616
578.454	616
578.665	644
578.875	625
579.086	633
579.297	609
579.508	635
579.718	589
579.929	604
580.14	599
580.35	590
580.561	581
580.772	575
580.982	616
581.193	602
581.403	596
581.614	618
581.825	571
582.035	586
582.246	568
582.456	586
582.667	591
582.877	575
583.087	597
583.298	578
583.508	562
583.719	584
583.929	569
584.139	557
584.35	566
584.56	574
584.77	570
584.981	574
585.191	583
585.401	569
585.611	557
585.821	547
586.032	540
586.242	552
586.452	544
586.662	564
586.872	546
587.082	563
587.292	551
587.502	556
587.713	550
587.923	563
588.133	554
588.343	559
588.553	564
588.762	546
588.972	563
589.182	593
589.392	550
589.602	540
589.812	585
590.022	577
590.232	561
590.441	551
590.651	543
590.861	552
591.071	562
591.281	553
591.49	569
591.7	593
591.91	546
592.119	550
592.329	584
592.539	595
592.748	589
592.958	570
593.167	595
593.377	572
593.587	599
593.796	585
594.006	573
594.215	590
594.424	595
594.634	602
594.843	568
595.053	562
595.262	561
595.472	553
595.681	552
595.89	536
596.1	512
596.309	510
596.518	503
596.727	515
596.937	533
597.146	510
597.355	516
597.564	472
597.774	470
597.983	485
598.192	485
598.401	510
598.61	480
598.819	476
599.028	492
599.237	491
599.446	472
599.655	461
599.864	466
600.073	470
600.282	459
600.491	469
600.7	452
600.909	435
601.118	449
601.327	441
601.536	474
601.745	447
601.953	468
602.162	451
602.371	442
602.58	431
602.789	448
602.997	452
603.206	447
603.415	437
603.623	446
603.832	452
604.041	437
604.249	409
604.458	425
604.666	421
604.875	406
605.084	410
605.292	410
605.501	419
605.709	429
605.918	406
606.126	433
606.334	415
606.543	420
606.751	426
606.96	426
607.168	405
607.376	405
607.585	416
607.793	406
608.001	409
608.21	424
608.418	417
608.626	419
608.834	404
609.043	395
609.251	410
609.459	405
609.667	418
609.875	398
610.083	392
610.291	410
610.499	414
610.707	400
610.916	401
611.124	393
611.332	387
611.54	384
611.748	411
611.955	389
612.163	398
612.371	391
612.579	375
612.787	394
612.995	385
613.203	419
613.411	386
613.618	383
613.826	388
614.034	398
614.242	388
614.449	396
614.657	372
614.865	377
615.072	376
615.28	380
615.488	391
615.695	379
615.903	387
616.111	383
616.318	383
616.526	393
616.733	386
616.941	389
617.148	388
617.356	395
617.563	386
617.771	369
617.978	393
618.185	382
618.393	384
618.6	377
618.807	360
619.015	373
619.222	383
619.429	371
619.637	371
619.844	370
620.051	375
620.258	343
620.466	358
620.673	344
620.88	338
621.087	363
621.294	345
621.501	359
621.708	354
621.915	359
622.122	336
622.329	364
622.536	362
622.743	354
622.95	344
623.157	353
623.364	351
623.571	364
623.778	357
623.985	356
624.192	344
624.399	367
624.606	355
624.812	336
625.019	345
625.226	330
625.433	342
625.639	343
625.846	335
626.053	334
626.259	341
626.466	330
626.673	317
626.879	331
627.086	323
627.293	325
627.499	339
627.706	336
627.912	309
628.119	343
628.325	313
628.532	333
628.738	317
628.945	335
629.151	303
629.357	318
629.564	321
629.77	324
629.976	314
630.183	320
630.389	323
630.595	319
630.802	323
631.008	320
631.214	321
631.42	298
631.627	311
631.833	307
632.039	315
632.245	309
632.451	287
632.657	312
632.863	309
633.069	307
633.275	299
633.481	301
633.688	312
633.893	300
634.099	287
634.305	314
634.511	295
634.717	305
634.923	313
635.129	297
635.335	294
635.541	298
635.747	278
635.952	282
636.158	314
636.364	298
636.57	311
636.775	300
636.981	298
637.187	287
637.392	278
637.598	280
637.804	293
638.009	276
638.215	280
638.421	293
638.626	300
638.832	292
639.037	296
639.243	293
639.448	276
639.654	300
639.859	271
640.065	269
640.27	294
640.475	305
640.681	269
640.886	289
641.091	281
641.297	298
641.502	253
641.707	276
641.913	297
642.118	291
642.323	279
642.528	293
642.733	285
642.939	268
643.144	300
643.349	285
643.554	295
643.759	293
643.964	283
644.169	259
644.374	270
644.579	269
644.784	274
644.989	290
645.194	297
645.399	286
645.604	273
645.809	293
646.014	297
646.219	289
646.423	263
646.628	257
646.833	281
647.038	291
647.243	285
647.447	303
647.652	284
647.857	298
648.062	295
648.266	277
648.471	307
648.676	306
648.88	295
649.085	297
649.289	290
649.494	305
649.698	283
649.903	292
650.107	287
650.312	277
650.516	289
650.721	275
650.925	284
651.13	276
651.334	270
651.539	273
651.743	278
651.947	283
652.152	273
652.356	268
652.56	273
652.764	263
652.969	267
653.173	262
653.377	278
653.581	268
653.785	242
653.99	260
654.194	264
654.398	273
654.602	251
654.806	263
655.01	248
655.214	264
655.418	268
655.622	246
655.826	269
656.03	245
656.234	257
656.438	249
656.642	263
656.846	248
657.049	235
657.253	229
657.457	216
657.661	186
657.865	211
658.068	182
658.272	179
658.476	181
658.68	169
658.883	163
659.087	151
659.291	148
659.494	149
659.698	136
659.901	145
660.105	135
660.309	134
660.512	119
660.716	118
660.919	126
661.123	116
661.326	115
661.53	120
661.733	106
661.936	89
662.14	99
662.343	98
662.546	91
662.75	99
662.953	90
663.156	92
663.36	106
663.563	92
663.766	84
663.969	96
664.173	92
664.376	85
664.579	84
664.782	92
664.985	85
665.188	83
665.391	79
665.594	90
665.797	86
666	73
666.203	64
666.406	80
666.609	85
666.812	79
667.015	93
667.218	76
667.421	85
667.624	76
667.827	77
668.03	76
668.232	81
668.435	81
668.638	71
668.841	101
669.043	95
669.246	77
669.449	89
669.651	82
669.854	92
670.057	76
670.259	73
670.462	76
670.665	83
670.867	84
671.07	80
671.272	84
671.475	86
671.677	78
671.88	89
672.082	84
672.284	96
672.487	83
672.689	92
672.892	85
