Data from Fe(NO3)3@0.1M.TitratingCurve.Agarose3%dH2O.NegLispCup.LampEnergy10.LIBS07252019_HRD10591_16-41-59-333.txt Node
Date: Thu Jul 25 16:41:59 EDT 2019
User: cochatt
Spectrometer: HR+D1059
Trigger mode: 1
Integration Time (sec): 1.000000E-1
Scans to average: 1
Electric dark correction enabled: true
Nonlinearity correction enabled: false
Boxcar width: 0
XAxis mode: Wavelengths
Number of Pixels in Spectrum: 2048
>>>>>Begin Spectral Data<<<<<
223.165	-22.81
223.4	-22.81
223.635	-22.81
223.869	-20.81
224.104	-23.81
224.338	-20.81
224.573	-4.81
224.808	-3.81
225.042	3.19
225.277	-4.81
225.511	-6.81
225.746	-0.81
225.98	6.19
226.215	7.19
226.449	23.19
226.683	23.19
226.918	13.19
227.152	33.19
227.387	32.19
227.621	44.19
227.856	45.19
228.09	55.19
228.324	42.19
228.559	53.19
228.793	57.19
229.027	91.19
229.262	76.19
229.496	79.19
229.73	71.19
229.964	77.19
230.199	75.19
230.433	79.19
230.667	90.19
230.901	88.19
231.136	89.19
231.37	79.19
231.604	86.19
231.838	88.19
232.072	83.19
232.306	106.19
232.541	106.19
232.775	98.19
233.009	108.19
233.243	80.19
233.477	97.19
233.711	93.19
233.945	88.19
234.179	83.19
234.413	91.19
234.647	98.19
234.881	92.19
235.115	95.19
235.349	85.19
235.583	96.19
235.817	99.19
236.051	81.19
236.285	97.19
236.519	94.19
236.753	99.19
236.987	91.19
237.221	100.19
237.455	88.19
237.689	96.19
237.922	95.19
238.156	84.19
238.39	88.19
238.624	97.19
238.858	106.19
239.091	115.19
239.325	88.19
239.559	87.19
239.793	77.19
240.027	108.19
240.26	96.19
240.494	97.19
240.728	96.19
240.961	93.19
241.195	97.19
241.429	96.19
241.662	104.19
241.896	84.19
242.13	104.19
242.363	97.19
242.597	96.19
242.83	94.19
243.064	92.19
243.298	112.19
243.531	112.19
243.765	91.19
243.998	90.19
244.232	99.19
244.465	86.19
244.699	79.19
244.932	89.19
245.166	84.19
245.399	89.19
245.633	93.19
245.866	113.19
246.099	87.19
246.333	102.19
246.566	100.19
246.8	101.19
247.033	102.19
247.266	101.19
247.5	118.19
247.733	117.19
247.966	107.19
248.2	87.19
248.433	104.19
248.666	94.19
248.899	106.19
249.133	109.19
249.366	118.19
249.599	109.19
249.832	99.19
250.066	110.19
250.299	89.19
250.532	99.19
250.765	107.19
250.998	111.19
251.231	101.19
251.465	116.19
251.698	117.19
251.931	96.19
252.164	87.19
252.397	115.19
252.63	108.19
252.863	97.19
253.096	98.19
253.329	114.19
253.562	103.19
253.795	95.19
254.028	105.19
254.261	112.19
254.494	104.19
254.727	109.19
254.96	107.19
255.193	133.19
255.426	102.19
255.659	99.19
255.892	109.19
256.124	114.19
256.357	120.19
256.59	110.19
256.823	108.19
257.056	105.19
257.289	123.19
257.521	115.19
257.754	102.19
257.987	107.19
258.22	113.19
258.452	125.19
258.685	118.19
258.918	114.19
259.151	131.19
259.383	125.19
259.616	118.19
259.849	117.19
260.081	118.19
260.314	108.19
260.547	100.19
260.779	118.19
261.012	107.19
261.244	113.19
261.477	116.19
261.71	121.19
261.942	128.19
262.175	119.19
262.407	110.19
262.64	104.19
262.872	127.19
263.105	113.19
263.337	129.19
263.57	115.19
263.802	109.19
264.035	116.19
264.267	123.19
264.499	118.19
264.732	123.19
264.964	111.19
265.197	127.19
265.429	139.19
265.661	131.19
265.894	122.19
266.126	112.19
266.358	118.19
266.591	133.19
266.823	124.19
267.055	122.19
267.287	118.19
267.52	124.19
267.752	112.19
267.984	131.19
268.216	129.19
268.448	127.19
268.681	115.19
268.913	127.19
269.145	121.19
269.377	121.19
269.609	120.19
269.841	142.19
270.073	118.19
270.306	141.19
270.538	140.19
270.77	124.19
271.002	125.19
271.234	136.19
271.466	142.19
271.698	151.19
271.93	118.19
272.162	123.19
272.394	139.19
272.626	129.19
272.858	134.19
273.09	135.19
273.322	137.19
273.553	134.19
273.785	134.19
274.017	136.19
274.249	147.19
274.481	127.19
274.713	137.19
274.945	134.19
275.176	133.19
275.408	133.19
275.64	129.19
275.872	128.19
276.104	132.19
276.335	127.19
276.567	122.19
276.799	148.19
277.031	131.19
277.262	132.19
277.494	136.19
277.726	133.19
277.957	127.19
278.189	137.19
278.421	139.19
278.652	139.19
278.884	148.19
279.115	122.19
279.347	129.19
279.579	137.19
279.81	133.19
280.042	132.19
280.273	142.19
280.505	133.19
280.736	137.19
280.968	156.19
281.199	139.19
281.431	156.19
281.662	152.19
281.894	131.19
282.125	139.19
282.356	139.19
282.588	151.19
282.819	142.19
283.051	140.19
283.282	154.19
283.513	152.19
283.745	167.19
283.976	142.19
284.207	135.19
284.439	149.19
284.67	143.19
284.901	154.19
285.132	138.19
285.364	160.19
285.595	159.19
285.826	167.19
286.057	162.19
286.288	140.19
286.52	144.19
286.751	152.19
286.982	163.19
287.213	168.19
287.444	156.19
287.675	146.19
287.906	150.19
288.138	140.19
288.369	143.19
288.6	150.19
288.831	168.19
289.062	163.19
289.293	153.19
289.524	145.19
289.755	151.19
289.986	153.19
290.217	163.19
290.448	157.19
290.679	154.19
290.91	146.19
291.141	140.19
291.371	152.19
291.602	153.19
291.833	143.19
292.064	152.19
292.295	151.19
292.526	143.19
292.757	152.19
292.987	141.19
293.218	147.19
293.449	149.19
293.68	150.19
293.91	155.19
294.141	158.19
294.372	159.19
294.603	152.19
294.833	165.19
295.064	153.19
295.295	156.19
295.525	165.19
295.756	153.19
295.987	147.19
296.217	157.19
296.448	161.19
296.679	172.19
296.909	165.19
297.14	177.19
297.37	150.19
297.601	158.19
297.831	174.19
298.062	180.19
298.292	164.19
298.523	168.19
298.753	163.19
298.984	159.19
299.214	170.19
299.445	163.19
299.675	156.19
299.905	169.19
300.136	176.19
300.366	171.19
300.597	176.19
300.827	159.19
301.057	157.19
301.288	183.19
301.518	175.19
301.748	161.19
301.979	170.19
302.209	183.19
302.439	185.19
302.669	172.19
302.9	183.19
303.13	151.19
303.36	163.19
303.59	164.19
303.82	163.19
304.051	163.19
304.281	198.19
304.511	172.19
304.741	178.19
304.971	176.19
305.201	172.19
305.431	190.19
305.661	155.19
305.891	163.19
306.121	163.19
306.352	181.19
306.582	185.19
306.812	173.19
307.042	171.19
307.272	156.19
307.502	182.19
307.731	171.19
307.961	177.19
308.191	169.19
308.421	173.19
308.651	168.19
308.881	188.19
309.111	181.19
309.341	179.19
309.571	182.19
309.8	172.19
310.03	168.19
310.26	172.19
310.49	161.19
310.72	168.19
310.949	170.19
311.179	191.19
311.409	169.19
311.639	172.19
311.868	182.19
312.098	188.19
312.328	188.19
312.557	186.19
312.787	168.19
313.017	182.19
313.246	190.19
313.476	166.19
313.706	180.19
313.935	197.19
314.165	175.19
314.394	179.19
314.624	181.19
314.853	203.19
315.083	201.19
315.312	171.19
315.542	183.19
315.771	178.19
316.001	183.19
316.23	192.19
316.46	177.19
316.689	186.19
316.919	189.19
317.148	171.19
317.377	170.19
317.607	185.19
317.836	186.19
318.065	190.19
318.295	192.19
318.524	189.19
318.753	187.19
318.983	191.19
319.212	188.19
319.441	177.19
319.67	193.19
319.9	188.19
320.129	179.19
320.358	185.19
320.587	185.19
320.816	197.19
321.046	192.19
321.275	199.19
321.504	171.19
321.733	197.19
321.962	183.19
322.191	183.19
322.42	189.19
322.649	204.19
322.878	179.19
323.108	187.19
323.337	193.19
323.566	203.19
323.795	175.19
324.024	195.19
324.253	199.19
324.482	188.19
324.71	197.19
324.939	214.19
325.168	189.19
325.397	175.19
325.626	192.19
325.855	184.19
326.084	197.19
326.313	191.19
326.542	187.19
326.77	193.19
326.999	204.19
327.228	187.19
327.457	203.19
327.686	211.19
327.914	203.19
328.143	195.19
328.372	196.19
328.6	201.19
328.829	197.19
329.058	191.19
329.287	201.19
329.515	202.19
329.744	199.19
329.972	205.19
330.201	216.19
330.43	192.19
330.658	206.19
330.887	208.19
331.115	211.19
331.344	215.19
331.572	206.19
331.801	204.19
332.03	211.19
332.258	217.19
332.486	214.19
332.715	217.19
332.943	224.19
333.172	210.19
333.4	235.19
333.629	231.19
333.857	234.19
334.085	249.19
334.314	238.19
334.542	219.19
334.771	258.19
334.999	236.19
335.227	235.19
335.455	224.19
335.684	235.19
335.912	228.19
336.14	239.19
336.369	223.19
336.597	212.19
336.825	225.19
337.053	224.19
337.281	222.19
337.51	223.19
337.738	222.19
337.966	219.19
338.194	223.19
338.422	221.19
338.65	244.19
338.878	231.19
339.106	215.19
339.334	188.19
339.562	225.19
339.79	207.19
340.018	202.19
340.246	212.19
340.474	212.19
340.702	199.19
340.93	215.19
341.158	221.19
341.386	211.19
341.614	218.19
341.842	206.19
342.07	206.19
342.298	215.19
342.526	207.19
342.754	204.19
342.981	213.19
343.209	238.19
343.437	247.19
343.665	229.19
343.893	234.19
344.12	238.19
344.348	224.19
344.576	213.19
344.804	206.19
345.031	199.19
345.259	196.19
345.487	215.19
345.714	209.19
345.942	210.19
346.17	199.19
346.397	214.19
346.625	208.19
346.853	214.19
347.08	211.19
347.308	202.19
347.535	202.19
347.763	201.19
347.99	217.19
348.218	185.19
348.445	196.19
348.673	203.19
348.9	203.19
349.128	204.19
349.355	200.19
349.583	201.19
349.81	207.19
350.037	184.19
350.265	199.19
350.492	200.19
350.72	222.19
350.947	222.19
351.174	196.19
351.402	209.19
351.629	196.19
351.856	188.19
352.083	213.19
352.311	216.19
352.538	198.19
352.765	203.19
352.992	215.19
353.22	198.19
353.447	195.19
353.674	200.19
353.901	217.19
354.128	213.19
354.355	196.19
354.583	203.19
354.81	202.19
355.037	211.19
355.264	229.19
355.491	220.19
355.718	204.19
355.945	192.19
356.172	196.19
356.399	217.19
356.626	194.19
356.853	203.19
357.08	197.19
357.307	199.19
357.534	217.19
357.761	197.19
357.988	199.19
358.215	205.19
358.441	209.19
358.668	213.19
358.895	200.19
359.122	208.19
359.349	208.19
359.576	214.19
359.802	227.19
360.029	208.19
360.256	200.19
360.483	201.19
360.709	208.19
360.936	209.19
361.163	213.19
361.39	207.19
361.616	195.19
361.843	209.19
362.07	219.19
362.296	222.19
362.523	204.19
362.749	211.19
362.976	206.19
363.203	214.19
363.429	229.19
363.656	203.19
363.882	191.19
364.109	207.19
364.335	211.19
364.562	209.19
364.788	193.19
365.015	205.19
365.241	212.19
365.468	205.19
365.694	214.19
365.92	204.19
366.147	202.19
366.373	227.19
366.599	213.19
366.826	205.19
367.052	213.19
367.278	217.19
367.505	212.19
367.731	195.19
367.957	212.19
368.184	206.19
368.41	206.19
368.636	215.19
368.862	210.19
369.089	191.19
369.315	206.19
369.541	204.19
369.767	203.19
369.993	220.19
370.219	219.19
370.445	220.19
370.672	212.19
370.898	208.19
371.124	222.19
371.35	220.19
371.576	237.19
371.802	214.19
372.028	227.19
372.254	223.19
372.48	212.19
372.706	223.19
372.932	230.19
373.158	221.19
373.384	220.19
373.61	220.19
373.835	217.19
374.061	200.19
374.287	203.19
374.513	233.19
374.739	228.19
374.965	252.19
375.191	247.19
375.416	234.19
375.642	229.19
375.868	237.19
376.094	218.19
376.319	232.19
376.545	220.19
376.771	220.19
376.997	223.19
377.222	229.19
377.448	213.19
377.674	235.19
377.899	227.19
378.125	220.19
378.35	231.19
378.576	219.19
378.802	218.19
379.027	225.19
379.253	233.19
379.478	216.19
379.704	205.19
379.929	219.19
380.155	220.19
380.38	243.19
380.606	227.19
380.831	234.19
381.057	241.19
381.282	221.19
381.507	233.19
381.733	233.19
381.958	247.19
382.184	242.19
382.409	226.19
382.634	230.19
382.86	244.19
383.085	241.19
383.31	231.19
383.535	227.19
383.761	249.19
383.986	234.19
384.211	230.19
384.436	225.19
384.662	226.19
384.887	271.19
385.112	257.19
385.337	252.19
385.562	260.19
385.787	270.19
386.013	251.19
386.238	265.19
386.463	254.19
386.688	246.19
386.913	248.19
387.138	259.19
387.363	265.19
387.588	235.19
387.813	248.19
388.038	259.19
388.263	261.19
388.488	254.19
388.713	243.19
388.938	250.19
389.163	236.19
389.387	248.19
389.612	233.19
389.837	236.19
390.062	248.19
390.287	261.19
390.512	281.19
390.736	270.19
390.961	248.19
391.186	261.19
391.411	272.19
391.636	276.19
391.86	265.19
392.085	292.19
392.31	284.19
392.534	283.19
392.759	257.19
392.984	269.19
393.208	270.19
393.433	273.19
393.658	255.19
393.882	254.19
394.107	266.19
394.331	267.19
394.556	269.19
394.78	265.19
395.005	277.19
395.229	269.19
395.454	293.19
395.678	256.19
395.903	273.19
396.127	281.19
396.352	281.19
396.576	273.19
396.801	285.19
397.025	271.19
397.249	273.19
397.474	298.19
397.698	286.19
397.922	288.19
398.147	278.19
398.371	283.19
398.595	308.19
398.82	298.19
399.044	328.19
399.268	347.19
399.492	391.19
399.717	423.19
399.941	420.19
400.165	377.19
400.389	341.19
400.613	348.19
400.837	313.19
401.062	311.19
401.286	301.19
401.51	309.19
401.734	292.19
401.958	323.19
402.182	313.19
402.406	309.19
402.63	288.19
402.854	303.19
403.078	332.19
403.302	342.19
403.526	334.19
403.75	337.19
403.974	318.19
404.198	320.19
404.422	350.19
404.645	347.19
404.869	309.19
405.093	320.19
405.317	335.19
405.541	335.19
405.765	320.19
405.988	319.19
406.212	324.19
406.436	328.19
406.66	336.19
406.883	342.19
407.107	346.19
407.331	366.19
407.555	361.19
407.778	356.19
408.002	345.19
408.226	353.19
408.449	340.19
408.673	351.19
408.896	339.19
409.12	329.19
409.344	325.19
409.567	334.19
409.791	344.19
410.014	335.19
410.238	336.19
410.461	339.19
410.685	332.19
410.908	329.19
411.132	334.19
411.355	319.19
411.578	305.19
411.802	338.19
412.025	308.19
412.249	285.19
412.472	301.19
412.695	298.19
412.919	317.19
413.142	322.19
413.365	311.19
413.589	316.19
413.812	298.19
414.035	311.19
414.258	309.19
414.482	323.19
414.705	319.19
414.928	316.19
415.151	319.19
415.374	312.19
415.597	315.19
415.821	321.19
416.044	308.19
416.267	307.19
416.49	311.19
416.713	295.19
416.936	304.19
417.159	304.19
417.382	307.19
417.605	307.19
417.828	317.19
418.051	315.19
418.274	310.19
418.497	325.19
418.72	315.19
418.943	323.19
419.166	322.19
419.389	331.19
419.611	334.19
419.834	319.19
420.057	331.19
420.28	324.19
420.503	295.19
420.726	318.19
420.948	290.19
421.171	313.19
421.394	311.19
421.617	310.19
421.839	329.19
422.062	323.19
422.285	316.19
422.507	325.19
422.73	316.19
422.953	314.19
423.175	323.19
423.398	315.19
423.621	330.19
423.843	328.19
424.066	317.19
424.288	316.19
424.511	308.19
424.733	316.19
424.956	297.19
425.178	329.19
425.401	324.19
425.623	308.19
425.846	300.19
426.068	281.19
426.291	295.19
426.513	315.19
426.735	314.19
426.958	281.19
427.18	296.19
427.402	285.19
427.625	286.19
427.847	286.19
428.069	297.19
428.292	287.19
428.514	291.19
428.736	272.19
428.958	273.19
429.181	287.19
429.403	291.19
429.625	296.19
429.847	300.19
430.069	286.19
430.292	302.19
430.514	280.19
430.736	300.19
430.958	299.19
431.18	297.19
431.402	286.19
431.624	291.19
431.846	291.19
432.068	271.19
432.29	282.19
432.512	276.19
432.734	278.19
432.956	289.19
433.178	297.19
433.4	307.19
433.622	279.19
433.844	294.19
434.066	302.19
434.287	296.19
434.509	288.19
434.731	322.19
434.953	302.19
435.175	308.19
435.397	300.19
435.618	313.19
435.84	311.19
436.062	277.19
436.284	282.19
436.505	273.19
436.727	283.19
436.949	292.19
437.17	287.19
437.392	302.19
437.614	276.19
437.835	286.19
438.057	290.19
438.278	286.19
438.5	307.19
438.721	309.19
438.943	304.19
439.165	302.19
439.386	301.19
439.608	312.19
439.829	296.19
440.05	299.19
440.272	285.19
440.493	311.19
440.715	309.19
440.936	306.19
441.158	317.19
441.379	328.19
441.6	320.19
441.822	324.19
442.043	335.19
442.264	314.19
442.486	329.19
442.707	342.19
442.928	322.19
443.149	331.19
443.371	340.19
443.592	321.19
443.813	337.19
444.034	337.19
444.255	343.19
444.476	360.19
444.698	364.19
444.919	370.19
445.14	421.19
445.361	393.19
445.582	347.19
445.803	323.19
446.024	311.19
446.245	325.19
446.466	324.19
446.687	324.19
446.908	303.19
447.129	296.19
447.35	298.19
447.571	298.19
447.792	295.19
448.013	293.19
448.234	297.19
448.455	283.19
448.675	290.19
448.896	275.19
449.117	267.19
449.338	310.19
449.559	273.19
449.779	291.19
450	283.19
450.221	285.19
450.442	283.19
450.662	284.19
450.883	311.19
451.104	279.19
451.324	288.19
451.545	289.19
451.766	264.19
451.986	281.19
452.207	281.19
452.428	285.19
452.648	283.19
452.869	286.19
453.089	284.19
453.31	271.19
453.53	259.19
453.751	272.19
453.971	271.19
454.192	256.19
454.412	270.19
454.633	287.19
454.853	271.19
455.073	274.19
455.294	268.19
455.514	259.19
455.734	249.19
455.955	271.19
456.175	263.19
456.395	257.19
456.616	292.19
456.836	273.19
457.056	267.19
457.276	255.19
457.497	267.19
457.717	251.19
457.937	264.19
458.157	279.19
458.377	270.19
458.598	281.19
458.818	282.19
459.038	276.19
459.258	296.19
459.478	281.19
459.698	300.19
459.918	314.19
460.138	342.19
460.358	328.19
460.578	317.19
460.798	335.19
461.018	336.19
461.238	344.19
461.458	344.19
461.678	313.19
461.898	334.19
462.118	349.19
462.338	352.19
462.558	359.19
462.777	375.19
462.997	384.19
463.217	401.19
463.437	407.19
463.657	371.19
463.876	380.19
464.096	383.19
464.316	379.19
464.536	362.19
464.755	343.19
464.975	356.19
465.195	342.19
465.414	319.19
465.634	309.19
465.854	293.19
466.073	311.19
466.293	307.19
466.512	296.19
466.732	304.19
466.951	295.19
467.171	284.19
467.391	291.19
467.61	272.19
467.829	294.19
468.049	285.19
468.268	278.19
468.488	279.19
468.707	283.19
468.927	273.19
469.146	285.19
469.365	282.19
469.585	287.19
469.804	307.19
470.023	281.19
470.243	292.19
470.462	306.19
470.681	301.19
470.901	309.19
471.12	303.19
471.339	293.19
471.558	308.19
471.777	292.19
471.997	281.19
472.216	294.19
472.435	271.19
472.654	263.19
472.873	279.19
473.092	281.19
473.311	295.19
473.53	263.19
473.749	251.19
473.968	280.19
474.187	275.19
474.406	272.19
474.625	273.19
474.844	280.19
475.063	285.19
475.282	285.19
475.501	267.19
475.72	279.19
475.939	262.19
476.158	286.19
476.377	294.19
476.596	274.19
476.814	285.19
477.033	302.19
477.252	277.19
477.471	292.19
477.69	307.19
477.908	298.19
478.127	317.19
478.346	323.19
478.564	308.19
478.783	331.19
479.002	320.19
479.22	347.19
479.439	317.19
479.658	335.19
479.876	315.19
480.095	317.19
480.313	337.19
480.532	327.19
480.751	320.19
480.969	309.19
481.188	303.19
481.406	324.19
481.624	303.19
481.843	303.19
482.061	286.19
482.28	319.19
482.498	309.19
482.717	307.19
482.935	283.19
483.153	310.19
483.372	302.19
483.59	300.19
483.808	295.19
484.027	298.19
484.245	320.19
484.463	296.19
484.681	305.19
484.9	297.19
485.118	300.19
485.336	320.19
485.554	304.19
485.772	308.19
485.99	303.19
486.209	307.19
486.427	314.19
486.645	316.19
486.863	307.19
487.081	313.19
487.299	300.19
487.517	298.19
487.735	304.19
487.953	327.19
488.171	338.19
488.389	318.19
488.607	305.19
488.825	299.19
489.043	302.19
489.261	315.19
489.479	296.19
489.696	329.19
489.914	320.19
490.132	300.19
490.35	325.19
490.568	307.19
490.786	318.19
491.003	326.19
491.221	305.19
491.439	317.19
491.657	326.19
491.874	331.19
492.092	337.19
492.31	323.19
492.527	323.19
492.745	329.19
492.963	344.19
493.18	346.19
493.398	345.19
493.615	341.19
493.833	342.19
494.05	329.19
494.268	331.19
494.485	359.19
494.703	351.19
494.92	337.19
495.138	336.19
495.355	331.19
495.573	310.19
495.79	328.19
496.008	339.19
496.225	330.19
496.442	338.19
496.66	338.19
496.877	348.19
497.094	352.19
497.312	353.19
497.529	359.19
497.746	366.19
497.963	372.19
498.181	375.19
498.398	389.19
498.615	400.19
498.832	438.19
499.049	462.19
499.267	515.19
499.484	504.19
499.701	559.19
499.918	617.19
500.135	678.19
500.352	712.19
500.569	742.19
500.786	705.19
501.003	677.19
501.22	599.19
501.437	553.19
501.654	526.19
501.871	492.19
502.088	452.19
502.305	419.19
502.522	419.19
502.739	408.19
502.956	396.19
503.172	383.19
503.389	362.19
503.606	362.19
503.823	339.19
504.04	360.19
504.256	357.19
504.473	345.19
504.69	362.19
504.907	361.19
505.123	345.19
505.34	338.19
505.557	304.19
505.773	309.19
505.99	315.19
506.207	310.19
506.423	288.19
506.64	283.19
506.856	302.19
507.073	299.19
507.289	304.19
507.506	287.19
507.722	302.19
507.939	307.19
508.155	277.19
508.372	286.19
508.588	283.19
508.805	291.19
509.021	270.19
509.238	289.19
509.454	284.19
509.67	263.19
509.887	290.19
510.103	282.19
510.319	273.19
510.536	284.19
510.752	281.19
510.968	265.19
511.184	285.19
511.401	276.19
511.617	279.19
511.833	268.19
512.049	262.19
512.265	269.19
512.481	250.19
512.698	297.19
512.914	264.19
513.13	263.19
513.346	276.19
513.562	261.19
513.778	254.19
513.994	268.19
514.21	253.19
514.426	256.19
514.642	277.19
514.858	262.19
515.074	270.19
515.29	284.19
515.506	291.19
515.721	291.19
515.937	285.19
516.153	283.19
516.369	280.19
516.585	300.19
516.801	309.19
517.016	326.19
517.232	314.19
517.448	332.19
517.664	358.19
517.879	345.19
518.095	355.19
518.311	320.19
518.527	323.19
518.742	297.19
518.958	299.19
519.173	300.19
519.389	299.19
519.605	294.19
519.82	282.19
520.036	293.19
520.251	272.19
520.467	263.19
520.682	267.19
520.898	273.19
521.113	246.19
521.329	270.19
521.544	285.19
521.76	245.19
521.975	272.19
522.19	263.19
522.406	264.19
522.621	244.19
522.836	245.19
523.052	271.19
523.267	257.19
523.482	247.19
523.698	250.19
523.913	253.19
524.128	248.19
524.343	246.19
524.559	260.19
524.774	255.19
524.989	261.19
525.204	277.19
525.419	247.19
525.634	265.19
525.849	233.19
526.064	265.19
526.28	259.19
526.495	240.19
526.71	228.19
526.925	237.19
527.14	247.19
527.355	239.19
527.57	253.19
527.785	236.19
527.999	245.19
528.214	261.19
528.429	259.19
528.644	255.19
528.859	260.19
529.074	246.19
529.289	247.19
529.503	249.19
529.718	256.19
529.933	256.19
530.148	245.19
530.363	242.19
530.577	259.19
530.792	251.19
531.007	263.19
531.221	247.19
531.436	256.19
531.651	256.19
531.865	242.19
532.08	260.19
532.295	245.19
532.509	230.19
532.724	244.19
532.938	245.19
533.153	248.19
533.367	231.19
533.582	252.19
533.796	244.19
534.011	227.19
534.225	233.19
534.44	242.19
534.654	250.19
534.868	242.19
535.083	251.19
535.297	248.19
535.511	238.19
535.726	227.19
535.94	243.19
536.154	257.19
536.369	247.19
536.583	235.19
536.797	253.19
537.011	230.19
537.225	245.19
537.44	246.19
537.654	239.19
537.868	234.19
538.082	235.19
538.296	232.19
538.51	219.19
538.724	247.19
538.938	241.19
539.153	259.19
539.367	243.19
539.581	231.19
539.795	230.19
540.009	231.19
540.222	213.19
540.436	229.19
540.65	215.19
540.864	228.19
541.078	234.19
541.292	231.19
541.506	234.19
541.72	238.19
541.934	259.19
542.147	247.19
542.361	241.19
542.575	223.19
542.789	233.19
543.002	231.19
543.216	230.19
543.43	224.19
543.644	249.19
543.857	231.19
544.071	219.19
544.285	230.19
544.498	240.19
544.712	248.19
544.925	246.19
545.139	247.19
545.352	237.19
545.566	247.19
545.779	253.19
545.993	245.19
546.206	248.19
546.42	243.19
546.633	246.19
546.847	235.19
547.06	230.19
547.274	241.19
547.487	231.19
547.7	240.19
547.914	243.19
548.127	240.19
548.34	233.19
548.554	247.19
548.767	246.19
548.98	247.19
549.193	247.19
549.407	227.19
549.62	247.19
549.833	240.19
550.046	236.19
550.259	240.19
550.473	211.19
550.686	236.19
550.899	233.19
551.112	240.19
551.325	217.19
551.538	232.19
551.751	241.19
551.964	238.19
552.177	240.19
552.39	247.19
552.603	248.19
552.816	245.19
553.029	249.19
553.242	254.19
553.455	263.19
553.667	257.19
553.88	241.19
554.093	263.19
554.306	251.19
554.519	227.19
554.732	239.19
554.944	239.19
555.157	237.19
555.37	232.19
555.583	230.19
555.795	230.19
556.008	228.19
556.221	227.19
556.433	244.19
556.646	231.19
556.859	211.19
557.071	193.19
557.284	222.19
557.496	205.19
557.709	209.19
557.921	210.19
558.134	222.19
558.346	206.19
558.559	222.19
558.771	221.19
558.984	212.19
559.196	199.19
559.409	210.19
559.621	218.19
559.833	227.19
560.046	221.19
560.258	202.19
560.47	193.19
560.683	218.19
560.895	209.19
561.107	202.19
561.32	202.19
561.532	213.19
561.744	225.19
561.956	197.19
562.168	201.19
562.381	192.19
562.593	217.19
562.805	216.19
563.017	214.19
563.229	208.19
563.441	196.19
563.653	216.19
563.865	201.19
564.077	204.19
564.289	195.19
564.501	220.19
564.713	209.19
564.925	220.19
565.137	209.19
565.349	217.19
565.561	237.19
565.773	227.19
565.985	237.19
566.197	265.19
566.408	268.19
566.62	263.19
566.832	292.19
567.044	291.19
567.255	283.19
567.467	288.19
567.679	299.19
567.891	287.19
568.102	321.19
568.314	301.19
568.526	293.19
568.737	253.19
568.949	245.19
569.161	225.19
569.372	228.19
569.584	203.19
569.795	217.19
570.007	215.19
570.218	223.19
570.43	200.19
570.641	201.19
570.853	208.19
571.064	207.19
571.276	197.19
571.487	199.19
571.698	204.19
571.91	197.19
572.121	207.19
572.333	189.19
572.544	194.19
572.755	190.19
572.966	167.19
573.178	177.19
573.389	203.19
573.6	192.19
573.811	179.19
574.023	185.19
574.234	174.19
574.445	187.19
574.656	185.19
574.867	173.19
575.078	167.19
575.289	182.19
575.501	162.19
575.712	167.19
575.923	175.19
576.134	193.19
576.345	188.19
576.556	185.19
576.767	177.19
576.978	163.19
577.188	183.19
577.399	179.19
577.61	166.19
577.821	181.19
578.032	169.19
578.243	167.19
578.454	172.19
578.665	172.19
578.875	185.19
579.086	152.19
579.297	167.19
579.508	165.19
579.718	183.19
579.929	157.19
580.14	163.19
580.35	146.19
580.561	174.19
580.772	155.19
580.982	157.19
581.193	164.19
581.403	168.19
581.614	162.19
581.825	159.19
582.035	171.19
582.246	167.19
582.456	159.19
582.667	148.19
582.877	157.19
583.087	161.19
583.298	164.19
583.508	168.19
583.719	169.19
583.929	177.19
584.139	160.19
584.35	171.19
584.56	179.19
584.77	174.19
584.981	156.19
585.191	148.19
585.401	169.19
585.611	156.19
585.821	143.19
586.032	167.19
586.242	152.19
586.452	149.19
586.662	171.19
586.872	157.19
587.082	150.19
587.292	154.19
587.502	165.19
587.713	152.19
587.923	149.19
588.133	157.19
588.343	136.19
588.553	151.19
588.762	171.19
588.972	165.19
589.182	161.19
589.392	157.19
589.602	155.19
589.812	153.19
590.022	180.19
590.232	153.19
590.441	167.19
590.651	173.19
590.861	137.19
591.071	167.19
591.281	159.19
591.49	161.19
591.7	163.19
591.91	173.19
592.119	165.19
592.329	154.19
592.539	173.19
592.748	164.19
592.958	146.19
593.167	191.19
593.377	161.19
593.587	182.19
593.796	191.19
594.006	172.19
594.215	171.19
594.424	178.19
594.634	183.19
594.843	171.19
595.053	176.19
595.262	164.19
595.472	150.19
595.681	145.19
595.89	149.19
596.1	172.19
596.309	156.19
596.518	146.19
596.727	153.19
596.937	155.19
597.146	149.19
597.355	155.19
597.564	167.19
597.774	154.19
597.983	163.19
598.192	137.19
598.401	141.19
598.61	145.19
598.819	165.19
599.028	139.19
599.237	145.19
599.446	152.19
599.655	156.19
599.864	134.19
600.073	152.19
600.282	153.19
600.491	151.19
600.7	166.19
600.909	155.19
601.118	135.19
601.327	127.19
601.536	152.19
601.745	140.19
601.953	145.19
602.162	153.19
602.371	137.19
602.58	139.19
602.789	145.19
602.997	150.19
603.206	140.19
603.415	151.19
603.623	149.19
603.832	152.19
604.041	150.19
604.249	135.19
604.458	138.19
604.666	132.19
604.875	141.19
605.084	134.19
605.292	129.19
605.501	164.19
605.709	137.19
605.918	138.19
606.126	130.19
606.334	142.19
606.543	132.19
606.751	144.19
606.96	134.19
607.168	132.19
607.376	145.19
607.585	146.19
607.793	129.19
608.001	137.19
608.21	131.19
608.418	142.19
608.626	141.19
608.834	136.19
609.043	137.19
609.251	141.19
609.459	127.19
609.667	143.19
609.875	143.19
610.083	131.19
610.291	131.19
610.499	130.19
610.707	122.19
610.916	138.19
611.124	143.19
611.332	128.19
611.54	146.19
611.748	135.19
611.955	157.19
612.163	155.19
612.371	157.19
612.579	148.19
612.787	126.19
612.995	139.19
613.203	147.19
613.411	145.19
613.618	135.19
613.826	132.19
614.034	135.19
614.242	150.19
614.449	135.19
614.657	135.19
614.865	146.19
615.072	119.19
615.28	136.19
615.488	138.19
615.695	134.19
615.903	135.19
616.111	150.19
616.318	149.19
616.526	148.19
616.733	140.19
616.941	135.19
617.148	136.19
617.356	134.19
617.563	125.19
617.771	140.19
617.978	139.19
618.185	117.19
618.393	138.19
618.6	135.19
618.807	125.19
619.015	137.19
619.222	135.19
619.429	128.19
619.637	135.19
619.844	131.19
620.051	124.19
620.258	126.19
620.466	147.19
620.673	147.19
620.88	136.19
621.087	131.19
621.294	123.19
621.501	128.19
621.708	141.19
621.915	133.19
622.122	131.19
622.329	119.19
622.536	135.19
622.743	126.19
622.95	123.19
623.157	124.19
623.364	136.19
623.571	146.19
623.778	130.19
623.985	125.19
624.192	129.19
624.399	136.19
624.606	130.19
624.812	124.19
625.019	125.19
625.226	118.19
625.433	141.19
625.639	131.19
625.846	138.19
626.053	131.19
626.259	111.19
626.466	115.19
626.673	127.19
626.879	106.19
627.086	117.19
627.293	124.19
627.499	129.19
627.706	124.19
627.912	120.19
628.119	125.19
628.325	124.19
628.532	108.19
628.738	115.19
628.945	113.19
629.151	126.19
629.357	121.19
629.564	113.19
629.77	123.19
629.976	147.19
630.183	123.19
630.389	119.19
630.595	119.19
630.802	122.19
631.008	125.19
631.214	109.19
631.42	136.19
631.627	125.19
631.833	126.19
632.039	111.19
632.245	123.19
632.451	123.19
632.657	124.19
632.863	133.19
633.069	135.19
633.275	113.19
633.481	100.19
633.688	115.19
633.893	117.19
634.099	129.19
634.305	131.19
634.511	122.19
634.717	120.19
634.923	125.19
635.129	120.19
635.335	122.19
635.541	110.19
635.747	120.19
635.952	131.19
636.158	120.19
636.364	120.19
636.57	132.19
636.775	132.19
636.981	127.19
637.187	122.19
637.392	123.19
637.598	112.19
637.804	108.19
638.009	117.19
638.215	126.19
638.421	115.19
638.626	116.19
638.832	123.19
639.037	127.19
639.243	131.19
639.448	104.19
639.654	115.19
639.859	118.19
640.065	122.19
640.27	123.19
640.475	109.19
640.681	107.19
640.886	122.19
641.091	121.19
641.297	121.19
641.502	100.19
641.707	117.19
641.913	117.19
642.118	109.19
642.323	122.19
642.528	111.19
642.733	110.19
642.939	121.19
643.144	107.19
643.349	110.19
643.554	111.19
643.759	112.19
643.964	119.19
644.169	119.19
644.374	105.19
644.579	128.19
644.784	126.19
644.989	122.19
645.194	120.19
645.399	123.19
645.604	129.19
645.809	127.19
646.014	117.19
646.219	105.19
646.423	111.19
646.628	116.19
646.833	123.19
647.038	118.19
647.243	135.19
647.447	118.19
647.652	119.19
647.857	124.19
648.062	120.19
648.266	121.19
648.471	119.19
648.676	123.19
648.88	123.19
649.085	117.19
649.289	111.19
649.494	120.19
649.698	133.19
649.903	119.19
650.107	122.19
650.312	111.19
650.516	130.19
650.721	117.19
650.925	106.19
651.13	107.19
651.334	107.19
651.539	119.19
651.743	107.19
651.947	101.19
652.152	110.19
652.356	115.19
652.56	127.19
652.764	120.19
652.969	105.19
653.173	111.19
653.377	111.19
653.581	119.19
653.785	99.19
653.99	103.19
654.194	110.19
654.398	112.19
654.602	113.19
654.806	113.19
655.01	118.19
655.214	102.19
655.418	104.19
655.622	113.19
655.826	109.19
656.03	112.19
656.234	108.19
656.438	109.19
656.642	126.19
656.846	111.19
657.049	104.19
657.253	115.19
657.457	104.19
657.661	97.19
657.865	97.19
658.068	97.19
658.272	101.19
658.476	101.19
658.68	96.19
658.883	95.19
659.087	96.19
659.291	87.19
659.494	92.19
659.698	99.19
659.901	87.19
660.105	96.19
660.309	102.19
660.512	80.19
660.716	101.19
660.919	87.19
661.123	92.19
661.326	86.19
661.53	97.19
661.733	95.19
661.936	95.19
662.14	93.19
662.343	82.19
662.546	83.19
662.75	92.19
662.953	89.19
663.156	93.19
663.36	99.19
663.563	80.19
663.766	90.19
663.969	85.19
664.173	79.19
664.376	86.19
664.579	84.19
664.782	83.19
664.985	83.19
665.188	79.19
665.391	93.19
665.594	92.19
665.797	85.19
666	94.19
666.203	60.19
666.406	79.19
666.609	89.19
666.812	87.19
667.015	81.19
667.218	82.19
667.421	80.19
667.624	94.19
667.827	87.19
668.03	80.19
668.232	81.19
668.435	84.19
668.638	80.19
668.841	103.19
669.043	91.19
669.246	86.19
669.449	82.19
669.651	87.19
669.854	81.19
670.057	81.19
670.259	70.19
670.462	84.19
670.665	82.19
670.867	75.19
671.07	87.19
671.272	83.19
671.475	94.19
671.677	97.19
671.88	82.19
672.082	84.19
672.284	84.19
672.487	80.19
672.689	91.19
672.892	90.19
