Data from Fe(NO3)3@0.1M.TitratingCurve.Agarose3%dH2O.NegLispCup.LampEnergy10.LIBS07252019_HRD10591_16-40-30-333.txt Node
Date: Thu Jul 25 16:40:30 EDT 2019
User: cochatt
Spectrometer: HR+D1059
Trigger mode: 1
Integration Time (sec): 1.000000E-1
Scans to average: 1
Electric dark correction enabled: true
Nonlinearity correction enabled: false
Boxcar width: 0
XAxis mode: Wavelengths
Number of Pixels in Spectrum: 2048
>>>>>Begin Spectral Data<<<<<
223.165	-18
223.4	-18
223.635	-18
223.869	-27
224.104	-26
224.338	-21
224.573	-13
224.808	-6
225.042	-8
225.277	-2
225.511	-12
225.746	-4
225.98	15
226.215	31
226.449	7
226.683	29
226.918	31
227.152	24
227.387	48
227.621	36
227.856	40
228.09	52
228.324	50
228.559	53
228.793	70
229.027	68
229.262	91
229.496	84
229.73	93
229.964	91
230.199	88
230.433	81
230.667	86
230.901	84
231.136	98
231.37	114
231.604	108
231.838	106
232.072	96
232.306	83
232.541	102
232.775	104
233.009	106
233.243	127
233.477	95
233.711	99
233.945	107
234.179	115
234.413	111
234.647	104
234.881	115
235.115	101
235.349	105
235.583	110
235.817	91
236.051	106
236.285	99
236.519	110
236.753	118
236.987	116
237.221	111
237.455	116
237.689	98
237.922	105
238.156	107
238.39	106
238.624	106
238.858	107
239.091	102
239.325	114
239.559	101
239.793	114
240.027	109
240.26	120
240.494	114
240.728	100
240.961	116
241.195	120
241.429	128
241.662	143
241.896	115
242.13	110
242.363	124
242.597	122
242.83	129
243.064	118
243.298	114
243.531	114
243.765	116
243.998	116
244.232	131
244.465	114
244.699	115
244.932	123
245.166	137
245.399	138
245.633	121
245.866	117
246.099	121
246.333	141
246.566	128
246.8	119
247.033	132
247.266	124
247.5	126
247.733	131
247.966	127
248.2	136
248.433	147
248.666	135
248.899	130
249.133	137
249.366	159
249.599	143
249.832	139
250.066	132
250.299	127
250.532	135
250.765	138
250.998	141
251.231	138
251.465	144
251.698	143
251.931	132
252.164	140
252.397	144
252.63	134
252.863	150
253.096	142
253.329	151
253.562	152
253.795	161
254.028	147
254.261	141
254.494	144
254.727	150
254.96	151
255.193	156
255.426	140
255.659	151
255.892	155
256.124	145
256.357	145
256.59	165
256.823	155
257.056	156
257.289	162
257.521	157
257.754	153
257.987	155
258.22	163
258.452	154
258.685	165
258.918	158
259.151	152
259.383	158
259.616	165
259.849	166
260.081	158
260.314	164
260.547	174
260.779	169
261.012	170
261.244	165
261.477	180
261.71	153
261.942	155
262.175	155
262.407	169
262.64	158
262.872	171
263.105	168
263.337	154
263.57	182
263.802	188
264.035	184
264.267	166
264.499	171
264.732	175
264.964	170
265.197	163
265.429	191
265.661	182
265.894	178
266.126	184
266.358	187
266.591	176
266.823	168
267.055	189
267.287	167
267.52	157
267.752	163
267.984	169
268.216	176
268.448	185
268.681	171
268.913	169
269.145	162
269.377	174
269.609	180
269.841	168
270.073	178
270.306	174
270.538	186
270.77	184
271.002	185
271.234	176
271.466	184
271.698	185
271.93	191
272.162	191
272.394	188
272.626	180
272.858	184
273.09	202
273.322	199
273.553	202
273.785	208
274.017	197
274.249	181
274.481	203
274.713	214
274.945	210
275.176	207
275.408	220
275.64	213
275.872	195
276.104	204
276.335	216
276.567	203
276.799	194
277.031	183
277.262	204
277.494	217
277.726	208
277.957	190
278.189	217
278.421	206
278.652	207
278.884	199
279.115	206
279.347	206
279.579	208
279.81	213
280.042	203
280.273	197
280.505	206
280.736	216
280.968	196
281.199	208
281.431	210
281.662	214
281.894	230
282.125	228
282.356	245
282.588	213
282.819	197
283.051	208
283.282	233
283.513	224
283.745	223
283.976	215
284.207	230
284.439	233
284.67	216
284.901	226
285.132	235
285.364	220
285.595	228
285.826	235
286.057	231
286.288	235
286.52	237
286.751	229
286.982	214
287.213	226
287.444	224
287.675	227
287.906	231
288.138	222
288.369	228
288.6	236
288.831	234
289.062	218
289.293	245
289.524	246
289.755	224
289.986	245
290.217	219
290.448	246
290.679	240
290.91	249
291.141	219
291.371	226
291.602	231
291.833	246
292.064	253
292.295	230
292.526	223
292.757	252
292.987	231
293.218	237
293.449	245
293.68	222
293.91	259
294.141	242
294.372	245
294.603	245
294.833	259
295.064	264
295.295	248
295.525	249
295.756	246
295.987	234
296.217	249
296.448	252
296.679	254
296.909	237
297.14	264
297.37	255
297.601	270
297.831	260
298.062	271
298.292	260
298.523	255
298.753	272
298.984	268
299.214	254
299.445	247
299.675	269
299.905	254
300.136	249
300.366	256
300.597	283
300.827	276
301.057	270
301.288	296
301.518	292
301.748	280
301.979	286
302.209	273
302.439	285
302.669	278
302.9	277
303.13	276
303.36	262
303.59	273
303.82	281
304.051	275
304.281	276
304.511	288
304.741	274
304.971	270
305.201	280
305.431	279
305.661	266
305.891	282
306.121	287
306.352	282
306.582	246
306.812	284
307.042	272
307.272	255
307.502	264
307.731	275
307.961	274
308.191	275
308.421	277
308.651	267
308.881	260
309.111	271
309.341	260
309.571	255
309.8	265
310.03	285
310.26	287
310.49	269
310.72	286
310.949	279
311.179	283
311.409	292
311.639	278
311.868	280
312.098	282
312.328	276
312.557	295
312.787	293
313.017	299
313.246	287
313.476	282
313.706	272
313.935	278
314.165	283
314.394	292
314.624	299
314.853	292
315.083	287
315.312	304
315.542	306
315.771	297
316.001	286
316.23	308
316.46	303
316.689	284
316.919	282
317.148	319
317.377	286
317.607	286
317.836	299
318.065	288
318.295	292
318.524	282
318.753	300
318.983	288
319.212	288
319.441	277
319.67	293
319.9	287
320.129	301
320.358	299
320.587	290
320.816	282
321.046	313
321.275	286
321.504	307
321.733	292
321.962	302
322.191	287
322.42	287
322.649	292
322.878	291
323.108	272
323.337	287
323.566	295
323.795	314
324.024	320
324.253	311
324.482	299
324.71	283
324.939	310
325.168	317
325.397	323
325.626	319
325.855	310
326.084	335
326.313	302
326.542	324
326.77	330
326.999	310
327.228	329
327.457	327
327.686	325
327.914	311
328.143	315
328.372	309
328.6	306
328.829	308
329.058	322
329.287	332
329.515	326
329.744	326
329.972	321
330.201	323
330.43	335
330.658	321
330.887	339
331.115	357
331.344	347
331.572	349
331.801	345
332.03	336
332.258	341
332.486	354
332.715	354
332.943	387
333.172	396
333.4	384
333.629	415
333.857	413
334.085	402
334.314	396
334.542	404
334.771	384
334.999	392
335.227	399
335.455	391
335.684	392
335.912	379
336.14	363
336.369	392
336.597	379
336.825	394
337.053	381
337.281	385
337.51	360
337.738	362
337.966	363
338.194	337
338.422	347
338.65	349
338.878	350
339.106	343
339.334	359
339.562	354
339.79	332
340.018	330
340.246	327
340.474	351
340.702	333
340.93	334
341.158	328
341.386	330
341.614	341
341.842	345
342.07	330
342.298	336
342.526	327
342.754	332
342.981	332
343.209	343
343.437	359
343.665	380
343.893	401
344.12	379
344.348	382
344.576	371
344.804	363
345.031	350
345.259	337
345.487	331
345.714	353
345.942	345
346.17	334
346.397	336
346.625	322
346.853	326
347.08	328
347.308	319
347.535	341
347.763	324
347.99	342
348.218	329
348.445	306
348.673	321
348.9	327
349.128	325
349.355	313
349.583	336
349.81	316
350.037	327
350.265	320
350.492	332
350.72	313
350.947	327
351.174	319
351.402	314
351.629	322
351.856	323
352.083	317
352.311	318
352.538	318
352.765	315
352.992	322
353.22	305
353.447	323
353.674	335
353.901	332
354.128	318
354.355	305
354.583	327
354.81	332
355.037	323
355.264	327
355.491	326
355.718	329
355.945	324
356.172	317
356.399	330
356.626	318
356.853	330
357.08	343
357.307	326
357.534	329
357.761	330
357.988	333
358.215	324
358.441	336
358.668	344
358.895	333
359.122	320
359.349	347
359.576	325
359.802	321
360.029	326
360.256	304
360.483	301
360.709	308
360.936	314
361.163	325
361.39	314
361.616	326
361.843	324
362.07	324
362.296	320
362.523	318
362.749	333
362.976	321
363.203	318
363.429	329
363.656	311
363.882	310
364.109	334
364.335	315
364.562	324
364.788	356
365.015	336
365.241	333
365.468	334
365.694	333
365.92	318
366.147	319
366.373	315
366.599	324
366.826	329
367.052	301
367.278	329
367.505	327
367.731	306
367.957	342
368.184	334
368.41	320
368.636	338
368.862	354
369.089	330
369.315	331
369.541	359
369.767	351
369.993	317
370.219	335
370.445	348
370.672	355
370.898	343
371.124	347
371.35	371
371.576	369
371.802	345
372.028	352
372.254	373
372.48	379
372.706	375
372.932	359
373.158	359
373.384	359
373.61	386
373.835	342
374.061	360
374.287	363
374.513	361
374.739	378
374.965	396
375.191	389
375.416	392
375.642	379
375.868	378
376.094	358
376.319	363
376.545	368
376.771	342
376.997	360
377.222	363
377.448	351
377.674	353
377.899	354
378.125	332
378.35	348
378.576	347
378.802	350
379.027	342
379.253	339
379.478	336
379.704	348
379.929	348
380.155	341
380.38	376
380.606	356
380.831	363
381.057	382
381.282	370
381.507	362
381.733	371
381.958	361
382.184	350
382.409	398
382.634	360
382.86	353
383.085	345
383.31	394
383.535	368
383.761	402
383.986	388
384.211	396
384.436	403
384.662	404
384.887	401
385.112	412
385.337	417
385.562	414
385.787	417
386.013	426
386.238	406
386.463	435
386.688	418
386.913	410
387.138	419
387.363	439
387.588	394
387.813	426
388.038	418
388.263	411
388.488	415
388.713	434
388.938	412
389.163	425
389.387	429
389.612	400
389.837	417
390.062	404
390.287	404
390.512	416
390.736	423
390.961	424
391.186	444
391.411	444
391.636	446
391.86	458
392.085	460
392.31	442
392.534	454
392.759	463
392.984	424
393.208	444
393.433	464
393.658	451
393.882	428
394.107	440
394.331	452
394.556	440
394.78	455
395.005	460
395.229	436
395.454	467
395.678	450
395.903	448
396.127	459
396.352	426
396.576	438
396.801	443
397.025	440
397.249	453
397.474	447
397.698	472
397.922	455
398.147	460
398.371	463
398.595	523
398.82	514
399.044	553
399.268	612
399.492	656
399.717	694
399.941	692
400.165	629
400.389	574
400.613	525
400.837	548
401.062	500
401.286	490
401.51	513
401.734	494
401.958	515
402.182	534
402.406	515
402.63	517
402.854	553
403.078	563
403.302	555
403.526	551
403.75	562
403.974	547
404.198	538
404.422	570
404.645	562
404.869	556
405.093	564
405.317	542
405.541	548
405.765	555
405.988	569
406.212	546
406.436	554
406.66	568
406.883	574
407.107	608
407.331	618
407.555	623
407.778	630
408.002	610
408.226	598
408.449	619
408.673	573
408.896	580
409.12	568
409.344	581
409.567	593
409.791	556
410.014	578
410.238	572
410.461	572
410.685	538
410.908	546
411.132	564
411.355	551
411.578	532
411.802	537
412.025	542
412.249	538
412.472	550
412.695	526
412.919	518
413.142	511
413.365	535
413.589	523
413.812	536
414.035	521
414.258	510
414.482	530
414.705	520
414.928	540
415.151	526
415.374	524
415.597	533
415.821	492
416.044	510
416.267	524
416.49	512
416.713	505
416.936	538
417.159	528
417.382	516
417.605	482
417.828	520
418.051	512
418.274	522
418.497	523
418.72	499
418.943	512
419.166	540
419.389	571
419.611	544
419.834	527
420.057	537
420.28	525
420.503	512
420.726	501
420.948	510
421.171	506
421.394	500
421.617	486
421.839	521
422.062	523
422.285	523
422.507	522
422.73	543
422.953	528
423.175	518
423.398	528
423.621	532
423.843	544
424.066	529
424.288	543
424.511	520
424.733	543
424.956	518
425.178	543
425.401	530
425.623	502
425.846	498
426.068	495
426.291	487
426.513	475
426.735	480
426.958	493
427.18	470
427.402	463
427.625	482
427.847	476
428.069	486
428.292	477
428.514	479
428.736	462
428.958	479
429.181	462
429.403	447
429.625	483
429.847	448
430.069	461
430.292	456
430.514	450
430.736	471
430.958	470
431.18	461
431.402	476
431.624	463
431.846	464
432.068	468
432.29	492
432.512	459
432.734	483
432.956	478
433.178	499
433.4	501
433.622	472
433.844	493
434.066	477
434.287	478
434.509	500
434.731	507
434.953	515
435.175	516
435.397	512
435.618	464
435.84	499
436.062	471
436.284	474
436.505	479
436.727	479
436.949	476
437.17	455
437.392	461
437.614	464
437.835	458
438.057	481
438.278	450
438.5	472
438.721	450
438.943	477
439.165	456
439.386	482
439.608	473
439.829	472
440.05	476
440.272	486
440.493	478
440.715	506
440.936	508
441.158	519
441.379	522
441.6	520
441.822	516
442.043	522
442.264	520
442.486	506
442.707	497
442.928	522
443.149	524
443.371	516
443.592	502
443.813	505
444.034	558
444.255	557
444.476	523
444.698	569
444.919	604
445.14	654
445.361	564
445.582	556
445.803	524
446.024	511
446.245	500
446.466	495
446.687	490
446.908	506
447.129	460
447.35	510
447.571	476
447.792	448
448.013	476
448.234	472
448.455	474
448.675	451
448.896	458
449.117	446
449.338	446
449.559	454
449.779	472
450	430
450.221	436
450.442	458
450.662	447
450.883	456
451.104	461
451.324	454
451.545	445
451.766	441
451.986	455
452.207	440
452.428	446
452.648	430
452.869	427
453.089	423
453.31	418
453.53	428
453.751	414
453.971	405
454.192	444
454.412	450
454.633	418
454.853	431
455.073	425
455.294	426
455.514	405
455.734	390
455.955	438
456.175	423
456.395	437
456.616	424
456.836	414
457.056	429
457.276	398
457.497	434
457.717	396
457.937	399
458.157	438
458.377	413
458.598	446
458.818	444
459.038	472
459.258	458
459.478	471
459.698	470
459.918	476
460.138	493
460.358	525
460.578	540
460.798	545
461.018	544
461.238	543
461.458	527
461.678	546
461.898	543
462.118	555
462.338	571
462.558	592
462.777	613
462.997	662
463.217	673
463.437	676
463.657	636
463.876	608
464.096	605
464.316	615
464.536	606
464.755	589
464.975	587
465.195	557
465.414	526
465.634	496
465.854	483
466.073	502
466.293	490
466.512	465
466.732	461
466.951	455
467.171	448
467.391	462
467.61	449
467.829	453
468.049	446
468.268	445
468.488	457
468.707	451
468.927	450
469.146	453
469.365	472
469.585	469
469.804	459
470.023	471
470.243	460
470.462	468
470.681	463
470.901	493
471.12	461
471.339	456
471.558	466
471.777	431
471.997	436
472.216	438
472.435	436
472.654	412
472.873	435
473.092	446
473.311	432
473.53	426
473.749	429
473.968	434
474.187	438
474.406	413
474.625	428
474.844	434
475.063	454
475.282	437
475.501	417
475.72	425
475.939	448
476.158	454
476.377	462
476.596	449
476.814	444
477.033	451
477.252	454
477.471	473
477.69	492
477.908	488
478.127	504
478.346	491
478.564	514
478.783	520
479.002	534
479.22	518
479.439	534
479.658	528
479.876	523
480.095	528
480.313	550
480.532	547
480.751	558
480.969	512
481.188	494
481.406	475
481.624	495
481.843	489
482.061	502
482.28	454
482.498	472
482.717	471
482.935	493
483.153	474
483.372	479
483.59	495
483.808	480
484.027	493
484.245	476
484.463	494
484.681	498
484.9	493
485.118	510
485.336	518
485.554	485
485.772	493
485.99	491
486.209	505
486.427	479
486.645	502
486.863	489
487.081	506
487.299	504
487.517	504
487.735	513
487.953	539
488.171	512
488.389	520
488.607	479
488.825	488
489.043	504
489.261	505
489.479	486
489.696	487
489.914	503
490.132	498
490.35	496
490.568	512
490.786	512
491.003	499
491.221	511
491.439	523
491.657	532
491.874	543
492.092	539
492.31	507
492.527	519
492.745	523
492.963	533
493.18	512
493.398	538
493.615	516
493.833	542
494.05	532
494.268	528
494.485	524
494.703	534
494.92	541
495.138	512
495.355	548
495.573	554
495.79	560
496.008	547
496.225	535
496.442	542
496.66	563
496.877	566
497.094	572
497.312	591
497.529	585
497.746	584
497.963	613
498.181	648
498.398	665
498.615	717
498.832	718
499.049	758
499.267	841
499.484	890
499.701	930
499.918	1036
500.135	1130
500.352	1261
500.569	1334
500.786	1280
501.003	1195
501.22	1078
501.437	986
501.654	924
501.871	841
502.088	788
502.305	742
502.522	700
502.739	716
502.956	659
503.172	617
503.389	601
503.606	578
503.823	576
504.04	598
504.256	591
504.473	588
504.69	607
504.907	591
505.123	588
505.34	539
505.557	531
505.773	518
505.99	524
506.207	498
506.423	483
506.64	478
506.856	470
507.073	463
507.289	473
507.506	471
507.722	477
507.939	446
508.155	459
508.372	465
508.588	452
508.805	445
509.021	442
509.238	444
509.454	446
509.67	438
509.887	434
510.103	436
510.319	442
510.536	453
510.752	412
510.968	441
511.184	409
511.401	428
511.617	422
511.833	414
512.049	432
512.265	428
512.481	435
512.698	417
512.914	440
513.13	440
513.346	419
513.562	419
513.778	427
513.994	424
514.21	439
514.426	438
514.642	420
514.858	430
515.074	441
515.29	431
515.506	456
515.721	454
515.937	428
516.153	455
516.369	468
516.585	492
516.801	487
517.016	517
517.232	511
517.448	570
517.664	545
517.879	562
518.095	564
518.311	562
518.527	506
518.742	520
518.958	491
519.173	487
519.389	470
519.605	454
519.82	451
520.036	450
520.251	439
520.467	434
520.682	424
520.898	409
521.113	431
521.329	399
521.544	413
521.76	427
521.975	394
522.19	409
522.406	401
522.621	414
522.836	388
523.052	400
523.267	415
523.482	417
523.698	406
523.913	390
524.128	394
524.343	408
524.559	417
524.774	413
524.989	386
525.204	385
525.419	386
525.634	385
525.849	384
526.064	404
526.28	402
526.495	371
526.71	384
526.925	380
527.14	390
527.355	384
527.57	399
527.785	391
527.999	399
528.214	374
528.429	398
528.644	389
528.859	385
529.074	388
529.289	375
529.503	388
529.718	388
529.933	391
530.148	389
530.363	398
530.577	391
530.792	392
531.007	397
531.221	382
531.436	392
531.651	396
531.865	388
532.08	389
532.295	371
532.509	388
532.724	380
532.938	393
533.153	384
533.367	414
533.582	393
533.796	380
534.011	382
534.225	378
534.44	381
534.654	411
534.868	364
535.083	390
535.297	371
535.511	367
535.726	384
535.94	371
536.154	396
536.369	382
536.583	373
536.797	360
537.011	365
537.225	368
537.44	356
537.654	376
537.868	362
538.082	366
538.296	374
538.51	354
538.724	363
538.938	345
539.153	371
539.367	355
539.581	358
539.795	373
540.009	340
540.222	347
540.436	363
540.65	362
540.864	354
541.078	351
541.292	369
541.506	344
541.72	362
541.934	361
542.147	347
542.361	352
542.575	340
542.789	356
543.002	342
543.216	339
543.43	352
543.644	347
543.857	339
544.071	359
544.285	344
544.498	374
544.712	360
544.925	342
545.139	358
545.352	366
545.566	363
545.779	367
545.993	370
546.206	375
546.42	358
546.633	370
546.847	366
547.06	356
547.274	359
547.487	371
547.7	386
547.914	377
548.127	376
548.34	359
548.554	355
548.767	368
548.98	368
549.193	364
549.407	365
549.62	367
549.833	367
550.046	358
550.259	370
550.473	370
550.686	368
550.899	365
551.112	365
551.325	348
551.538	347
551.751	354
551.964	348
552.177	351
552.39	344
552.603	390
552.816	388
553.029	385
553.242	388
553.455	390
553.667	374
553.88	371
554.093	374
554.306	395
554.519	371
554.732	353
554.944	343
555.157	372
555.37	347
555.583	334
555.795	340
556.008	326
556.221	329
556.433	332
556.646	310
556.859	330
557.071	335
557.284	327
557.496	323
557.709	318
557.921	306
558.134	308
558.346	306
558.559	311
558.771	296
558.984	310
559.196	296
559.409	318
559.621	326
559.833	295
560.046	293
560.258	291
560.47	335
560.683	302
560.895	306
561.107	294
561.32	316
561.532	303
561.744	310
561.956	290
562.168	300
562.381	295
562.593	312
562.805	307
563.017	308
563.229	309
563.441	310
563.653	320
563.865	324
564.077	292
564.289	315
564.501	312
564.713	330
564.925	342
565.137	340
565.349	342
565.561	357
565.773	361
565.985	346
566.197	383
566.408	379
566.62	415
566.832	441
567.044	447
567.255	456
567.467	463
567.679	472
567.891	495
568.102	483
568.314	488
568.526	449
568.737	420
568.949	398
569.161	368
569.372	359
569.584	322
569.795	335
570.007	319
570.218	315
570.43	301
570.641	303
570.853	292
571.064	300
571.276	308
571.487	319
571.698	298
571.91	295
572.121	293
572.333	277
572.544	277
572.755	255
572.966	272
573.178	263
573.389	262
573.6	266
573.811	256
574.023	265
574.234	259
574.445	257
574.656	267
574.867	280
575.078	262
575.289	246
575.501	255
575.712	256
575.923	268
576.134	262
576.345	265
576.556	265
576.767	230
576.978	251
577.188	245
577.399	240
577.61	251
577.821	242
578.032	239
578.243	242
578.454	242
578.665	238
578.875	237
579.086	239
579.297	242
579.508	240
579.718	233
579.929	250
580.14	228
580.35	224
580.561	239
580.772	223
580.982	231
581.193	227
581.403	244
581.614	244
581.825	224
582.035	216
582.246	230
582.456	229
582.667	214
582.877	219
583.087	211
583.298	215
583.508	227
583.719	232
583.929	218
584.139	212
584.35	232
584.56	227
584.77	218
584.981	202
585.191	216
585.401	220
585.611	215
585.821	214
586.032	224
586.242	227
586.452	218
586.662	223
586.872	234
587.082	225
587.292	218
587.502	218
587.713	218
587.923	213
588.133	222
588.343	213
588.553	226
588.762	220
588.972	223
589.182	235
589.392	216
589.602	218
589.812	223
590.022	223
590.232	233
590.441	237
590.651	232
590.861	212
591.071	219
591.281	230
591.49	234
591.7	233
591.91	223
592.119	223
592.329	229
592.539	242
592.748	260
592.958	250
593.167	238
593.377	272
593.587	266
593.796	249
594.006	274
594.215	276
594.424	254
594.634	267
594.843	251
595.053	237
595.262	248
595.472	223
595.681	224
595.89	211
596.1	220
596.309	212
596.518	205
596.727	208
596.937	199
597.146	198
597.355	205
597.564	188
597.774	203
597.983	189
598.192	189
598.401	207
598.61	192
598.819	206
599.028	190
599.237	200
599.446	199
599.655	202
599.864	199
600.073	196
600.282	202
600.491	185
600.7	190
600.909	183
601.118	194
601.327	188
601.536	190
601.745	178
601.953	212
602.162	174
602.371	180
602.58	184
602.789	192
602.997	184
603.206	184
603.415	189
603.623	173
603.832	176
604.041	202
604.249	183
604.458	171
604.666	175
604.875	184
605.084	170
605.292	171
605.501	190
605.709	190
605.918	181
606.126	187
606.334	176
606.543	179
606.751	184
606.96	188
607.168	165
607.376	170
607.585	181
607.793	184
608.001	182
608.21	169
608.418	180
608.626	169
608.834	176
609.043	183
609.251	169
609.459	181
609.667	160
609.875	184
610.083	187
610.291	178
610.499	172
610.707	189
610.916	171
611.124	172
611.332	182
611.54	188
611.748	170
611.955	179
612.163	166
612.371	170
612.579	164
612.787	171
612.995	179
613.203	183
613.411	183
613.618	176
613.826	179
614.034	175
614.242	179
614.449	188
614.657	179
614.865	176
615.072	169
615.28	170
615.488	178
615.695	180
615.903	157
616.111	181
616.318	168
616.526	176
616.733	174
616.941	188
617.148	175
617.356	173
617.563	174
617.771	161
617.978	165
618.185	162
618.393	157
618.6	166
618.807	162
619.015	163
619.222	167
619.429	166
619.637	161
619.844	163
620.051	174
620.258	187
620.466	166
620.673	162
620.88	152
621.087	170
621.294	171
621.501	164
621.708	171
621.915	185
622.122	157
622.329	160
622.536	171
622.743	171
622.95	152
623.157	185
623.364	148
623.571	152
623.778	160
623.985	156
624.192	171
624.399	157
624.606	162
624.812	153
625.019	171
625.226	146
625.433	148
625.639	165
625.846	155
626.053	143
626.259	159
626.466	152
626.673	150
626.879	147
627.086	156
627.293	156
627.499	157
627.706	166
627.912	156
628.119	170
628.325	165
628.532	150
628.738	145
628.945	165
629.151	150
629.357	138
629.564	143
629.77	149
629.976	135
630.183	173
630.389	157
630.595	171
630.802	143
631.008	153
631.214	149
631.42	163
631.627	152
631.833	132
632.039	163
632.245	140
632.451	146
632.657	146
632.863	162
633.069	156
633.275	151
633.481	134
633.688	156
633.893	127
634.099	152
634.305	138
634.511	166
634.717	142
634.923	143
635.129	140
635.335	136
635.541	148
635.747	139
635.952	149
636.158	136
636.364	144
636.57	137
636.775	134
636.981	154
637.187	144
637.392	128
637.598	151
637.804	130
638.009	148
638.215	145
638.421	143
638.626	132
638.832	139
639.037	150
639.243	138
639.448	147
639.654	138
639.859	135
640.065	118
640.27	139
640.475	151
640.681	128
640.886	137
641.091	130
641.297	134
641.502	134
641.707	127
641.913	142
642.118	143
642.323	127
642.528	135
642.733	120
642.939	126
643.144	147
643.349	140
643.554	140
643.759	148
643.964	131
644.169	124
644.374	136
644.579	136
644.784	110
644.989	127
645.194	125
645.399	140
645.604	130
645.809	137
646.014	131
646.219	139
646.423	126
646.628	147
646.833	140
647.038	153
647.243	139
647.447	137
647.652	126
647.857	127
648.062	129
648.266	143
648.471	142
648.676	150
648.88	142
649.085	143
649.289	134
649.494	128
649.698	145
649.903	137
650.107	135
650.312	142
650.516	142
650.721	137
650.925	134
651.13	126
651.334	112
651.539	136
651.743	141
651.947	138
652.152	120
652.356	122
652.56	121
652.764	127
652.969	139
653.173	122
653.377	111
653.581	120
653.785	109
653.99	128
654.194	127
654.398	118
654.602	110
654.806	114
655.01	127
655.214	120
655.418	120
655.622	124
655.826	135
656.03	128
656.234	124
656.438	132
656.642	123
656.846	109
657.049	108
657.253	112
657.457	122
657.661	94
657.865	98
658.068	114
658.272	116
658.476	96
658.68	114
658.883	102
659.087	105
659.291	96
659.494	96
659.698	86
659.901	98
660.105	100
660.309	85
660.512	99
660.716	92
660.919	89
661.123	101
661.326	102
661.53	115
661.733	96
661.936	92
662.14	92
662.343	85
662.546	76
662.75	81
662.953	80
663.156	89
663.36	92
663.563	90
663.766	78
663.969	73
664.173	90
664.376	84
664.579	68
664.782	88
664.985	81
665.188	71
665.391	97
665.594	71
665.797	83
666	81
666.203	81
666.406	80
666.609	88
666.812	86
667.015	80
667.218	96
667.421	90
667.624	76
667.827	92
668.03	85
668.232	60
668.435	74
668.638	80
668.841	103
669.043	78
669.246	80
669.449	66
669.651	91
669.854	80
670.057	97
670.259	81
670.462	71
670.665	71
670.867	72
671.07	79
671.272	89
671.475	85
671.677	86
671.88	78
672.082	96
672.284	77
672.487	87
672.689	88
672.892	86
