Data from Fe(NO3)3@0.1M.TitratingCurve.Agarose3%dH2O.NegLispCup.LampEnergy10.LIBS07252019_HRD10591_16-42-22-333.txt Node
Date: Thu Jul 25 16:42:22 EDT 2019
User: cochatt
Spectrometer: HR+D1059
Trigger mode: 1
Integration Time (sec): 1.000000E-1
Scans to average: 1
Electric dark correction enabled: true
Nonlinearity correction enabled: false
Boxcar width: 0
XAxis mode: Wavelengths
Number of Pixels in Spectrum: 2048
>>>>>Begin Spectral Data<<<<<
223.165	-11
223.4	-11
223.635	-11
223.869	-16
224.104	-23
224.338	-2
224.573	-21
224.808	-12
225.042	-13
225.277	-15
225.511	-11
225.746	13
225.98	7
226.215	17
226.449	23
226.683	12
226.918	16
227.152	36
227.387	36
227.621	41
227.856	48
228.09	41
228.324	52
228.559	53
228.793	60
229.027	65
229.262	62
229.496	71
229.73	70
229.964	78
230.199	75
230.433	82
230.667	85
230.901	76
231.136	85
231.37	88
231.604	82
231.838	83
232.072	85
232.306	93
232.541	76
232.775	94
233.009	93
233.243	93
233.477	82
233.711	90
233.945	101
234.179	88
234.413	102
234.647	99
234.881	81
235.115	73
235.349	75
235.583	74
235.817	88
236.051	82
236.285	89
236.519	77
236.753	77
236.987	84
237.221	91
237.455	81
237.689	83
237.922	91
238.156	78
238.39	88
238.624	80
238.858	88
239.091	85
239.325	91
239.559	77
239.793	90
240.027	86
240.26	66
240.494	91
240.728	74
240.961	92
241.195	85
241.429	89
241.662	76
241.896	88
242.13	78
242.363	81
242.597	80
242.83	84
243.064	90
243.298	87
243.531	84
243.765	88
243.998	90
244.232	81
244.465	97
244.699	90
244.932	88
245.166	85
245.399	97
245.633	94
245.866	82
246.099	84
246.333	76
246.566	91
246.8	79
247.033	85
247.266	82
247.5	82
247.733	97
247.966	99
248.2	89
248.433	104
248.666	90
248.899	111
249.133	106
249.366	95
249.599	97
249.832	99
250.066	84
250.299	95
250.532	96
250.765	96
250.998	99
251.231	98
251.465	88
251.698	81
251.931	96
252.164	89
252.397	94
252.63	94
252.863	108
253.096	102
253.329	107
253.562	109
253.795	100
254.028	110
254.261	91
254.494	96
254.727	98
254.96	97
255.193	101
255.426	92
255.659	98
255.892	104
256.124	104
256.357	93
256.59	93
256.823	97
257.056	97
257.289	97
257.521	93
257.754	103
257.987	101
258.22	92
258.452	100
258.685	95
258.918	113
259.151	97
259.383	99
259.616	109
259.849	116
260.081	117
260.314	112
260.547	107
260.779	109
261.012	119
261.244	101
261.477	106
261.71	108
261.942	118
262.175	92
262.407	107
262.64	98
262.872	105
263.105	102
263.337	123
263.57	94
263.802	106
264.035	113
264.267	106
264.499	100
264.732	114
264.964	107
265.197	106
265.429	119
265.661	104
265.894	105
266.126	94
266.358	104
266.591	116
266.823	106
267.055	105
267.287	115
267.52	107
267.752	120
267.984	108
268.216	112
268.448	126
268.681	108
268.913	118
269.145	116
269.377	120
269.609	116
269.841	112
270.073	107
270.306	132
270.538	121
270.77	106
271.002	116
271.234	124
271.466	101
271.698	125
271.93	121
272.162	109
272.394	113
272.626	127
272.858	129
273.09	128
273.322	116
273.553	110
273.785	107
274.017	124
274.249	121
274.481	121
274.713	122
274.945	108
275.176	114
275.408	121
275.64	107
275.872	124
276.104	131
276.335	119
276.567	120
276.799	116
277.031	123
277.262	109
277.494	122
277.726	118
277.957	125
278.189	124
278.421	120
278.652	128
278.884	116
279.115	139
279.347	122
279.579	130
279.81	130
280.042	123
280.273	118
280.505	122
280.736	120
280.968	121
281.199	126
281.431	121
281.662	124
281.894	103
282.125	134
282.356	123
282.588	138
282.819	133
283.051	132
283.282	123
283.513	128
283.745	114
283.976	120
284.207	128
284.439	125
284.67	124
284.901	125
285.132	113
285.364	141
285.595	129
285.826	125
286.057	132
286.288	127
286.52	113
286.751	124
286.982	137
287.213	115
287.444	136
287.675	134
287.906	125
288.138	124
288.369	137
288.6	124
288.831	132
289.062	133
289.293	132
289.524	132
289.755	142
289.986	115
290.217	128
290.448	134
290.679	129
290.91	140
291.141	120
291.371	144
291.602	121
291.833	134
292.064	136
292.295	138
292.526	126
292.757	134
292.987	125
293.218	141
293.449	122
293.68	126
293.91	145
294.141	147
294.372	118
294.603	136
294.833	141
295.064	134
295.295	141
295.525	147
295.756	139
295.987	133
296.217	124
296.448	137
296.679	118
296.909	140
297.14	133
297.37	158
297.601	144
297.831	136
298.062	136
298.292	153
298.523	139
298.753	129
298.984	144
299.214	133
299.445	145
299.675	138
299.905	150
300.136	133
300.366	146
300.597	142
300.827	136
301.057	148
301.288	152
301.518	157
301.748	154
301.979	141
302.209	148
302.439	137
302.669	146
302.9	138
303.13	147
303.36	146
303.59	146
303.82	131
304.051	145
304.281	148
304.511	159
304.741	156
304.971	139
305.201	145
305.431	137
305.661	141
305.891	142
306.121	142
306.352	135
306.582	139
306.812	139
307.042	147
307.272	135
307.502	161
307.731	150
307.961	165
308.191	140
308.421	153
308.651	149
308.881	140
309.111	150
309.341	147
309.571	164
309.8	152
310.03	136
310.26	137
310.49	158
310.72	156
310.949	151
311.179	145
311.409	150
311.639	155
311.868	165
312.098	142
312.328	154
312.557	152
312.787	130
313.017	162
313.246	165
313.476	164
313.706	150
313.935	156
314.165	154
314.394	165
314.624	150
314.853	148
315.083	172
315.312	154
315.542	148
315.771	157
316.001	152
316.23	149
316.46	161
316.689	144
316.919	150
317.148	146
317.377	146
317.607	170
317.836	159
318.065	162
318.295	166
318.524	148
318.753	153
318.983	166
319.212	163
319.441	156
319.67	151
319.9	150
320.129	162
320.358	156
320.587	156
320.816	162
321.046	167
321.275	166
321.504	160
321.733	174
321.962	165
322.191	151
322.42	142
322.649	164
322.878	172
323.108	161
323.337	164
323.566	148
323.795	163
324.024	135
324.253	160
324.482	161
324.71	181
324.939	165
325.168	162
325.397	148
325.626	162
325.855	171
326.084	157
326.313	176
326.542	179
326.77	167
326.999	168
327.228	163
327.457	152
327.686	160
327.914	163
328.143	182
328.372	163
328.6	168
328.829	163
329.058	186
329.287	178
329.515	169
329.744	166
329.972	161
330.201	180
330.43	184
330.658	185
330.887	196
331.115	171
331.344	172
331.572	187
331.801	184
332.03	170
332.258	176
332.486	170
332.715	184
332.943	185
333.172	196
333.4	182
333.629	194
333.857	193
334.085	199
334.314	195
334.542	198
334.771	206
334.999	192
335.227	195
335.455	182
335.684	199
335.912	172
336.14	185
336.369	189
336.597	189
336.825	186
337.053	198
337.281	182
337.51	178
337.738	178
337.966	176
338.194	193
338.422	203
338.65	179
338.878	195
339.106	161
339.334	191
339.562	187
339.79	187
340.018	177
340.246	188
340.474	182
340.702	189
340.93	194
341.158	161
341.386	172
341.614	164
341.842	182
342.07	181
342.298	185
342.526	180
342.754	169
342.981	164
343.209	178
343.437	179
343.665	189
343.893	193
344.12	200
344.348	189
344.576	199
344.804	189
345.031	179
345.259	211
345.487	191
345.714	179
345.942	188
346.17	149
346.397	192
346.625	182
346.853	174
347.08	170
347.308	176
347.535	177
347.763	180
347.99	182
348.218	196
348.445	155
348.673	187
348.9	173
349.128	173
349.355	171
349.583	179
349.81	170
350.037	170
350.265	177
350.492	168
350.72	169
350.947	167
351.174	190
351.402	184
351.629	186
351.856	178
352.083	195
352.311	181
352.538	176
352.765	166
352.992	184
353.22	180
353.447	186
353.674	182
353.901	166
354.128	184
354.355	185
354.583	198
354.81	176
355.037	167
355.264	182
355.491	168
355.718	182
355.945	194
356.172	171
356.399	174
356.626	181
356.853	189
357.08	163
357.307	182
357.534	178
357.761	174
357.988	174
358.215	179
358.441	166
358.668	185
358.895	182
359.122	186
359.349	206
359.576	192
359.802	186
360.029	199
360.256	187
360.483	195
360.709	176
360.936	171
361.163	184
361.39	157
361.616	176
361.843	180
362.07	170
362.296	188
362.523	163
362.749	177
362.976	180
363.203	173
363.429	168
363.656	168
363.882	179
364.109	180
364.335	179
364.562	179
364.788	188
365.015	178
365.241	166
365.468	193
365.694	162
365.92	181
366.147	194
366.373	198
366.599	185
366.826	189
367.052	171
367.278	171
367.505	199
367.731	188
367.957	176
368.184	182
368.41	171
368.636	174
368.862	189
369.089	178
369.315	190
369.541	184
369.767	189
369.993	181
370.219	188
370.445	182
370.672	188
370.898	181
371.124	196
371.35	196
371.576	180
371.802	192
372.028	189
372.254	199
372.48	204
372.706	198
372.932	191
373.158	196
373.384	206
373.61	202
373.835	202
374.061	179
374.287	192
374.513	212
374.739	194
374.965	202
375.191	194
375.416	190
375.642	190
375.868	201
376.094	197
376.319	201
376.545	189
376.771	188
376.997	166
377.222	190
377.448	187
377.674	198
377.899	197
378.125	200
378.35	188
378.576	193
378.802	187
379.027	203
379.253	208
379.478	199
379.704	199
379.929	190
380.155	197
380.38	204
380.606	188
380.831	192
381.057	193
381.282	205
381.507	198
381.733	220
381.958	217
382.184	213
382.409	209
382.634	220
382.86	199
383.085	201
383.31	211
383.535	195
383.761	203
383.986	209
384.211	206
384.436	211
384.662	206
384.887	222
385.112	233
385.337	218
385.562	215
385.787	218
386.013	238
386.238	235
386.463	203
386.688	217
386.913	194
387.138	207
387.363	208
387.588	211
387.813	216
388.038	233
388.263	225
388.488	222
388.713	210
388.938	203
389.163	223
389.387	221
389.612	213
389.837	226
390.062	200
390.287	216
390.512	230
390.736	225
390.961	237
391.186	211
391.411	212
391.636	233
391.86	229
392.085	252
392.31	236
392.534	242
392.759	224
392.984	216
393.208	213
393.433	234
393.658	231
393.882	226
394.107	234
394.331	216
394.556	228
394.78	224
395.005	229
395.229	244
395.454	237
395.678	240
395.903	234
396.127	233
396.352	244
396.576	234
396.801	217
397.025	224
397.249	246
397.474	233
397.698	243
397.922	244
398.147	246
398.371	260
398.595	248
398.82	252
399.044	270
399.268	291
399.492	292
399.717	316
399.941	321
400.165	304
400.389	294
400.613	272
400.837	243
401.062	265
401.286	235
401.51	248
401.734	266
401.958	241
402.182	270
402.406	251
402.63	264
402.854	256
403.078	260
403.302	277
403.526	249
403.75	261
403.974	275
404.198	277
404.422	269
404.645	277
404.869	262
405.093	274
405.317	280
405.541	292
405.765	278
405.988	288
406.212	272
406.436	285
406.66	269
406.883	280
407.107	294
407.331	308
407.555	306
407.778	300
408.002	294
408.226	304
408.449	286
408.673	284
408.896	278
409.12	279
409.344	289
409.567	286
409.791	269
410.014	266
410.238	284
410.461	275
410.685	262
410.908	268
411.132	286
411.355	268
411.578	278
411.802	267
412.025	279
412.249	268
412.472	264
412.695	278
412.919	266
413.142	260
413.365	273
413.589	268
413.812	264
414.035	266
414.258	273
414.482	277
414.705	294
414.928	273
415.151	251
415.374	264
415.597	277
415.821	249
416.044	261
416.267	261
416.49	253
416.713	280
416.936	264
417.159	252
417.382	260
417.605	276
417.828	259
418.051	277
418.274	269
418.497	268
418.72	268
418.943	279
419.166	294
419.389	286
419.611	294
419.834	267
420.057	269
420.28	270
420.503	272
420.726	264
420.948	272
421.171	266
421.394	245
421.617	274
421.839	269
422.062	279
422.285	267
422.507	273
422.73	254
422.953	276
423.175	270
423.398	282
423.621	280
423.843	264
424.066	282
424.288	279
424.511	276
424.733	282
424.956	273
425.178	290
425.401	260
425.623	273
425.846	274
426.068	252
426.291	255
426.513	262
426.735	267
426.958	259
427.18	257
427.402	278
427.625	269
427.847	245
428.069	264
428.292	245
428.514	266
428.736	263
428.958	252
429.181	261
429.403	248
429.625	263
429.847	256
430.069	249
430.292	253
430.514	273
430.736	256
430.958	248
431.18	252
431.402	276
431.624	280
431.846	248
432.068	254
432.29	263
432.512	244
432.734	274
432.956	251
433.178	284
433.4	265
433.622	265
433.844	284
434.066	252
434.287	271
434.509	268
434.731	284
434.953	263
435.175	282
435.397	288
435.618	285
435.84	280
436.062	266
436.284	254
436.505	267
436.727	254
436.949	282
437.17	282
437.392	258
437.614	276
437.835	266
438.057	259
438.278	232
438.5	265
438.721	273
438.943	260
439.165	256
439.386	267
439.608	273
439.829	286
440.05	281
440.272	266
440.493	285
440.715	288
440.936	297
441.158	266
441.379	279
441.6	283
441.822	279
442.043	294
442.264	293
442.486	291
442.707	276
442.928	297
443.149	305
443.371	302
443.592	280
443.813	285
444.034	294
444.255	324
444.476	321
444.698	306
444.919	332
445.14	385
445.361	332
445.582	294
445.803	274
446.024	285
446.245	278
446.466	303
446.687	277
446.908	274
447.129	261
447.35	277
447.571	281
447.792	285
448.013	272
448.234	274
448.455	278
448.675	261
448.896	248
449.117	254
449.338	244
449.559	237
449.779	269
450	264
450.221	276
450.442	268
450.662	262
450.883	263
451.104	262
451.324	251
451.545	261
451.766	262
451.986	254
452.207	246
452.428	256
452.648	267
452.869	245
453.089	241
453.31	263
453.53	221
453.751	235
453.971	227
454.192	238
454.412	240
454.633	226
454.853	228
455.073	251
455.294	240
455.514	240
455.734	234
455.955	257
456.175	230
456.395	227
456.616	252
456.836	241
457.056	260
457.276	247
457.497	240
457.717	251
457.937	227
458.157	262
458.377	238
458.598	239
458.818	247
459.038	235
459.258	256
459.478	230
459.698	282
459.918	261
460.138	283
460.358	281
460.578	278
460.798	301
461.018	297
461.238	309
461.458	300
461.678	302
461.898	281
462.118	273
462.338	308
462.558	314
462.777	322
462.997	313
463.217	326
463.437	334
463.657	315
463.876	332
464.096	322
464.316	322
464.536	314
464.755	305
464.975	309
465.195	295
465.414	273
465.634	269
465.854	244
466.073	273
466.293	281
466.512	253
466.732	264
466.951	254
467.171	247
467.391	257
467.61	273
467.829	272
468.049	267
468.268	242
468.488	257
468.707	276
468.927	284
469.146	241
469.365	248
469.585	261
469.804	265
470.023	284
470.243	264
470.462	259
470.681	282
470.901	265
471.12	266
471.339	251
471.558	260
471.777	266
471.997	267
472.216	274
472.435	235
472.654	240
472.873	260
473.092	258
473.311	264
473.53	272
473.749	236
473.968	254
474.187	251
474.406	276
474.625	248
474.844	252
475.063	271
475.282	260
475.501	266
475.72	278
475.939	268
476.158	273
476.377	268
476.596	270
476.814	265
477.033	268
477.252	250
477.471	279
477.69	285
477.908	283
478.127	285
478.346	268
478.564	290
478.783	275
479.002	288
479.22	295
479.439	306
479.658	306
479.876	296
480.095	302
480.313	293
480.532	297
480.751	304
480.969	294
481.188	306
481.406	290
481.624	289
481.843	283
482.061	297
482.28	288
482.498	289
482.717	280
482.935	306
483.153	308
483.372	299
483.59	320
483.808	305
484.027	294
484.245	276
484.463	308
484.681	305
484.9	315
485.118	309
485.336	289
485.554	304
485.772	303
485.99	294
486.209	301
486.427	307
486.645	304
486.863	311
487.081	308
487.299	306
487.517	304
487.735	327
487.953	314
488.171	320
488.389	305
488.607	298
488.825	312
489.043	300
489.261	288
489.479	316
489.696	321
489.914	292
490.132	320
490.35	298
490.568	318
490.786	299
491.003	310
491.221	330
491.439	312
491.657	310
491.874	321
492.092	305
492.31	327
492.527	324
492.745	284
492.963	320
493.18	308
493.398	328
493.615	313
493.833	322
494.05	314
494.268	301
494.485	312
494.703	320
494.92	318
495.138	302
495.355	320
495.573	320
495.79	333
496.008	310
496.225	303
496.442	317
496.66	351
496.877	310
497.094	321
497.312	314
497.529	342
497.746	344
497.963	337
498.181	333
498.398	339
498.615	368
498.832	381
499.049	405
499.267	408
499.484	429
499.701	478
499.918	492
500.135	527
500.352	550
500.569	571
500.786	553
501.003	526
501.22	496
501.437	470
501.654	436
501.871	427
502.088	384
502.305	395
502.522	372
502.739	343
502.956	344
503.172	330
503.389	342
503.606	325
503.823	317
504.04	311
504.256	309
504.473	314
504.69	326
504.907	301
505.123	293
505.34	293
505.557	297
505.773	276
505.99	268
506.207	269
506.423	274
506.64	259
506.856	258
507.073	262
507.289	273
507.506	264
507.722	272
507.939	279
508.155	241
508.372	244
508.588	238
508.805	265
509.021	262
509.238	237
509.454	240
509.67	268
509.887	231
510.103	264
510.319	231
510.536	235
510.752	259
510.968	237
511.184	246
511.401	238
511.617	251
511.833	245
512.049	238
512.265	233
512.481	247
512.698	246
512.914	245
513.13	232
513.346	244
513.562	243
513.778	245
513.994	258
514.21	270
514.426	255
514.642	256
514.858	244
515.074	250
515.29	228
515.506	254
515.721	235
515.937	260
516.153	252
516.369	280
516.585	266
516.801	258
517.016	272
517.232	284
517.448	281
517.664	285
517.879	276
518.095	279
518.311	288
518.527	269
518.742	278
518.958	254
519.173	271
519.389	254
519.605	246
519.82	246
520.036	264
520.251	242
520.467	236
520.682	256
520.898	224
521.113	238
521.329	245
521.544	248
521.76	235
521.975	238
522.19	237
522.406	238
522.621	232
522.836	228
523.052	226
523.267	224
523.482	235
523.698	225
523.913	239
524.128	209
524.343	220
524.559	239
524.774	216
524.989	213
525.204	234
525.419	232
525.634	232
525.849	216
526.064	228
526.28	234
526.495	203
526.71	212
526.925	220
527.14	227
527.355	225
527.57	225
527.785	212
527.999	222
528.214	230
528.429	229
528.644	215
528.859	210
529.074	230
529.289	237
529.503	230
529.718	233
529.933	220
530.148	217
530.363	202
530.577	228
530.792	217
531.007	220
531.221	219
531.436	221
531.651	217
531.865	220
532.08	209
532.295	210
532.509	234
532.724	207
532.938	214
533.153	238
533.367	232
533.582	237
533.796	231
534.011	217
534.225	228
534.44	221
534.654	224
534.868	221
535.083	205
535.297	230
535.511	226
535.726	207
535.94	240
536.154	205
536.369	225
536.583	214
536.797	206
537.011	208
537.225	201
537.44	211
537.654	230
537.868	203
538.082	198
538.296	226
538.51	196
538.724	205
538.938	215
539.153	214
539.367	202
539.581	204
539.795	196
540.009	211
540.222	214
540.436	201
540.65	224
540.864	206
541.078	202
541.292	222
541.506	227
541.72	221
541.934	193
542.147	219
542.361	198
542.575	212
542.789	195
543.002	216
543.216	223
543.43	212
543.644	212
543.857	205
544.071	216
544.285	217
544.498	226
544.712	206
544.925	211
545.139	208
545.352	219
545.566	203
545.779	214
545.993	215
546.206	230
546.42	221
546.633	241
546.847	219
547.06	214
547.274	212
547.487	221
547.7	215
547.914	246
548.127	229
548.34	223
548.554	225
548.767	216
548.98	217
549.193	218
549.407	216
549.62	220
549.833	215
550.046	225
550.259	232
550.473	212
550.686	227
550.899	222
551.112	198
551.325	200
551.538	196
551.751	213
551.964	207
552.177	211
552.39	218
552.603	215
552.816	220
553.029	228
553.242	222
553.455	225
553.667	228
553.88	221
554.093	213
554.306	219
554.519	221
554.732	212
554.944	206
555.157	206
555.37	209
555.583	207
555.795	218
556.008	205
556.221	200
556.433	198
556.646	196
556.859	199
557.071	199
557.284	193
557.496	211
557.709	206
557.921	182
558.134	188
558.346	186
558.559	173
558.771	194
558.984	194
559.196	182
559.409	191
559.621	202
559.833	188
560.046	197
560.258	188
560.47	190
560.683	191
560.895	196
561.107	214
561.32	193
561.532	176
561.744	199
561.956	201
562.168	190
562.381	193
562.593	188
562.805	204
563.017	194
563.229	193
563.441	181
563.653	183
563.865	188
564.077	193
564.289	168
564.501	214
564.713	204
564.925	199
565.137	206
565.349	195
565.561	203
565.773	205
565.985	209
566.197	211
566.408	233
566.62	219
566.832	232
567.044	258
567.255	243
567.467	248
567.679	262
567.891	263
568.102	260
568.314	243
568.526	247
568.737	233
568.949	223
569.161	212
569.372	197
569.584	192
569.795	196
570.007	185
570.218	192
570.43	201
570.641	176
570.853	176
571.064	181
571.276	190
571.487	186
571.698	182
571.91	181
572.121	161
572.333	188
572.544	169
572.755	165
572.966	168
573.178	179
573.389	187
573.6	168
573.811	169
574.023	187
574.234	156
574.445	177
574.656	166
574.867	161
575.078	173
575.289	150
575.501	158
575.712	155
575.923	161
576.134	155
576.345	158
576.556	156
576.767	152
576.978	158
577.188	148
577.399	170
577.61	173
577.821	148
578.032	159
578.243	165
578.454	168
578.665	163
578.875	150
579.086	153
579.297	165
579.508	158
579.718	152
579.929	177
580.14	164
580.35	152
580.561	142
580.772	157
580.982	168
581.193	154
581.403	161
581.614	157
581.825	148
582.035	167
582.246	154
582.456	147
582.667	144
582.877	177
583.087	158
583.298	156
583.508	174
583.719	162
583.929	132
584.139	152
584.35	145
584.56	137
584.77	138
584.981	140
585.191	155
585.401	149
585.611	140
585.821	142
586.032	149
586.242	146
586.452	154
586.662	153
586.872	167
587.082	138
587.292	139
587.502	151
587.713	142
587.923	138
588.133	142
588.343	148
588.553	144
588.762	153
588.972	168
589.182	138
589.392	148
589.602	159
589.812	141
590.022	160
590.232	148
590.441	151
590.651	143
590.861	148
591.071	153
591.281	140
591.49	148
591.7	148
591.91	145
592.119	148
592.329	157
592.539	160
592.748	145
592.958	145
593.167	145
593.377	150
593.587	156
593.796	151
594.006	162
594.215	167
594.424	158
594.634	175
594.843	160
595.053	149
595.262	136
595.472	130
595.681	147
595.89	134
596.1	165
596.309	160
596.518	157
596.727	126
596.937	144
597.146	130
597.355	127
597.564	152
597.774	148
597.983	135
598.192	152
598.401	138
598.61	139
598.819	134
599.028	145
599.237	141
599.446	126
599.655	136
599.864	149
600.073	136
600.282	125
600.491	143
600.7	132
600.909	128
601.118	138
601.327	138
601.536	128
601.745	140
601.953	132
602.162	128
602.371	144
602.58	132
602.789	139
602.997	146
603.206	136
603.415	147
603.623	141
603.832	131
604.041	135
604.249	132
604.458	150
604.666	134
604.875	134
605.084	122
605.292	134
605.501	127
605.709	144
605.918	134
606.126	130
606.334	137
606.543	122
606.751	122
606.96	132
607.168	140
607.376	145
607.585	128
607.793	127
608.001	127
608.21	133
608.418	132
608.626	133
608.834	139
609.043	132
609.251	139
609.459	132
609.667	140
609.875	115
610.083	124
610.291	130
610.499	134
610.707	134
610.916	114
611.124	128
611.332	136
611.54	135
611.748	139
611.955	123
612.163	131
612.371	132
612.579	133
612.787	140
612.995	118
613.203	129
613.411	131
613.618	124
613.826	130
614.034	126
614.242	134
614.449	120
614.657	121
614.865	125
615.072	132
615.28	129
615.488	120
615.695	140
615.903	134
616.111	128
616.318	130
616.526	128
616.733	133
616.941	133
617.148	130
617.356	134
617.563	123
617.771	124
617.978	109
618.185	128
618.393	122
618.6	124
618.807	115
619.015	135
619.222	112
619.429	129
619.637	130
619.844	130
620.051	123
620.258	132
620.466	132
620.673	130
620.88	133
621.087	135
621.294	124
621.501	127
621.708	123
621.915	135
622.122	130
622.329	117
622.536	109
622.743	121
622.95	134
623.157	127
623.364	119
623.571	121
623.778	125
623.985	121
624.192	132
624.399	121
624.606	120
624.812	133
625.019	117
625.226	121
625.433	134
625.639	125
625.846	128
626.053	124
626.259	108
626.466	143
626.673	128
626.879	123
627.086	124
627.293	124
627.499	97
627.706	112
627.912	117
628.119	122
628.325	117
628.532	117
628.738	124
628.945	109
629.151	130
629.357	119
629.564	127
629.77	114
629.976	117
630.183	111
630.389	101
630.595	113
630.802	116
631.008	111
631.214	122
631.42	116
631.627	128
631.833	114
632.039	117
632.245	106
632.451	120
632.657	133
632.863	122
633.069	128
633.275	124
633.481	125
633.688	108
633.893	132
634.099	119
634.305	110
634.511	121
634.717	107
634.923	126
635.129	114
635.335	125
635.541	116
635.747	108
635.952	114
636.158	120
636.364	105
636.57	114
636.775	117
636.981	107
637.187	118
637.392	114
637.598	100
637.804	116
638.009	125
638.215	107
638.421	123
638.626	107
638.832	128
639.037	109
639.243	119
639.448	116
639.654	121
639.859	110
640.065	130
640.27	128
640.475	118
640.681	113
640.886	112
641.091	116
641.297	117
641.502	112
641.707	114
641.913	133
642.118	124
642.323	120
642.528	125
642.733	117
642.939	112
643.144	114
643.349	119
643.554	117
643.759	119
643.964	107
644.169	112
644.374	101
644.579	107
644.784	116
644.989	104
645.194	114
645.399	118
645.604	129
645.809	136
646.014	114
646.219	105
646.423	122
646.628	120
646.833	137
647.038	117
647.243	123
647.447	121
647.652	124
647.857	112
648.062	132
648.266	123
648.471	121
648.676	114
648.88	131
649.085	123
649.289	114
649.494	110
649.698	128
649.903	112
650.107	113
650.312	127
650.516	124
650.721	133
650.925	125
651.13	117
651.334	128
651.539	132
651.743	125
651.947	117
652.152	135
652.356	120
652.56	118
652.764	122
652.969	128
653.173	118
653.377	117
653.581	130
653.785	128
653.99	124
654.194	120
654.398	137
654.602	132
654.806	127
655.01	128
655.214	128
655.418	129
655.622	144
655.826	150
656.03	151
656.234	144
656.438	160
656.642	157
656.846	167
657.049	149
657.253	153
657.457	129
657.661	140
657.865	129
658.068	125
658.272	125
658.476	102
658.68	110
658.883	128
659.087	122
659.291	111
659.494	104
659.698	102
659.901	93
660.105	90
660.309	105
660.512	86
660.716	97
660.919	84
661.123	90
661.326	102
661.53	85
661.733	103
661.936	99
662.14	75
662.343	76
662.546	86
662.75	77
662.953	84
663.156	91
663.36	89
663.563	77
663.766	90
663.969	82
664.173	88
664.376	86
664.579	85
664.782	73
664.985	82
665.188	72
665.391	92
665.594	89
665.797	64
666	75
666.203	88
666.406	83
666.609	68
666.812	83
667.015	81
667.218	83
667.421	76
667.624	90
667.827	84
668.03	85
668.232	59
668.435	81
668.638	82
668.841	89
669.043	85
669.246	82
669.449	84
669.651	70
669.854	69
670.057	73
670.259	78
670.462	80
670.665	91
670.867	71
671.07	78
671.272	78
671.475	78
671.677	73
671.88	88
672.082	80
672.284	72
672.487	75
672.689	85
672.892	90
