Data from Fe(NO3)3@0.1M.TitratingCurve.Agarose3%dH2O.NegLispCup.LampEnergy10.LIBS07252019_HRD10591_16-41-28-333.txt Node
Date: Thu Jul 25 16:41:28 EDT 2019
User: cochatt
Spectrometer: HR+D1059
Trigger mode: 1
Integration Time (sec): 1.000000E-1
Scans to average: 1
Electric dark correction enabled: true
Nonlinearity correction enabled: false
Boxcar width: 0
XAxis mode: Wavelengths
Number of Pixels in Spectrum: 2048
>>>>>Begin Spectral Data<<<<<
223.165	-5.69
223.4	-5.69
223.635	-5.69
223.869	-8.69
224.104	-9.69
224.338	-22.69
224.573	-17.69
224.808	-14.69
225.042	-14.69
225.277	-9.69
225.511	-0.69
225.746	11.31
225.98	7.31
226.215	17.31
226.449	8.31
226.683	10.31
226.918	21.31
227.152	28.31
227.387	45.31
227.621	33.31
227.856	41.31
228.09	35.31
228.324	55.31
228.559	49.31
228.793	56.31
229.027	75.31
229.262	66.31
229.496	66.31
229.73	79.31
229.964	85.31
230.199	77.31
230.433	89.31
230.667	85.31
230.901	77.31
231.136	87.31
231.37	74.31
231.604	81.31
231.838	86.31
232.072	85.31
232.306	73.31
232.541	85.31
232.775	73.31
233.009	93.31
233.243	75.31
233.477	83.31
233.711	101.31
233.945	103.31
234.179	83.31
234.413	82.31
234.647	81.31
234.881	106.31
235.115	96.31
235.349	87.31
235.583	69.31
235.817	91.31
236.051	94.31
236.285	77.31
236.519	86.31
236.753	91.31
236.987	82.31
237.221	96.31
237.455	91.31
237.689	80.31
237.922	77.31
238.156	87.31
238.39	81.31
238.624	89.31
238.858	78.31
239.091	83.31
239.325	81.31
239.559	84.31
239.793	82.31
240.027	80.31
240.26	97.31
240.494	73.31
240.728	75.31
240.961	83.31
241.195	83.31
241.429	87.31
241.662	80.31
241.896	85.31
242.13	83.31
242.363	96.31
242.597	92.31
242.83	100.31
243.064	85.31
243.298	98.31
243.531	87.31
243.765	80.31
243.998	92.31
244.232	89.31
244.465	93.31
244.699	95.31
244.932	102.31
245.166	108.31
245.399	87.31
245.633	97.31
245.866	92.31
246.099	84.31
246.333	83.31
246.566	90.31
246.8	102.31
247.033	103.31
247.266	92.31
247.5	95.31
247.733	94.31
247.966	89.31
248.2	85.31
248.433	89.31
248.666	82.31
248.899	88.31
249.133	79.31
249.366	94.31
249.599	99.31
249.832	101.31
250.066	103.31
250.299	87.31
250.532	94.31
250.765	92.31
250.998	95.31
251.231	101.31
251.465	97.31
251.698	95.31
251.931	99.31
252.164	91.31
252.397	118.31
252.63	103.31
252.863	100.31
253.096	103.31
253.329	103.31
253.562	106.31
253.795	98.31
254.028	99.31
254.261	107.31
254.494	116.31
254.727	113.31
254.96	101.31
255.193	111.31
255.426	101.31
255.659	107.31
255.892	111.31
256.124	98.31
256.357	104.31
256.59	99.31
256.823	105.31
257.056	112.31
257.289	105.31
257.521	96.31
257.754	106.31
257.987	99.31
258.22	115.31
258.452	117.31
258.685	101.31
258.918	100.31
259.151	102.31
259.383	104.31
259.616	98.31
259.849	119.31
260.081	115.31
260.314	92.31
260.547	117.31
260.779	104.31
261.012	122.31
261.244	95.31
261.477	109.31
261.71	94.31
261.942	108.31
262.175	119.31
262.407	98.31
262.64	108.31
262.872	86.31
263.105	95.31
263.337	112.31
263.57	117.31
263.802	103.31
264.035	113.31
264.267	116.31
264.499	97.31
264.732	111.31
264.964	112.31
265.197	106.31
265.429	108.31
265.661	109.31
265.894	98.31
266.126	114.31
266.358	108.31
266.591	111.31
266.823	111.31
267.055	106.31
267.287	103.31
267.52	85.31
267.752	119.31
267.984	103.31
268.216	109.31
268.448	109.31
268.681	111.31
268.913	110.31
269.145	113.31
269.377	102.31
269.609	106.31
269.841	120.31
270.073	116.31
270.306	102.31
270.538	125.31
270.77	133.31
271.002	122.31
271.234	112.31
271.466	136.31
271.698	117.31
271.93	114.31
272.162	116.31
272.394	122.31
272.626	103.31
272.858	119.31
273.09	130.31
273.322	113.31
273.553	117.31
273.785	129.31
274.017	130.31
274.249	122.31
274.481	110.31
274.713	117.31
274.945	133.31
275.176	123.31
275.408	141.31
275.64	122.31
275.872	114.31
276.104	125.31
276.335	111.31
276.567	107.31
276.799	123.31
277.031	133.31
277.262	125.31
277.494	122.31
277.726	121.31
277.957	119.31
278.189	114.31
278.421	118.31
278.652	122.31
278.884	129.31
279.115	132.31
279.347	129.31
279.579	125.31
279.81	118.31
280.042	113.31
280.273	131.31
280.505	122.31
280.736	120.31
280.968	137.31
281.199	128.31
281.431	125.31
281.662	127.31
281.894	130.31
282.125	131.31
282.356	138.31
282.588	127.31
282.819	127.31
283.051	116.31
283.282	128.31
283.513	134.31
283.745	135.31
283.976	133.31
284.207	138.31
284.439	123.31
284.67	143.31
284.901	143.31
285.132	132.31
285.364	139.31
285.595	109.31
285.826	127.31
286.057	134.31
286.288	133.31
286.52	144.31
286.751	139.31
286.982	125.31
287.213	138.31
287.444	132.31
287.675	130.31
287.906	136.31
288.138	120.31
288.369	140.31
288.6	143.31
288.831	134.31
289.062	137.31
289.293	134.31
289.524	140.31
289.755	143.31
289.986	135.31
290.217	138.31
290.448	114.31
290.679	149.31
290.91	151.31
291.141	140.31
291.371	134.31
291.602	139.31
291.833	131.31
292.064	133.31
292.295	140.31
292.526	141.31
292.757	153.31
292.987	133.31
293.218	139.31
293.449	150.31
293.68	147.31
293.91	134.31
294.141	127.31
294.372	152.31
294.603	131.31
294.833	121.31
295.064	140.31
295.295	145.31
295.525	141.31
295.756	143.31
295.987	131.31
296.217	134.31
296.448	130.31
296.679	149.31
296.909	136.31
297.14	141.31
297.37	149.31
297.601	135.31
297.831	134.31
298.062	127.31
298.292	123.31
298.523	141.31
298.753	150.31
298.984	138.31
299.214	145.31
299.445	137.31
299.675	147.31
299.905	143.31
300.136	140.31
300.366	136.31
300.597	151.31
300.827	163.31
301.057	149.31
301.288	144.31
301.518	132.31
301.748	145.31
301.979	144.31
302.209	144.31
302.439	135.31
302.669	148.31
302.9	152.31
303.13	126.31
303.36	137.31
303.59	142.31
303.82	143.31
304.051	153.31
304.281	152.31
304.511	139.31
304.741	151.31
304.971	158.31
305.201	166.31
305.431	163.31
305.661	154.31
305.891	123.31
306.121	144.31
306.352	144.31
306.582	143.31
306.812	164.31
307.042	145.31
307.272	155.31
307.502	145.31
307.731	151.31
307.961	153.31
308.191	143.31
308.421	148.31
308.651	148.31
308.881	147.31
309.111	147.31
309.341	153.31
309.571	155.31
309.8	145.31
310.03	150.31
310.26	143.31
310.49	151.31
310.72	148.31
310.949	159.31
311.179	147.31
311.409	167.31
311.639	159.31
311.868	164.31
312.098	146.31
312.328	153.31
312.557	153.31
312.787	164.31
313.017	160.31
313.246	177.31
313.476	154.31
313.706	143.31
313.935	170.31
314.165	163.31
314.394	156.31
314.624	153.31
314.853	146.31
315.083	149.31
315.312	173.31
315.542	159.31
315.771	156.31
316.001	166.31
316.23	151.31
316.46	145.31
316.689	142.31
316.919	159.31
317.148	156.31
317.377	149.31
317.607	139.31
317.836	163.31
318.065	155.31
318.295	145.31
318.524	162.31
318.753	153.31
318.983	154.31
319.212	148.31
319.441	177.31
319.67	162.31
319.9	159.31
320.129	151.31
320.358	140.31
320.587	148.31
320.816	138.31
321.046	149.31
321.275	162.31
321.504	141.31
321.733	145.31
321.962	152.31
322.191	152.31
322.42	160.31
322.649	154.31
322.878	168.31
323.108	164.31
323.337	168.31
323.566	144.31
323.795	150.31
324.024	154.31
324.253	163.31
324.482	157.31
324.71	162.31
324.939	176.31
325.168	182.31
325.397	157.31
325.626	181.31
325.855	175.31
326.084	164.31
326.313	182.31
326.542	170.31
326.77	175.31
326.999	168.31
327.228	166.31
327.457	173.31
327.686	154.31
327.914	167.31
328.143	179.31
328.372	175.31
328.6	155.31
328.829	167.31
329.058	168.31
329.287	162.31
329.515	154.31
329.744	171.31
329.972	176.31
330.201	163.31
330.43	161.31
330.658	164.31
330.887	148.31
331.115	169.31
331.344	165.31
331.572	181.31
331.801	190.31
332.03	173.31
332.258	182.31
332.486	190.31
332.715	189.31
332.943	204.31
333.172	199.31
333.4	206.31
333.629	196.31
333.857	205.31
334.085	201.31
334.314	190.31
334.542	185.31
334.771	187.31
334.999	194.31
335.227	187.31
335.455	206.31
335.684	187.31
335.912	184.31
336.14	167.31
336.369	211.31
336.597	195.31
336.825	183.31
337.053	179.31
337.281	190.31
337.51	206.31
337.738	175.31
337.966	176.31
338.194	178.31
338.422	178.31
338.65	181.31
338.878	178.31
339.106	186.31
339.334	189.31
339.562	190.31
339.79	164.31
340.018	173.31
340.246	173.31
340.474	179.31
340.702	178.31
340.93	189.31
341.158	175.31
341.386	158.31
341.614	159.31
341.842	181.31
342.07	150.31
342.298	161.31
342.526	162.31
342.754	162.31
342.981	179.31
343.209	169.31
343.437	199.31
343.665	193.31
343.893	194.31
344.12	197.31
344.348	183.31
344.576	178.31
344.804	181.31
345.031	177.31
345.259	189.31
345.487	169.31
345.714	173.31
345.942	157.31
346.17	197.31
346.397	162.31
346.625	182.31
346.853	168.31
347.08	159.31
347.308	183.31
347.535	169.31
347.763	172.31
347.99	175.31
348.218	183.31
348.445	157.31
348.673	176.31
348.9	170.31
349.128	171.31
349.355	179.31
349.583	178.31
349.81	155.31
350.037	174.31
350.265	155.31
350.492	157.31
350.72	161.31
350.947	161.31
351.174	170.31
351.402	181.31
351.629	177.31
351.856	143.31
352.083	168.31
352.311	164.31
352.538	175.31
352.765	175.31
352.992	174.31
353.22	167.31
353.447	177.31
353.674	163.31
353.901	165.31
354.128	167.31
354.355	158.31
354.583	164.31
354.81	187.31
355.037	169.31
355.264	169.31
355.491	159.31
355.718	175.31
355.945	163.31
356.172	182.31
356.399	175.31
356.626	174.31
356.853	165.31
357.08	185.31
357.307	178.31
357.534	167.31
357.761	166.31
357.988	155.31
358.215	178.31
358.441	177.31
358.668	177.31
358.895	160.31
359.122	169.31
359.349	173.31
359.576	182.31
359.802	165.31
360.029	176.31
360.256	174.31
360.483	173.31
360.709	157.31
360.936	162.31
361.163	170.31
361.39	161.31
361.616	164.31
361.843	173.31
362.07	164.31
362.296	175.31
362.523	170.31
362.749	179.31
362.976	180.31
363.203	181.31
363.429	153.31
363.656	180.31
363.882	165.31
364.109	171.31
364.335	173.31
364.562	158.31
364.788	164.31
365.015	177.31
365.241	166.31
365.468	182.31
365.694	175.31
365.92	177.31
366.147	169.31
366.373	173.31
366.599	167.31
366.826	173.31
367.052	173.31
367.278	172.31
367.505	181.31
367.731	174.31
367.957	167.31
368.184	174.31
368.41	185.31
368.636	181.31
368.862	168.31
369.089	177.31
369.315	185.31
369.541	179.31
369.767	182.31
369.993	181.31
370.219	178.31
370.445	169.31
370.672	193.31
370.898	170.31
371.124	162.31
371.35	182.31
371.576	197.31
371.802	177.31
372.028	171.31
372.254	186.31
372.48	189.31
372.706	196.31
372.932	170.31
373.158	178.31
373.384	175.31
373.61	191.31
373.835	166.31
374.061	173.31
374.287	183.31
374.513	181.31
374.739	206.31
374.965	197.31
375.191	193.31
375.416	198.31
375.642	183.31
375.868	178.31
376.094	169.31
376.319	190.31
376.545	187.31
376.771	189.31
376.997	188.31
377.222	187.31
377.448	190.31
377.674	189.31
377.899	178.31
378.125	194.31
378.35	192.31
378.576	174.31
378.802	179.31
379.027	164.31
379.253	177.31
379.478	190.31
379.704	182.31
379.929	184.31
380.155	184.31
380.38	189.31
380.606	175.31
380.831	170.31
381.057	185.31
381.282	183.31
381.507	188.31
381.733	185.31
381.958	165.31
382.184	188.31
382.409	190.31
382.634	180.31
382.86	184.31
383.085	195.31
383.31	187.31
383.535	207.31
383.761	204.31
383.986	196.31
384.211	204.31
384.436	207.31
384.662	197.31
384.887	206.31
385.112	202.31
385.337	207.31
385.562	229.31
385.787	218.31
386.013	216.31
386.238	221.31
386.463	205.31
386.688	209.31
386.913	194.31
387.138	203.31
387.363	218.31
387.588	210.31
387.813	203.31
388.038	217.31
388.263	210.31
388.488	215.31
388.713	201.31
388.938	214.31
389.163	207.31
389.387	216.31
389.612	207.31
389.837	196.31
390.062	205.31
390.287	210.31
390.512	206.31
390.736	204.31
390.961	223.31
391.186	218.31
391.411	221.31
391.636	203.31
391.86	226.31
392.085	217.31
392.31	198.31
392.534	224.31
392.759	215.31
392.984	221.31
393.208	217.31
393.433	213.31
393.658	216.31
393.882	216.31
394.107	213.31
394.331	215.31
394.556	235.31
394.78	237.31
395.005	239.31
395.229	224.31
395.454	235.31
395.678	247.31
395.903	232.31
396.127	213.31
396.352	231.31
396.576	220.31
396.801	231.31
397.025	222.31
397.249	237.31
397.474	243.31
397.698	231.31
397.922	230.31
398.147	221.31
398.371	221.31
398.595	235.31
398.82	255.31
399.044	255.31
399.268	282.31
399.492	339.31
399.717	330.31
399.941	319.31
400.165	271.31
400.389	272.31
400.613	266.31
400.837	250.31
401.062	253.31
401.286	251.31
401.51	269.31
401.734	222.31
401.958	247.31
402.182	261.31
402.406	262.31
402.63	258.31
402.854	260.31
403.078	255.31
403.302	253.31
403.526	278.31
403.75	276.31
403.974	274.31
404.198	275.31
404.422	275.31
404.645	262.31
404.869	269.31
405.093	283.31
405.317	257.31
405.541	274.31
405.765	256.31
405.988	259.31
406.212	254.31
406.436	274.31
406.66	276.31
406.883	266.31
407.107	300.31
407.331	294.31
407.555	299.31
407.778	291.31
408.002	283.31
408.226	287.31
408.449	285.31
408.673	276.31
408.896	283.31
409.12	265.31
409.344	278.31
409.567	269.31
409.791	286.31
410.014	273.31
410.238	271.31
410.461	257.31
410.685	266.31
410.908	264.31
411.132	259.31
411.355	269.31
411.578	256.31
411.802	247.31
412.025	265.31
412.249	256.31
412.472	290.31
412.695	266.31
412.919	237.31
413.142	232.31
413.365	257.31
413.589	256.31
413.812	254.31
414.035	255.31
414.258	258.31
414.482	247.31
414.705	251.31
414.928	268.31
415.151	256.31
415.374	271.31
415.597	259.31
415.821	254.31
416.044	258.31
416.267	238.31
416.49	244.31
416.713	260.31
416.936	264.31
417.159	250.31
417.382	244.31
417.605	261.31
417.828	252.31
418.051	259.31
418.274	245.31
418.497	258.31
418.72	269.31
418.943	269.31
419.166	259.31
419.389	293.31
419.611	271.31
419.834	259.31
420.057	249.31
420.28	257.31
420.503	219.31
420.726	244.31
420.948	241.31
421.171	267.31
421.394	261.31
421.617	259.31
421.839	244.31
422.062	252.31
422.285	266.31
422.507	269.31
422.73	266.31
422.953	277.31
423.175	265.31
423.398	265.31
423.621	279.31
423.843	253.31
424.066	254.31
424.288	267.31
424.511	268.31
424.733	267.31
424.956	264.31
425.178	277.31
425.401	262.31
425.623	273.31
425.846	245.31
426.068	245.31
426.291	251.31
426.513	245.31
426.735	269.31
426.958	273.31
427.18	254.31
427.402	257.31
427.625	232.31
427.847	237.31
428.069	226.31
428.292	246.31
428.514	233.31
428.736	245.31
428.958	242.31
429.181	246.31
429.403	227.31
429.625	233.31
429.847	241.31
430.069	231.31
430.292	245.31
430.514	241.31
430.736	251.31
430.958	237.31
431.18	241.31
431.402	242.31
431.624	247.31
431.846	238.31
432.068	233.31
432.29	251.31
432.512	245.31
432.734	237.31
432.956	229.31
433.178	248.31
433.4	249.31
433.622	241.31
433.844	240.31
434.066	249.31
434.287	250.31
434.509	248.31
434.731	263.31
434.953	261.31
435.175	266.31
435.397	240.31
435.618	240.31
435.84	242.31
436.062	230.31
436.284	257.31
436.505	259.31
436.727	264.31
436.949	261.31
437.17	241.31
437.392	218.31
437.614	238.31
437.835	222.31
438.057	239.31
438.278	232.31
438.5	247.31
438.721	245.31
438.943	244.31
439.165	241.31
439.386	244.31
439.608	259.31
439.829	254.31
440.05	246.31
440.272	257.31
440.493	265.31
440.715	265.31
440.936	273.31
441.158	271.31
441.379	283.31
441.6	279.31
441.822	289.31
442.043	270.31
442.264	259.31
442.486	272.31
442.707	273.31
442.928	261.31
443.149	274.31
443.371	274.31
443.592	302.31
443.813	289.31
444.034	258.31
444.255	266.31
444.476	301.31
444.698	303.31
444.919	289.31
445.14	401.31
445.361	345.31
445.582	293.31
445.803	267.31
446.024	282.31
446.245	264.31
446.466	263.31
446.687	282.31
446.908	271.31
447.129	252.31
447.35	253.31
447.571	262.31
447.792	254.31
448.013	242.31
448.234	239.31
448.455	233.31
448.675	243.31
448.896	249.31
449.117	232.31
449.338	253.31
449.559	247.31
449.779	240.31
450	239.31
450.221	237.31
450.442	246.31
450.662	241.31
450.883	246.31
451.104	250.31
451.324	244.31
451.545	243.31
451.766	238.31
451.986	241.31
452.207	230.31
452.428	247.31
452.648	263.31
452.869	218.31
453.089	207.31
453.31	233.31
453.53	224.31
453.751	223.31
453.971	233.31
454.192	227.31
454.412	206.31
454.633	234.31
454.853	241.31
455.073	240.31
455.294	213.31
455.514	227.31
455.734	237.31
455.955	230.31
456.175	217.31
456.395	222.31
456.616	197.31
456.836	223.31
457.056	209.31
457.276	215.31
457.497	239.31
457.717	226.31
457.937	224.31
458.157	232.31
458.377	237.31
458.598	233.31
458.818	207.31
459.038	222.31
459.258	262.31
459.478	225.31
459.698	253.31
459.918	245.31
460.138	267.31
460.358	276.31
460.578	278.31
460.798	262.31
461.018	285.31
461.238	273.31
461.458	274.31
461.678	266.31
461.898	286.31
462.118	281.31
462.338	294.31
462.558	295.31
462.777	299.31
462.997	323.31
463.217	342.31
463.437	332.31
463.657	311.31
463.876	303.31
464.096	307.31
464.316	301.31
464.536	303.31
464.755	305.31
464.975	285.31
465.195	283.31
465.414	286.31
465.634	275.31
465.854	253.31
466.073	247.31
466.293	240.31
466.512	253.31
466.732	262.31
466.951	238.31
467.171	255.31
467.391	253.31
467.61	244.31
467.829	232.31
468.049	243.31
468.268	257.31
468.488	245.31
468.707	257.31
468.927	230.31
469.146	232.31
469.365	247.31
469.585	257.31
469.804	253.31
470.023	249.31
470.243	254.31
470.462	258.31
470.681	246.31
470.901	257.31
471.12	251.31
471.339	257.31
471.558	231.31
471.777	238.31
471.997	243.31
472.216	253.31
472.435	231.31
472.654	221.31
472.873	210.31
473.092	242.31
473.311	234.31
473.53	223.31
473.749	238.31
473.968	229.31
474.187	240.31
474.406	219.31
474.625	226.31
474.844	241.31
475.063	242.31
475.282	242.31
475.501	234.31
475.72	228.31
475.939	228.31
476.158	239.31
476.377	239.31
476.596	240.31
476.814	231.31
477.033	228.31
477.252	237.31
477.471	238.31
477.69	257.31
477.908	255.31
478.127	240.31
478.346	277.31
478.564	266.31
478.783	253.31
479.002	282.31
479.22	289.31
479.439	276.31
479.658	261.31
479.876	284.31
480.095	256.31
480.313	282.31
480.532	294.31
480.751	285.31
480.969	262.31
481.188	257.31
481.406	252.31
481.624	272.31
481.843	242.31
482.061	228.31
482.28	263.31
482.498	242.31
482.717	257.31
482.935	257.31
483.153	256.31
483.372	252.31
483.59	286.31
483.808	260.31
484.027	261.31
484.245	239.31
484.463	245.31
484.681	272.31
484.9	268.31
485.118	259.31
485.336	256.31
485.554	256.31
485.772	267.31
485.99	250.31
486.209	247.31
486.427	277.31
486.645	259.31
486.863	280.31
487.081	277.31
487.299	267.31
487.517	268.31
487.735	279.31
487.953	279.31
488.171	273.31
488.389	275.31
488.607	237.31
488.825	258.31
489.043	269.31
489.261	264.31
489.479	262.31
489.696	266.31
489.914	252.31
490.132	249.31
490.35	259.31
490.568	271.31
490.786	265.31
491.003	279.31
491.221	278.31
491.439	258.31
491.657	292.31
491.874	279.31
492.092	274.31
492.31	294.31
492.527	285.31
492.745	287.31
492.963	279.31
493.18	298.31
493.398	289.31
493.615	305.31
493.833	288.31
494.05	277.31
494.268	282.31
494.485	286.31
494.703	268.31
494.92	293.31
495.138	286.31
495.355	281.31
495.573	276.31
495.79	286.31
496.008	273.31
496.225	270.31
496.442	284.31
496.66	274.31
496.877	292.31
497.094	293.31
497.312	290.31
497.529	293.31
497.746	311.31
497.963	329.31
498.181	323.31
498.398	343.31
498.615	345.31
498.832	352.31
499.049	367.31
499.267	389.31
499.484	446.31
499.701	479.31
499.918	480.31
500.135	545.31
500.352	579.31
500.569	593.31
500.786	575.31
501.003	544.31
501.22	506.31
501.437	452.31
501.654	442.31
501.871	389.31
502.088	375.31
502.305	345.31
502.522	345.31
502.739	340.31
502.956	312.31
503.172	329.31
503.389	287.31
503.606	287.31
503.823	297.31
504.04	279.31
504.256	297.31
504.473	301.31
504.69	330.31
504.907	281.31
505.123	266.31
505.34	260.31
505.557	265.31
505.773	243.31
505.99	275.31
506.207	252.31
506.423	253.31
506.64	254.31
506.856	237.31
507.073	232.31
507.289	265.31
507.506	234.31
507.722	237.31
507.939	253.31
508.155	241.31
508.372	229.31
508.588	242.31
508.805	247.31
509.021	227.31
509.238	238.31
509.454	231.31
509.67	211.31
509.887	206.31
510.103	208.31
510.319	219.31
510.536	232.31
510.752	228.31
510.968	230.31
511.184	213.31
511.401	243.31
511.617	229.31
511.833	229.31
512.049	223.31
512.265	212.31
512.481	213.31
512.698	238.31
512.914	226.31
513.13	217.31
513.346	214.31
513.562	234.31
513.778	224.31
513.994	225.31
514.21	221.31
514.426	219.31
514.642	215.31
514.858	218.31
515.074	224.31
515.29	226.31
515.506	243.31
515.721	225.31
515.937	232.31
516.153	237.31
516.369	228.31
516.585	223.31
516.801	244.31
517.016	259.31
517.232	260.31
517.448	271.31
517.664	257.31
517.879	267.31
518.095	282.31
518.311	273.31
518.527	260.31
518.742	267.31
518.958	255.31
519.173	241.31
519.389	242.31
519.605	238.31
519.82	242.31
520.036	274.31
520.251	258.31
520.467	232.31
520.682	221.31
520.898	212.31
521.113	228.31
521.329	223.31
521.544	230.31
521.76	207.31
521.975	214.31
522.19	214.31
522.406	216.31
522.621	216.31
522.836	194.31
523.052	211.31
523.267	210.31
523.482	210.31
523.698	223.31
523.913	224.31
524.128	214.31
524.343	200.31
524.559	217.31
524.774	208.31
524.989	216.31
525.204	210.31
525.419	228.31
525.634	219.31
525.849	203.31
526.064	214.31
526.28	212.31
526.495	192.31
526.71	213.31
526.925	203.31
527.14	194.31
527.355	185.31
527.57	211.31
527.785	215.31
527.999	195.31
528.214	194.31
528.429	198.31
528.644	196.31
528.859	213.31
529.074	210.31
529.289	215.31
529.503	216.31
529.718	220.31
529.933	212.31
530.148	203.31
530.363	216.31
530.577	194.31
530.792	200.31
531.007	210.31
531.221	213.31
531.436	215.31
531.651	206.31
531.865	197.31
532.08	215.31
532.295	214.31
532.509	205.31
532.724	196.31
532.938	207.31
533.153	199.31
533.367	206.31
533.582	194.31
533.796	205.31
534.011	211.31
534.225	226.31
534.44	193.31
534.654	197.31
534.868	185.31
535.083	212.31
535.297	196.31
535.511	208.31
535.726	198.31
535.94	201.31
536.154	208.31
536.369	200.31
536.583	205.31
536.797	202.31
537.011	201.31
537.225	200.31
537.44	197.31
537.654	190.31
537.868	198.31
538.082	192.31
538.296	206.31
538.51	208.31
538.724	202.31
538.938	189.31
539.153	202.31
539.367	206.31
539.581	197.31
539.795	187.31
540.009	192.31
540.222	186.31
540.436	188.31
540.65	194.31
540.864	202.31
541.078	202.31
541.292	201.31
541.506	201.31
541.72	195.31
541.934	201.31
542.147	219.31
542.361	202.31
542.575	191.31
542.789	198.31
543.002	185.31
543.216	187.31
543.43	195.31
543.644	196.31
543.857	193.31
544.071	187.31
544.285	219.31
544.498	195.31
544.712	207.31
544.925	204.31
545.139	207.31
545.352	193.31
545.566	199.31
545.779	193.31
545.993	196.31
546.206	205.31
546.42	209.31
546.633	196.31
546.847	202.31
547.06	209.31
547.274	202.31
547.487	215.31
547.7	198.31
547.914	203.31
548.127	203.31
548.34	200.31
548.554	213.31
548.767	198.31
548.98	203.31
549.193	202.31
549.407	196.31
549.62	195.31
549.833	212.31
550.046	202.31
550.259	214.31
550.473	205.31
550.686	199.31
550.899	199.31
551.112	205.31
551.325	169.31
551.538	194.31
551.751	195.31
551.964	192.31
552.177	190.31
552.39	191.31
552.603	190.31
552.816	209.31
553.029	223.31
553.242	210.31
553.455	201.31
553.667	193.31
553.88	203.31
554.093	196.31
554.306	187.31
554.519	195.31
554.732	203.31
554.944	187.31
555.157	192.31
555.37	194.31
555.583	208.31
555.795	182.31
556.008	182.31
556.221	178.31
556.433	192.31
556.646	181.31
556.859	186.31
557.071	171.31
557.284	177.31
557.496	177.31
557.709	179.31
557.921	188.31
558.134	179.31
558.346	197.31
558.559	182.31
558.771	181.31
558.984	174.31
559.196	163.31
559.409	184.31
559.621	169.31
559.833	170.31
560.046	182.31
560.258	180.31
560.47	179.31
560.683	172.31
560.895	172.31
561.107	170.31
561.32	186.31
561.532	173.31
561.744	173.31
561.956	189.31
562.168	168.31
562.381	176.31
562.593	173.31
562.805	185.31
563.017	187.31
563.229	189.31
563.441	187.31
563.653	190.31
563.865	175.31
564.077	155.31
564.289	158.31
564.501	175.31
564.713	189.31
564.925	184.31
565.137	192.31
565.349	189.31
565.561	188.31
565.773	195.31
565.985	202.31
566.197	201.31
566.408	230.31
566.62	221.31
566.832	224.31
567.044	235.31
567.255	234.31
567.467	233.31
567.679	261.31
567.891	253.31
568.102	249.31
568.314	232.31
568.526	237.31
568.737	225.31
568.949	221.31
569.161	205.31
569.372	192.31
569.584	196.31
569.795	201.31
570.007	190.31
570.218	174.31
570.43	185.31
570.641	170.31
570.853	178.31
571.064	170.31
571.276	171.31
571.487	178.31
571.698	157.31
571.91	163.31
572.121	159.31
572.333	167.31
572.544	169.31
572.755	160.31
572.966	170.31
573.178	158.31
573.389	170.31
573.6	162.31
573.811	142.31
574.023	155.31
574.234	133.31
574.445	160.31
574.656	155.31
574.867	149.31
575.078	151.31
575.289	170.31
575.501	144.31
575.712	132.31
575.923	140.31
576.134	159.31
576.345	162.31
576.556	155.31
576.767	143.31
576.978	153.31
577.188	151.31
577.399	134.31
577.61	158.31
577.821	146.31
578.032	128.31
578.243	148.31
578.454	140.31
578.665	153.31
578.875	143.31
579.086	140.31
579.297	131.31
579.508	131.31
579.718	137.31
579.929	144.31
580.14	144.31
580.35	135.31
580.561	143.31
580.772	131.31
580.982	145.31
581.193	149.31
581.403	138.31
581.614	142.31
581.825	130.31
582.035	151.31
582.246	132.31
582.456	133.31
582.667	129.31
582.877	141.31
583.087	145.31
583.298	142.31
583.508	131.31
583.719	139.31
583.929	148.31
584.139	140.31
584.35	132.31
584.56	141.31
584.77	133.31
584.981	152.31
585.191	138.31
585.401	147.31
585.611	143.31
585.821	136.31
586.032	132.31
586.242	135.31
586.452	148.31
586.662	136.31
586.872	148.31
587.082	131.31
587.292	115.31
587.502	137.31
587.713	133.31
587.923	157.31
588.133	123.31
588.343	141.31
588.553	131.31
588.762	120.31
588.972	161.31
589.182	143.31
589.392	133.31
589.602	142.31
589.812	130.31
590.022	140.31
590.232	128.31
590.441	152.31
590.651	146.31
590.861	153.31
591.071	136.31
591.281	135.31
591.49	135.31
591.7	142.31
591.91	130.31
592.119	147.31
592.329	129.31
592.539	137.31
592.748	143.31
592.958	157.31
593.167	145.31
593.377	154.31
593.587	163.31
593.796	141.31
594.006	160.31
594.215	151.31
594.424	153.31
594.634	159.31
594.843	145.31
595.053	149.31
595.262	136.31
595.472	141.31
595.681	144.31
595.89	125.31
596.1	129.31
596.309	136.31
596.518	141.31
596.727	125.31
596.937	129.31
597.146	128.31
597.355	136.31
597.564	136.31
597.774	135.31
597.983	134.31
598.192	126.31
598.401	122.31
598.61	136.31
598.819	135.31
599.028	135.31
599.237	127.31
599.446	123.31
599.655	134.31
599.864	133.31
600.073	125.31
600.282	125.31
600.491	114.31
600.7	127.31
600.909	127.31
601.118	127.31
601.327	122.31
601.536	133.31
601.745	134.31
601.953	124.31
602.162	116.31
602.371	135.31
602.58	127.31
602.789	133.31
602.997	125.31
603.206	117.31
603.415	116.31
603.623	127.31
603.832	127.31
604.041	129.31
604.249	125.31
604.458	120.31
604.666	130.31
604.875	123.31
605.084	111.31
605.292	125.31
605.501	108.31
605.709	117.31
605.918	134.31
606.126	119.31
606.334	131.31
606.543	131.31
606.751	125.31
606.96	105.31
607.168	129.31
607.376	126.31
607.585	133.31
607.793	127.31
608.001	130.31
608.21	130.31
608.418	136.31
608.626	124.31
608.834	115.31
609.043	119.31
609.251	123.31
609.459	103.31
609.667	129.31
609.875	119.31
610.083	122.31
610.291	138.31
610.499	120.31
610.707	110.31
610.916	122.31
611.124	117.31
611.332	120.31
611.54	119.31
611.748	119.31
611.955	114.31
612.163	127.31
612.371	117.31
612.579	106.31
612.787	111.31
612.995	116.31
613.203	133.31
613.411	122.31
613.618	121.31
613.826	109.31
614.034	107.31
614.242	123.31
614.449	135.31
614.657	130.31
614.865	114.31
615.072	114.31
615.28	145.31
615.488	123.31
615.695	125.31
615.903	128.31
616.111	110.31
616.318	121.31
616.526	131.31
616.733	116.31
616.941	131.31
617.148	137.31
617.356	120.31
617.563	106.31
617.771	112.31
617.978	112.31
618.185	121.31
618.393	113.31
618.6	120.31
618.807	102.31
619.015	116.31
619.222	132.31
619.429	117.31
619.637	118.31
619.844	110.31
620.051	107.31
620.258	109.31
620.466	128.31
620.673	122.31
620.88	115.31
621.087	118.31
621.294	119.31
621.501	122.31
621.708	112.31
621.915	107.31
622.122	119.31
622.329	129.31
622.536	107.31
622.743	106.31
622.95	113.31
623.157	121.31
623.364	110.31
623.571	114.31
623.778	115.31
623.985	113.31
624.192	121.31
624.399	118.31
624.606	115.31
624.812	115.31
625.019	96.31
625.226	109.31
625.433	117.31
625.639	105.31
625.846	105.31
626.053	111.31
626.259	115.31
626.466	102.31
626.673	103.31
626.879	110.31
627.086	111.31
627.293	120.31
627.499	106.31
627.706	109.31
627.912	105.31
628.119	106.31
628.325	107.31
628.532	126.31
628.738	101.31
628.945	105.31
629.151	97.31
629.357	123.31
629.564	109.31
629.77	99.31
629.976	108.31
630.183	99.31
630.389	116.31
630.595	115.31
630.802	123.31
631.008	109.31
631.214	94.31
631.42	108.31
631.627	115.31
631.833	103.31
632.039	111.31
632.245	122.31
632.451	95.31
632.657	110.31
632.863	118.31
633.069	98.31
633.275	112.31
633.481	98.31
633.688	98.31
633.893	89.31
634.099	116.31
634.305	104.31
634.511	103.31
634.717	111.31
634.923	97.31
635.129	109.31
635.335	118.31
635.541	83.31
635.747	121.31
635.952	100.31
636.158	93.31
636.364	103.31
636.57	114.31
636.775	113.31
636.981	110.31
637.187	99.31
637.392	125.31
637.598	128.31
637.804	107.31
638.009	106.31
638.215	106.31
638.421	114.31
638.626	102.31
638.832	86.31
639.037	104.31
639.243	107.31
639.448	98.31
639.654	124.31
639.859	112.31
640.065	97.31
640.27	107.31
640.475	109.31
640.681	102.31
640.886	121.31
641.091	101.31
641.297	114.31
641.502	99.31
641.707	100.31
641.913	101.31
642.118	102.31
642.323	96.31
642.528	102.31
642.733	113.31
642.939	92.31
643.144	107.31
643.349	93.31
643.554	103.31
643.759	101.31
643.964	96.31
644.169	101.31
644.374	106.31
644.579	104.31
644.784	110.31
644.989	106.31
645.194	107.31
645.399	106.31
645.604	100.31
645.809	106.31
646.014	106.31
646.219	103.31
646.423	87.31
646.628	109.31
646.833	101.31
647.038	107.31
647.243	107.31
647.447	114.31
647.652	96.31
647.857	107.31
648.062	104.31
648.266	109.31
648.471	95.31
648.676	115.31
648.88	113.31
649.085	96.31
649.289	115.31
649.494	114.31
649.698	112.31
649.903	118.31
650.107	113.31
650.312	86.31
650.516	100.31
650.721	103.31
650.925	119.31
651.13	114.31
651.334	93.31
651.539	94.31
651.743	98.31
651.947	102.31
652.152	100.31
652.356	106.31
652.56	111.31
652.764	112.31
652.969	98.31
653.173	91.31
653.377	117.31
653.581	102.31
653.785	95.31
653.99	108.31
654.194	114.31
654.398	99.31
654.602	84.31
654.806	99.31
655.01	115.31
655.214	104.31
655.418	111.31
655.622	97.31
655.826	111.31
656.03	102.31
656.234	95.31
656.438	111.31
656.642	105.31
656.846	118.31
657.049	114.31
657.253	99.31
657.457	97.31
657.661	105.31
657.865	118.31
658.068	97.31
658.272	92.31
658.476	91.31
658.68	93.31
658.883	103.31
659.087	85.31
659.291	97.31
659.494	103.31
659.698	93.31
659.901	86.31
660.105	77.31
660.309	71.31
660.512	91.31
660.716	85.31
660.919	93.31
661.123	76.31
661.326	102.31
661.53	95.31
661.733	82.31
661.936	89.31
662.14	83.31
662.343	75.31
662.546	82.31
662.75	89.31
662.953	85.31
663.156	75.31
663.36	86.31
663.563	63.31
663.766	74.31
663.969	70.31
664.173	82.31
664.376	92.31
664.579	87.31
664.782	83.31
664.985	77.31
665.188	81.31
665.391	71.31
665.594	75.31
665.797	76.31
666	83.31
666.203	70.31
666.406	76.31
666.609	79.31
666.812	79.31
667.015	65.31
667.218	70.31
667.421	73.31
667.624	70.31
667.827	71.31
668.03	82.31
668.232	76.31
668.435	72.31
668.638	78.31
668.841	84.31
669.043	85.31
669.246	85.31
669.449	77.31
669.651	81.31
669.854	77.31
670.057	83.31
670.259	81.31
670.462	93.31
670.665	86.31
670.867	89.31
671.07	64.31
671.272	84.31
671.475	70.31
671.677	85.31
671.88	58.31
672.082	83.31
672.284	65.31
672.487	71.31
672.689	75.31
672.892	94.31
