Data from Fe(NO3)3@0.1M.TitratingCurve.Agarose3%dH2O.NegLispCup.LampEnergy10.LIBS07252019_HRD10591_16-38-27-332.txt Node
Date: Thu Jul 25 16:38:27 EDT 2019
User: cochatt
Spectrometer: HR+D1059
Trigger mode: 1
Integration Time (sec): 1.000000E-1
Scans to average: 1
Electric dark correction enabled: true
Nonlinearity correction enabled: false
Boxcar width: 0
XAxis mode: Wavelengths
Number of Pixels in Spectrum: 2048
>>>>>Begin Spectral Data<<<<<
223.165	-33
223.4	-33
223.635	-33
223.869	-15
224.104	-27
224.338	-12
224.573	-18
224.808	-13
225.042	-4
225.277	8
225.511	4
225.746	8
225.98	2
226.215	14
226.449	12
226.683	19
226.918	24
227.152	31
227.387	31
227.621	49
227.856	43
228.09	43
228.324	32
228.559	35
228.793	52
229.027	72
229.262	80
229.496	80
229.73	82
229.964	82
230.199	76
230.433	93
230.667	76
230.901	82
231.136	88
231.37	96
231.604	93
231.838	103
232.072	86
232.306	84
232.541	93
232.775	110
233.009	115
233.243	101
233.477	96
233.711	95
233.945	107
234.179	79
234.413	102
234.647	75
234.881	93
235.115	97
235.349	90
235.583	96
235.817	92
236.051	87
236.285	100
236.519	106
236.753	85
236.987	110
237.221	86
237.455	92
237.689	96
237.922	91
238.156	107
238.39	90
238.624	107
238.858	109
239.091	110
239.325	108
239.559	107
239.793	98
240.027	107
240.26	104
240.494	101
240.728	110
240.961	106
241.195	94
241.429	102
241.662	102
241.896	112
242.13	107
242.363	105
242.597	106
242.83	110
243.064	100
243.298	104
243.531	110
243.765	103
243.998	116
244.232	109
244.465	119
244.699	116
244.932	105
245.166	118
245.399	122
245.633	109
245.866	117
246.099	116
246.333	105
246.566	113
246.8	114
247.033	126
247.266	126
247.5	118
247.733	119
247.966	119
248.2	111
248.433	110
248.666	110
248.899	129
249.133	127
249.366	128
249.599	129
249.832	131
250.066	127
250.299	118
250.532	113
250.765	121
250.998	119
251.231	122
251.465	119
251.698	122
251.931	119
252.164	120
252.397	113
252.63	136
252.863	122
253.096	111
253.329	118
253.562	117
253.795	131
254.028	117
254.261	124
254.494	105
254.727	128
254.96	138
255.193	128
255.426	128
255.659	129
255.892	135
256.124	136
256.357	139
256.59	133
256.823	136
257.056	138
257.289	135
257.521	145
257.754	130
257.987	134
258.22	142
258.452	134
258.685	123
258.918	146
259.151	138
259.383	128
259.616	138
259.849	148
260.081	145
260.314	140
260.547	143
260.779	139
261.012	151
261.244	136
261.477	138
261.71	153
261.942	134
262.175	141
262.407	148
262.64	140
262.872	130
263.105	147
263.337	158
263.57	146
263.802	144
264.035	147
264.267	162
264.499	153
264.732	137
264.964	146
265.197	135
265.429	153
265.661	155
265.894	154
266.126	163
266.358	154
266.591	150
266.823	149
267.055	152
267.287	157
267.52	163
267.752	165
267.984	154
268.216	153
268.448	157
268.681	155
268.913	176
269.145	163
269.377	146
269.609	149
269.841	166
270.073	161
270.306	162
270.538	151
270.77	161
271.002	162
271.234	143
271.466	161
271.698	166
271.93	161
272.162	163
272.394	170
272.626	158
272.858	166
273.09	151
273.322	174
273.553	167
273.785	145
274.017	180
274.249	182
274.481	172
274.713	172
274.945	168
275.176	166
275.408	185
275.64	178
275.872	180
276.104	156
276.335	176
276.567	180
276.799	180
277.031	176
277.262	179
277.494	161
277.726	186
277.957	197
278.189	187
278.421	177
278.652	171
278.884	185
279.115	206
279.347	187
279.579	183
279.81	182
280.042	178
280.273	200
280.505	177
280.736	188
280.968	194
281.199	186
281.431	179
281.662	193
281.894	187
282.125	197
282.356	186
282.588	193
282.819	172
283.051	179
283.282	187
283.513	187
283.745	206
283.976	195
284.207	198
284.439	197
284.67	203
284.901	179
285.132	199
285.364	211
285.595	210
285.826	191
286.057	198
286.288	191
286.52	183
286.751	194
286.982	195
287.213	203
287.444	202
287.675	197
287.906	203
288.138	192
288.369	203
288.6	204
288.831	209
289.062	216
289.293	183
289.524	203
289.755	192
289.986	201
290.217	201
290.448	202
290.679	187
290.91	187
291.141	187
291.371	203
291.602	206
291.833	214
292.064	205
292.295	207
292.526	196
292.757	191
292.987	211
293.218	207
293.449	200
293.68	193
293.91	223
294.141	219
294.372	195
294.603	224
294.833	199
295.064	203
295.295	206
295.525	189
295.756	212
295.987	186
296.217	201
296.448	201
296.679	226
296.909	201
297.14	200
297.37	222
297.601	201
297.831	222
298.062	197
298.292	222
298.523	219
298.753	227
298.984	211
299.214	207
299.445	231
299.675	214
299.905	209
300.136	225
300.366	212
300.597	227
300.827	223
301.057	215
301.288	223
301.518	214
301.748	228
301.979	243
302.209	211
302.439	225
302.669	226
302.9	199
303.13	233
303.36	225
303.59	228
303.82	203
304.051	194
304.281	232
304.511	223
304.741	239
304.971	227
305.201	208
305.431	211
305.661	231
305.891	212
306.121	210
306.352	199
306.582	219
306.812	230
307.042	225
307.272	218
307.502	215
307.731	247
307.961	211
308.191	219
308.421	213
308.651	226
308.881	231
309.111	231
309.341	225
309.571	226
309.8	238
310.03	232
310.26	228
310.49	235
310.72	207
310.949	224
311.179	234
311.409	223
311.639	227
311.868	228
312.098	226
312.328	214
312.557	233
312.787	232
313.017	241
313.246	232
313.476	230
313.706	243
313.935	231
314.165	230
314.394	246
314.624	221
314.853	230
315.083	232
315.312	223
315.542	230
315.771	229
316.001	238
316.23	240
316.46	234
316.689	234
316.919	229
317.148	230
317.377	242
317.607	262
317.836	233
318.065	235
318.295	219
318.524	245
318.753	239
318.983	231
319.212	235
319.441	245
319.67	238
319.9	231
320.129	224
320.358	229
320.587	228
320.816	228
321.046	234
321.275	236
321.504	235
321.733	241
321.962	246
322.191	242
322.42	252
322.649	238
322.878	234
323.108	228
323.337	234
323.566	230
323.795	224
324.024	246
324.253	245
324.482	249
324.71	252
324.939	230
325.168	240
325.397	242
325.626	254
325.855	256
326.084	238
326.313	257
326.542	272
326.77	249
326.999	251
327.228	253
327.457	262
327.686	249
327.914	248
328.143	252
328.372	262
328.6	258
328.829	254
329.058	267
329.287	233
329.515	268
329.744	267
329.972	268
330.201	256
330.43	259
330.658	255
330.887	280
331.115	264
331.344	271
331.572	264
331.801	250
332.03	264
332.258	254
332.486	254
332.715	276
332.943	285
333.172	286
333.4	321
333.629	310
333.857	317
334.085	313
334.314	313
334.542	312
334.771	305
334.999	312
335.227	280
335.455	281
335.684	324
335.912	314
336.14	311
336.369	272
336.597	314
336.825	292
337.053	313
337.281	310
337.51	287
337.738	290
337.966	265
338.194	289
338.422	281
338.65	279
338.878	286
339.106	293
339.334	283
339.562	290
339.79	262
340.018	254
340.246	258
340.474	267
340.702	260
340.93	280
341.158	277
341.386	273
341.614	275
341.842	264
342.07	260
342.298	248
342.526	264
342.754	267
342.981	272
343.209	278
343.437	279
343.665	287
343.893	283
344.12	305
344.348	299
344.576	297
344.804	272
345.031	279
345.259	269
345.487	260
345.714	270
345.942	268
346.17	268
346.397	256
346.625	277
346.853	260
347.08	262
347.308	272
347.535	243
347.763	271
347.99	256
348.218	260
348.445	266
348.673	263
348.9	250
349.128	264
349.355	268
349.583	261
349.81	239
350.037	267
350.265	276
350.492	266
350.72	247
350.947	274
351.174	264
351.402	252
351.629	260
351.856	260
352.083	245
352.311	256
352.538	256
352.765	259
352.992	247
353.22	283
353.447	255
353.674	253
353.901	263
354.128	253
354.355	233
354.583	250
354.81	267
355.037	274
355.264	264
355.491	260
355.718	255
355.945	262
356.172	252
356.399	268
356.626	259
356.853	246
357.08	266
357.307	264
357.534	263
357.761	259
357.988	260
358.215	266
358.441	242
358.668	258
358.895	246
359.122	239
359.349	252
359.576	250
359.802	264
360.029	254
360.256	250
360.483	279
360.709	258
360.936	278
361.163	280
361.39	258
361.616	259
361.843	243
362.07	257
362.296	273
362.523	255
362.749	256
362.976	248
363.203	258
363.429	261
363.656	265
363.882	264
364.109	247
364.335	275
364.562	270
364.788	274
365.015	255
365.241	258
365.468	277
365.694	254
365.92	254
366.147	241
366.373	248
366.599	250
366.826	244
367.052	255
367.278	246
367.505	255
367.731	265
367.957	265
368.184	259
368.41	259
368.636	256
368.862	275
369.089	259
369.315	259
369.541	261
369.767	276
369.993	276
370.219	258
370.445	286
370.672	271
370.898	267
371.124	266
371.35	298
371.576	275
371.802	268
372.028	279
372.254	277
372.48	296
372.706	281
372.932	287
373.158	283
373.384	294
373.61	293
373.835	295
374.061	281
374.287	282
374.513	266
374.739	291
374.965	314
375.191	305
375.416	308
375.642	303
375.868	297
376.094	297
376.319	289
376.545	282
376.771	291
376.997	294
377.222	268
377.448	282
377.674	292
377.899	284
378.125	288
378.35	299
378.576	287
378.802	291
379.027	288
379.253	272
379.478	283
379.704	293
379.929	304
380.155	276
380.38	284
380.606	279
380.831	288
381.057	294
381.282	292
381.507	288
381.733	273
381.958	297
382.184	290
382.409	294
382.634	290
382.86	317
383.085	312
383.31	319
383.535	319
383.761	314
383.986	306
384.211	318
384.436	325
384.662	332
384.887	326
385.112	341
385.337	324
385.562	338
385.787	327
386.013	330
386.238	346
386.463	336
386.688	346
386.913	327
387.138	324
387.363	352
387.588	361
387.813	331
388.038	336
388.263	335
388.488	341
388.713	326
388.938	326
389.163	335
389.387	333
389.612	346
389.837	335
390.062	322
390.287	345
390.512	346
390.736	334
390.961	368
391.186	369
391.411	358
391.636	361
391.86	369
392.085	358
392.31	378
392.534	374
392.759	366
392.984	359
393.208	346
393.433	352
393.658	341
393.882	339
394.107	352
394.331	354
394.556	357
394.78	363
395.005	358
395.229	341
395.454	362
395.678	380
395.903	351
396.127	363
396.352	382
396.576	369
396.801	363
397.025	366
397.249	382
397.474	386
397.698	381
397.922	383
398.147	386
398.371	402
398.595	400
398.82	400
399.044	408
399.268	447
399.492	499
399.717	498
399.941	532
400.165	510
400.389	466
400.613	450
400.837	440
401.062	424
401.286	419
401.51	406
401.734	415
401.958	408
402.182	410
402.406	424
402.63	433
402.854	423
403.078	434
403.302	440
403.526	420
403.75	434
403.974	449
404.198	432
404.422	457
404.645	446
404.869	435
405.093	440
405.317	436
405.541	442
405.765	432
405.988	429
406.212	438
406.436	444
406.66	449
406.883	474
407.107	465
407.331	494
407.555	503
407.778	518
408.002	488
408.226	510
408.449	503
408.673	491
408.896	452
409.12	475
409.344	473
409.567	476
409.791	462
410.014	467
410.238	455
410.461	498
410.685	458
410.908	460
411.132	434
411.355	437
411.578	446
411.802	431
412.025	447
412.249	438
412.472	448
412.695	442
412.919	432
413.142	436
413.365	437
413.589	435
413.812	426
414.035	436
414.258	416
414.482	436
414.705	440
414.928	443
415.151	445
415.374	451
415.597	414
415.821	417
416.044	400
416.267	424
416.49	425
416.713	411
416.936	407
417.159	401
417.382	431
417.605	405
417.828	414
418.051	435
418.274	421
418.497	402
418.72	410
418.943	415
419.166	432
419.389	446
419.611	450
419.834	451
420.057	424
420.28	427
420.503	400
420.726	388
420.948	406
421.171	423
421.394	401
421.617	386
421.839	413
422.062	405
422.285	411
422.507	410
422.73	422
422.953	406
423.175	418
423.398	403
423.621	430
423.843	401
424.066	426
424.288	425
424.511	409
424.733	426
424.956	417
425.178	416
425.401	411
425.623	397
425.846	436
426.068	396
426.291	391
426.513	378
426.735	406
426.958	404
427.18	392
427.402	386
427.625	386
427.847	383
428.069	370
428.292	388
428.514	400
428.736	380
428.958	386
429.181	367
429.403	374
429.625	379
429.847	364
430.069	370
430.292	372
430.514	388
430.736	388
430.958	375
431.18	386
431.402	382
431.624	375
431.846	373
432.068	393
432.29	386
432.512	381
432.734	376
432.956	394
433.178	392
433.4	374
433.622	382
433.844	385
434.066	394
434.287	386
434.509	396
434.731	386
434.953	411
435.175	420
435.397	411
435.618	404
435.84	401
436.062	391
436.284	381
436.505	384
436.727	385
436.949	396
437.17	378
437.392	367
437.614	369
437.835	379
438.057	378
438.278	367
438.5	390
438.721	375
438.943	380
439.165	380
439.386	373
439.608	383
439.829	394
440.05	379
440.272	373
440.493	402
440.715	390
440.936	377
441.158	370
441.379	395
441.6	433
441.822	402
442.043	404
442.264	396
442.486	391
442.707	412
442.928	404
443.149	406
443.371	407
443.592	398
443.813	403
444.034	407
444.255	418
444.476	434
444.698	449
444.919	468
445.14	551
445.361	480
445.582	431
445.803	410
446.024	424
446.245	394
446.466	393
446.687	391
446.908	359
447.129	372
447.35	370
447.571	376
447.792	369
448.013	374
448.234	357
448.455	353
448.675	358
448.896	350
449.117	337
449.338	366
449.559	354
449.779	354
450	353
450.221	377
450.442	347
450.662	349
450.883	369
451.104	380
451.324	370
451.545	361
451.766	368
451.986	357
452.207	352
452.428	353
452.648	347
452.869	336
453.089	355
453.31	330
453.53	350
453.751	331
453.971	348
454.192	339
454.412	326
454.633	346
454.853	338
455.073	318
455.294	346
455.514	345
455.734	327
455.955	336
456.175	350
456.395	348
456.616	342
456.836	331
457.056	350
457.276	322
457.497	338
457.717	324
457.937	338
458.157	350
458.377	347
458.598	355
458.818	366
459.038	371
459.258	374
459.478	379
459.698	386
459.918	375
460.138	400
460.358	416
460.578	421
460.798	422
461.018	425
461.238	433
461.458	436
461.678	434
461.898	444
462.118	432
462.338	454
462.558	454
462.777	464
462.997	487
463.217	522
463.437	516
463.657	519
463.876	487
464.096	504
464.316	480
464.536	483
464.755	461
464.975	467
465.195	449
465.414	434
465.634	433
465.854	404
466.073	394
466.293	381
466.512	387
466.732	391
466.951	406
467.171	402
467.391	370
467.61	372
467.829	383
468.049	376
468.268	377
468.488	347
468.707	357
468.927	378
469.146	364
469.365	386
469.585	357
469.804	354
470.023	375
470.243	362
470.462	385
470.681	376
470.901	396
471.12	363
471.339	367
471.558	381
471.777	363
471.997	364
472.216	358
472.435	346
472.654	366
472.873	358
473.092	368
473.311	356
473.53	367
473.749	379
473.968	340
474.187	350
474.406	346
474.625	352
474.844	352
475.063	368
475.282	352
475.501	362
475.72	363
475.939	381
476.158	342
476.377	358
476.596	367
476.814	380
477.033	382
477.252	392
477.471	403
477.69	378
477.908	370
478.127	419
478.346	391
478.564	415
478.783	413
479.002	417
479.22	415
479.439	440
479.658	430
479.876	418
480.095	442
480.313	452
480.532	428
480.751	446
480.969	418
481.188	409
481.406	414
481.624	403
481.843	384
482.061	396
482.28	416
482.498	413
482.717	402
482.935	402
483.153	407
483.372	433
483.59	411
483.808	419
484.027	415
484.245	411
484.463	419
484.681	400
484.9	408
485.118	417
485.336	414
485.554	412
485.772	425
485.99	414
486.209	405
486.427	432
486.645	410
486.863	427
487.081	432
487.299	421
487.517	416
487.735	424
487.953	402
488.171	419
488.389	402
488.607	420
488.825	425
489.043	410
489.261	409
489.479	411
489.696	404
489.914	430
490.132	425
490.35	429
490.568	436
490.786	428
491.003	432
491.221	438
491.439	432
491.657	427
491.874	463
492.092	459
492.31	454
492.527	412
492.745	436
492.963	449
493.18	443
493.398	407
493.615	438
493.833	453
494.05	457
494.268	456
494.485	451
494.703	466
494.92	457
495.138	462
495.355	428
495.573	450
495.79	455
496.008	452
496.225	449
496.442	467
496.66	450
496.877	500
497.094	488
497.312	480
497.529	493
497.746	479
497.963	497
498.181	533
498.398	555
498.615	568
498.832	574
499.049	618
499.267	641
499.484	719
499.701	766
499.918	806
500.135	855
500.352	949
500.569	958
500.786	958
501.003	937
501.22	868
501.437	796
501.654	739
501.871	694
502.088	649
502.305	624
502.522	581
502.739	568
502.956	558
503.172	529
503.389	518
503.606	500
503.823	490
504.04	500
504.256	480
504.473	504
504.69	483
504.907	516
505.123	454
505.34	473
505.557	443
505.773	427
505.99	432
506.207	416
506.423	442
506.64	416
506.856	412
507.073	421
507.289	406
507.506	387
507.722	385
507.939	402
508.155	379
508.372	376
508.588	382
508.805	373
509.021	376
509.238	359
509.454	374
509.67	374
509.887	380
510.103	367
510.319	368
510.536	363
510.752	350
510.968	371
511.184	368
511.401	373
511.617	353
511.833	358
512.049	364
512.265	366
512.481	365
512.698	376
512.914	352
513.13	363
513.346	373
513.562	378
513.778	362
513.994	388
514.21	376
514.426	379
514.642	356
514.858	382
515.074	392
515.29	375
515.506	368
515.721	368
515.937	385
516.153	390
516.369	389
516.585	402
516.801	388
517.016	416
517.232	417
517.448	448
517.664	449
517.879	458
518.095	453
518.311	443
518.527	447
518.742	432
518.958	431
519.173	419
519.389	408
519.605	396
519.82	406
520.036	386
520.251	375
520.467	376
520.682	378
520.898	354
521.113	360
521.329	356
521.544	350
521.76	352
521.975	351
522.19	346
522.406	358
522.621	359
522.836	338
523.052	345
523.267	336
523.482	344
523.698	337
523.913	328
524.128	340
524.343	351
524.559	340
524.774	334
524.989	331
525.204	327
525.419	328
525.634	344
525.849	342
526.064	342
526.28	339
526.495	320
526.71	334
526.925	346
527.14	331
527.355	327
527.57	319
527.785	327
527.999	323
528.214	338
528.429	340
528.644	341
528.859	360
529.074	338
529.289	335
529.503	332
529.718	342
529.933	336
530.148	336
530.363	345
530.577	334
530.792	330
531.007	331
531.221	327
531.436	341
531.651	335
531.865	336
532.08	338
532.295	337
532.509	334
532.724	339
532.938	343
533.153	329
533.367	332
533.582	325
533.796	326
534.011	313
534.225	328
534.44	344
534.654	351
534.868	323
535.083	328
535.297	322
535.511	327
535.726	341
535.94	334
536.154	321
536.369	328
536.583	303
536.797	319
537.011	308
537.225	318
537.44	302
537.654	314
537.868	323
538.082	311
538.296	299
538.51	310
538.724	323
538.938	298
539.153	314
539.367	299
539.581	311
539.795	297
540.009	338
540.222	295
540.436	316
540.65	302
540.864	282
541.078	299
541.292	323
541.506	316
541.72	311
541.934	327
542.147	303
542.361	313
542.575	302
542.789	328
543.002	312
543.216	283
543.43	309
543.644	312
543.857	295
544.071	306
544.285	310
544.498	320
544.712	305
544.925	304
545.139	298
545.352	306
545.566	299
545.779	314
545.993	318
546.206	315
546.42	330
546.633	307
546.847	334
547.06	310
547.274	311
547.487	318
547.7	302
547.914	314
548.127	319
548.34	315
548.554	313
548.767	302
548.98	313
549.193	314
549.407	305
549.62	321
549.833	322
550.046	315
550.259	305
550.473	319
550.686	308
550.899	315
551.112	293
551.325	312
551.538	332
551.751	315
551.964	315
552.177	297
552.39	292
552.603	319
552.816	328
553.029	317
553.242	331
553.455	330
553.667	346
553.88	331
554.093	313
554.306	316
554.519	324
554.732	314
554.944	304
555.157	292
555.37	292
555.583	307
555.795	276
556.008	295
556.221	282
556.433	311
556.646	306
556.859	294
557.071	280
557.284	295
557.496	286
557.709	279
557.921	284
558.134	269
558.346	274
558.559	262
558.771	268
558.984	294
559.196	278
559.409	267
559.621	259
559.833	262
560.046	274
560.258	268
560.47	268
560.683	280
560.895	291
561.107	271
561.32	272
561.532	283
561.744	274
561.956	275
562.168	260
562.381	282
562.593	275
562.805	296
563.017	265
563.229	276
563.441	279
563.653	266
563.865	283
564.077	287
564.289	284
564.501	283
564.713	289
564.925	280
565.137	275
565.349	296
565.561	295
565.773	311
565.985	315
566.197	320
566.408	331
566.62	353
566.832	360
567.044	364
567.255	365
567.467	378
567.679	392
567.891	407
568.102	422
568.314	390
568.526	384
568.737	352
568.949	324
569.161	319
569.372	287
569.584	306
569.795	285
570.007	269
570.218	263
570.43	282
570.641	262
570.853	265
571.064	271
571.276	266
571.487	252
571.698	249
571.91	264
572.121	269
572.333	243
572.544	254
572.755	229
572.966	240
573.178	227
573.389	215
573.6	220
573.811	233
574.023	235
574.234	221
574.445	231
574.656	201
574.867	238
575.078	219
575.289	233
575.501	231
575.712	219
575.923	217
576.134	210
576.345	227
576.556	204
576.767	212
576.978	233
577.188	221
577.399	206
577.61	195
577.821	208
578.032	207
578.243	217
578.454	211
578.665	219
578.875	222
579.086	208
579.297	211
579.508	207
579.718	208
579.929	208
580.14	195
580.35	195
580.561	211
580.772	211
580.982	200
581.193	211
581.403	194
581.614	200
581.825	221
582.035	222
582.246	205
582.456	197
582.667	192
582.877	195
583.087	197
583.298	191
583.508	202
583.719	202
583.929	197
584.139	193
584.35	194
584.56	197
584.77	195
584.981	193
585.191	185
585.401	190
585.611	202
585.821	201
586.032	189
586.242	203
586.452	185
586.662	191
586.872	208
587.082	197
587.292	193
587.502	193
587.713	200
587.923	189
588.133	203
588.343	194
588.553	193
588.762	190
588.972	194
589.182	187
589.392	190
589.602	214
589.812	189
590.022	199
590.232	184
590.441	202
590.651	190
590.861	176
591.071	181
591.281	202
591.49	211
591.7	198
591.91	203
592.119	209
592.329	211
592.539	216
592.748	222
592.958	192
593.167	236
593.377	223
593.587	228
593.796	207
594.006	212
594.215	238
594.424	231
594.634	237
594.843	210
595.053	198
595.262	213
595.472	192
595.681	208
595.89	207
596.1	199
596.309	190
596.518	186
596.727	195
596.937	180
597.146	192
597.355	171
597.564	183
597.774	179
597.983	179
598.192	168
598.401	182
598.61	176
598.819	172
599.028	188
599.237	181
599.446	161
599.655	180
599.864	179
600.073	168
600.282	170
600.491	177
600.7	168
600.909	171
601.118	167
601.327	170
601.536	179
601.745	164
601.953	168
602.162	188
602.371	181
602.58	168
602.789	167
602.997	173
603.206	169
603.415	171
603.623	167
603.832	152
604.041	165
604.249	171
604.458	167
604.666	170
604.875	163
605.084	165
605.292	176
605.501	158
605.709	158
605.918	172
606.126	153
606.334	159
606.543	166
606.751	158
606.96	159
607.168	152
607.376	159
607.585	160
607.793	155
608.001	141
608.21	169
608.418	171
608.626	160
608.834	164
609.043	156
609.251	171
609.459	157
609.667	176
609.875	146
610.083	161
610.291	171
610.499	168
610.707	169
610.916	163
611.124	155
611.332	173
611.54	162
611.748	158
611.955	148
612.163	166
612.371	151
612.579	162
612.787	154
612.995	150
613.203	162
613.411	159
613.618	151
613.826	147
614.034	162
614.242	152
614.449	155
614.657	167
614.865	153
615.072	157
615.28	172
615.488	169
615.695	150
615.903	181
616.111	156
616.318	151
616.526	154
616.733	154
616.941	146
617.148	147
617.356	164
617.563	170
617.771	172
617.978	151
618.185	160
618.393	159
618.6	164
618.807	144
619.015	152
619.222	173
619.429	163
619.637	165
619.844	158
620.051	165
620.258	142
620.466	146
620.673	164
620.88	130
621.087	155
621.294	146
621.501	136
621.708	142
621.915	156
622.122	154
622.329	152
622.536	156
622.743	146
622.95	136
623.157	137
623.364	152
623.571	126
623.778	150
623.985	138
624.192	144
624.399	140
624.606	142
624.812	147
625.019	146
625.226	144
625.433	158
625.639	150
625.846	147
626.053	150
626.259	140
626.466	138
626.673	130
626.879	131
627.086	155
627.293	148
627.499	151
627.706	138
627.912	143
628.119	129
628.325	148
628.532	134
628.738	138
628.945	129
629.151	145
629.357	154
629.564	130
629.77	136
629.976	138
630.183	137
630.389	147
630.595	130
630.802	126
631.008	128
631.214	126
631.42	134
631.627	133
631.833	138
632.039	138
632.245	125
632.451	128
632.657	132
632.863	139
633.069	130
633.275	138
633.481	124
633.688	114
633.893	124
634.099	140
634.305	120
634.511	131
634.717	124
634.923	144
635.129	129
635.335	135
635.541	132
635.747	124
635.952	137
636.158	146
636.364	149
636.57	135
636.775	149
636.981	119
637.187	118
637.392	125
637.598	137
637.804	128
638.009	138
638.215	130
638.421	120
638.626	121
638.832	124
639.037	128
639.243	130
639.448	118
639.654	130
639.859	132
640.065	120
640.27	124
640.475	124
640.681	118
640.886	123
641.091	115
641.297	123
641.502	131
641.707	122
641.913	114
642.118	107
642.323	119
642.528	126
642.733	115
642.939	120
643.144	118
643.349	116
643.554	113
643.759	113
643.964	124
644.169	127
644.374	118
644.579	119
644.784	124
644.989	113
645.194	134
645.399	115
645.604	118
645.809	135
646.014	130
646.219	129
646.423	128
646.628	122
646.833	132
647.038	134
647.243	130
647.447	122
647.652	127
647.857	121
648.062	124
648.266	138
648.471	132
648.676	131
648.88	122
649.085	136
649.289	119
649.494	123
649.698	126
649.903	115
650.107	133
650.312	119
650.516	125
650.721	144
650.925	128
651.13	116
651.334	116
651.539	115
651.743	118
651.947	114
652.152	115
652.356	118
652.56	117
652.764	114
652.969	129
653.173	105
653.377	109
653.581	118
653.785	98
653.99	106
654.194	102
654.398	116
654.602	117
654.806	98
655.01	89
655.214	94
655.418	125
655.622	110
655.826	113
656.03	125
656.234	112
656.438	102
656.642	124
656.846	129
657.049	99
657.253	102
657.457	115
657.661	106
657.865	104
658.068	101
658.272	93
658.476	110
658.68	82
658.883	97
659.087	101
659.291	75
659.494	100
659.698	98
659.901	97
660.105	87
660.309	94
660.512	90
660.716	91
660.919	107
661.123	87
661.326	79
661.53	85
661.733	82
661.936	98
662.14	80
662.343	77
662.546	87
662.75	82
662.953	80
663.156	86
663.36	82
663.563	82
663.766	82
663.969	75
664.173	90
664.376	78
664.579	66
664.782	67
664.985	77
665.188	67
665.391	79
665.594	83
665.797	93
666	86
666.203	64
666.406	65
666.609	72
666.812	82
667.015	83
667.218	83
667.421	76
667.624	76
667.827	82
668.03	85
668.232	94
668.435	91
668.638	73
668.841	94
669.043	62
669.246	89
669.449	86
669.651	76
669.854	85
670.057	73
670.259	80
670.462	70
670.665	76
670.867	60
671.07	84
671.272	76
671.475	84
671.677	80
671.88	76
672.082	80
672.284	72
672.487	80
672.689	70
672.892	83
