Data from Fe(NO3)3@0.1M.TitratingCurve.Agarose3%dH2O.NegLispCup.LampEnergy10.LIBS07252019_HRD10591_16-38-06-331.txt Node
Date: Thu Jul 25 16:38:06 EDT 2019
User: cochatt
Spectrometer: HR+D1059
Trigger mode: 1
Integration Time (sec): 1.000000E-1
Scans to average: 1
Electric dark correction enabled: true
Nonlinearity correction enabled: false
Boxcar width: 0
XAxis mode: Wavelengths
Number of Pixels in Spectrum: 2048
>>>>>Begin Spectral Data<<<<<
223.165	-11.56
223.4	-11.56
223.635	-11.56
223.869	-10.56
224.104	-17.56
224.338	-1.56
224.573	-17.56
224.808	-14.56
225.042	-7.56
225.277	-5.56
225.511	-6.56
225.746	-8.56
225.98	16.44
226.215	-0.56
226.449	10.44
226.683	23.44
226.918	22.44
227.152	29.44
227.387	32.44
227.621	20.44
227.856	31.44
228.09	39.44
228.324	44.44
228.559	43.44
228.793	47.44
229.027	62.44
229.262	68.44
229.496	63.44
229.73	66.44
229.964	57.44
230.199	75.44
230.433	80.44
230.667	86.44
230.901	64.44
231.136	70.44
231.37	67.44
231.604	81.44
231.838	78.44
232.072	86.44
232.306	72.44
232.541	93.44
232.775	92.44
233.009	90.44
233.243	76.44
233.477	84.44
233.711	80.44
233.945	79.44
234.179	77.44
234.413	76.44
234.647	81.44
234.881	88.44
235.115	72.44
235.349	80.44
235.583	83.44
235.817	80.44
236.051	65.44
236.285	71.44
236.519	81.44
236.753	70.44
236.987	81.44
237.221	63.44
237.455	68.44
237.689	68.44
237.922	76.44
238.156	93.44
238.39	77.44
238.624	65.44
238.858	77.44
239.091	81.44
239.325	88.44
239.559	75.44
239.793	73.44
240.027	73.44
240.26	68.44
240.494	82.44
240.728	56.44
240.961	77.44
241.195	85.44
241.429	80.44
241.662	68.44
241.896	73.44
242.13	73.44
242.363	79.44
242.597	78.44
242.83	95.44
243.064	60.44
243.298	86.44
243.531	67.44
243.765	75.44
243.998	75.44
244.232	77.44
244.465	85.44
244.699	74.44
244.932	73.44
245.166	81.44
245.399	88.44
245.633	80.44
245.866	93.44
246.099	75.44
246.333	70.44
246.566	84.44
246.8	91.44
247.033	80.44
247.266	95.44
247.5	79.44
247.733	80.44
247.966	79.44
248.2	88.44
248.433	81.44
248.666	76.44
248.899	88.44
249.133	92.44
249.366	85.44
249.599	80.44
249.832	87.44
250.066	101.44
250.299	83.44
250.532	91.44
250.765	84.44
250.998	73.44
251.231	88.44
251.465	82.44
251.698	78.44
251.931	94.44
252.164	88.44
252.397	99.44
252.63	93.44
252.863	81.44
253.096	82.44
253.329	92.44
253.562	82.44
253.795	91.44
254.028	87.44
254.261	72.44
254.494	76.44
254.727	92.44
254.96	77.44
255.193	87.44
255.426	85.44
255.659	97.44
255.892	113.44
256.124	82.44
256.357	79.44
256.59	92.44
256.823	93.44
257.056	75.44
257.289	82.44
257.521	89.44
257.754	92.44
257.987	105.44
258.22	88.44
258.452	82.44
258.685	99.44
258.918	92.44
259.151	98.44
259.383	101.44
259.616	100.44
259.849	88.44
260.081	89.44
260.314	101.44
260.547	93.44
260.779	89.44
261.012	91.44
261.244	96.44
261.477	102.44
261.71	82.44
261.942	80.44
262.175	92.44
262.407	102.44
262.64	92.44
262.872	88.44
263.105	96.44
263.337	95.44
263.57	92.44
263.802	91.44
264.035	83.44
264.267	83.44
264.499	102.44
264.732	91.44
264.964	80.44
265.197	96.44
265.429	100.44
265.661	78.44
265.894	96.44
266.126	104.44
266.358	84.44
266.591	82.44
266.823	95.44
267.055	75.44
267.287	103.44
267.52	102.44
267.752	96.44
267.984	94.44
268.216	100.44
268.448	94.44
268.681	91.44
268.913	93.44
269.145	101.44
269.377	84.44
269.609	95.44
269.841	91.44
270.073	103.44
270.306	101.44
270.538	96.44
270.77	99.44
271.002	95.44
271.234	81.44
271.466	96.44
271.698	93.44
271.93	93.44
272.162	89.44
272.394	95.44
272.626	99.44
272.858	111.44
273.09	126.44
273.322	107.44
273.553	72.44
273.785	105.44
274.017	90.44
274.249	91.44
274.481	104.44
274.713	96.44
274.945	100.44
275.176	101.44
275.408	116.44
275.64	107.44
275.872	101.44
276.104	103.44
276.335	106.44
276.567	101.44
276.799	83.44
277.031	109.44
277.262	103.44
277.494	98.44
277.726	107.44
277.957	94.44
278.189	107.44
278.421	92.44
278.652	109.44
278.884	95.44
279.115	99.44
279.347	100.44
279.579	96.44
279.81	95.44
280.042	99.44
280.273	100.44
280.505	108.44
280.736	96.44
280.968	114.44
281.199	98.44
281.431	110.44
281.662	90.44
281.894	87.44
282.125	104.44
282.356	101.44
282.588	114.44
282.819	104.44
283.051	99.44
283.282	97.44
283.513	106.44
283.745	87.44
283.976	100.44
284.207	107.44
284.439	116.44
284.67	109.44
284.901	108.44
285.132	101.44
285.364	106.44
285.595	101.44
285.826	96.44
286.057	118.44
286.288	119.44
286.52	93.44
286.751	96.44
286.982	118.44
287.213	95.44
287.444	110.44
287.675	112.44
287.906	105.44
288.138	106.44
288.369	100.44
288.6	113.44
288.831	111.44
289.062	109.44
289.293	107.44
289.524	100.44
289.755	91.44
289.986	96.44
290.217	107.44
290.448	115.44
290.679	97.44
290.91	101.44
291.141	117.44
291.371	115.44
291.602	108.44
291.833	109.44
292.064	94.44
292.295	100.44
292.526	99.44
292.757	109.44
292.987	100.44
293.218	102.44
293.449	116.44
293.68	85.44
293.91	94.44
294.141	97.44
294.372	108.44
294.603	101.44
294.833	105.44
295.064	103.44
295.295	107.44
295.525	108.44
295.756	101.44
295.987	101.44
296.217	110.44
296.448	108.44
296.679	107.44
296.909	104.44
297.14	110.44
297.37	116.44
297.601	109.44
297.831	97.44
298.062	112.44
298.292	114.44
298.523	104.44
298.753	115.44
298.984	111.44
299.214	126.44
299.445	119.44
299.675	115.44
299.905	107.44
300.136	104.44
300.366	111.44
300.597	104.44
300.827	107.44
301.057	117.44
301.288	110.44
301.518	111.44
301.748	121.44
301.979	119.44
302.209	101.44
302.439	107.44
302.669	104.44
302.9	116.44
303.13	98.44
303.36	110.44
303.59	101.44
303.82	102.44
304.051	106.44
304.281	129.44
304.511	125.44
304.741	113.44
304.971	112.44
305.201	110.44
305.431	103.44
305.661	115.44
305.891	100.44
306.121	112.44
306.352	106.44
306.582	118.44
306.812	120.44
307.042	115.44
307.272	117.44
307.502	108.44
307.731	120.44
307.961	126.44
308.191	100.44
308.421	107.44
308.651	119.44
308.881	97.44
309.111	111.44
309.341	126.44
309.571	113.44
309.8	102.44
310.03	115.44
310.26	119.44
310.49	113.44
310.72	118.44
310.949	104.44
311.179	129.44
311.409	110.44
311.639	96.44
311.868	109.44
312.098	115.44
312.328	101.44
312.557	113.44
312.787	118.44
313.017	108.44
313.246	110.44
313.476	112.44
313.706	123.44
313.935	122.44
314.165	111.44
314.394	113.44
314.624	104.44
314.853	116.44
315.083	135.44
315.312	123.44
315.542	116.44
315.771	126.44
316.001	107.44
316.23	110.44
316.46	116.44
316.689	114.44
316.919	112.44
317.148	121.44
317.377	106.44
317.607	126.44
317.836	116.44
318.065	101.44
318.295	120.44
318.524	112.44
318.753	113.44
318.983	104.44
319.212	116.44
319.441	126.44
319.67	108.44
319.9	123.44
320.129	95.44
320.358	116.44
320.587	120.44
320.816	124.44
321.046	114.44
321.275	118.44
321.504	106.44
321.733	121.44
321.962	126.44
322.191	119.44
322.42	122.44
322.649	117.44
322.878	113.44
323.108	121.44
323.337	119.44
323.566	111.44
323.795	109.44
324.024	109.44
324.253	104.44
324.482	111.44
324.71	112.44
324.939	118.44
325.168	136.44
325.397	104.44
325.626	110.44
325.855	121.44
326.084	101.44
326.313	123.44
326.542	117.44
326.77	121.44
326.999	100.44
327.228	116.44
327.457	123.44
327.686	131.44
327.914	119.44
328.143	131.44
328.372	112.44
328.6	125.44
328.829	115.44
329.058	109.44
329.287	104.44
329.515	122.44
329.744	114.44
329.972	118.44
330.201	132.44
330.43	110.44
330.658	119.44
330.887	129.44
331.115	123.44
331.344	108.44
331.572	117.44
331.801	136.44
332.03	116.44
332.258	129.44
332.486	127.44
332.715	124.44
332.943	128.44
333.172	129.44
333.4	130.44
333.629	131.44
333.857	136.44
334.085	134.44
334.314	125.44
334.542	132.44
334.771	133.44
334.999	127.44
335.227	132.44
335.455	123.44
335.684	130.44
335.912	121.44
336.14	129.44
336.369	134.44
336.597	128.44
336.825	119.44
337.053	135.44
337.281	118.44
337.51	128.44
337.738	136.44
337.966	113.44
338.194	110.44
338.422	121.44
338.65	111.44
338.878	118.44
339.106	123.44
339.334	124.44
339.562	117.44
339.79	121.44
340.018	123.44
340.246	111.44
340.474	118.44
340.702	109.44
340.93	108.44
341.158	127.44
341.386	115.44
341.614	116.44
341.842	117.44
342.07	119.44
342.298	113.44
342.526	113.44
342.754	114.44
342.981	117.44
343.209	127.44
343.437	131.44
343.665	120.44
343.893	129.44
344.12	135.44
344.348	139.44
344.576	127.44
344.804	120.44
345.031	125.44
345.259	113.44
345.487	125.44
345.714	120.44
345.942	133.44
346.17	114.44
346.397	111.44
346.625	129.44
346.853	113.44
347.08	127.44
347.308	125.44
347.535	118.44
347.763	117.44
347.99	123.44
348.218	121.44
348.445	138.44
348.673	108.44
348.9	119.44
349.128	128.44
349.355	124.44
349.583	120.44
349.81	120.44
350.037	102.44
350.265	106.44
350.492	112.44
350.72	126.44
350.947	128.44
351.174	120.44
351.402	124.44
351.629	126.44
351.856	106.44
352.083	119.44
352.311	119.44
352.538	118.44
352.765	122.44
352.992	125.44
353.22	123.44
353.447	115.44
353.674	129.44
353.901	112.44
354.128	119.44
354.355	127.44
354.583	126.44
354.81	127.44
355.037	130.44
355.264	124.44
355.491	126.44
355.718	124.44
355.945	118.44
356.172	115.44
356.399	118.44
356.626	121.44
356.853	123.44
357.08	120.44
357.307	122.44
357.534	110.44
357.761	120.44
357.988	117.44
358.215	129.44
358.441	122.44
358.668	127.44
358.895	130.44
359.122	121.44
359.349	127.44
359.576	122.44
359.802	107.44
360.029	107.44
360.256	116.44
360.483	135.44
360.709	118.44
360.936	113.44
361.163	110.44
361.39	120.44
361.616	110.44
361.843	111.44
362.07	119.44
362.296	126.44
362.523	120.44
362.749	137.44
362.976	115.44
363.203	119.44
363.429	132.44
363.656	127.44
363.882	117.44
364.109	120.44
364.335	118.44
364.562	99.44
364.788	125.44
365.015	129.44
365.241	123.44
365.468	118.44
365.694	124.44
365.92	115.44
366.147	131.44
366.373	123.44
366.599	128.44
366.826	137.44
367.052	130.44
367.278	132.44
367.505	132.44
367.731	130.44
367.957	129.44
368.184	121.44
368.41	111.44
368.636	120.44
368.862	120.44
369.089	128.44
369.315	129.44
369.541	115.44
369.767	124.44
369.993	123.44
370.219	121.44
370.445	112.44
370.672	127.44
370.898	125.44
371.124	135.44
371.35	119.44
371.576	128.44
371.802	127.44
372.028	116.44
372.254	115.44
372.48	125.44
372.706	129.44
372.932	132.44
373.158	141.44
373.384	142.44
373.61	131.44
373.835	131.44
374.061	140.44
374.287	125.44
374.513	117.44
374.739	123.44
374.965	121.44
375.191	127.44
375.416	136.44
375.642	139.44
375.868	129.44
376.094	131.44
376.319	131.44
376.545	131.44
376.771	138.44
376.997	127.44
377.222	133.44
377.448	123.44
377.674	126.44
377.899	129.44
378.125	143.44
378.35	123.44
378.576	120.44
378.802	125.44
379.027	143.44
379.253	130.44
379.478	144.44
379.704	128.44
379.929	136.44
380.155	135.44
380.38	134.44
380.606	140.44
380.831	141.44
381.057	124.44
381.282	133.44
381.507	134.44
381.733	151.44
381.958	135.44
382.184	140.44
382.409	127.44
382.634	144.44
382.86	137.44
383.085	144.44
383.31	153.44
383.535	130.44
383.761	120.44
383.986	153.44
384.211	141.44
384.436	152.44
384.662	147.44
384.887	147.44
385.112	127.44
385.337	142.44
385.562	143.44
385.787	151.44
386.013	144.44
386.238	140.44
386.463	153.44
386.688	165.44
386.913	146.44
387.138	152.44
387.363	159.44
387.588	152.44
387.813	152.44
388.038	163.44
388.263	151.44
388.488	144.44
388.713	146.44
388.938	132.44
389.163	168.44
389.387	160.44
389.612	165.44
389.837	150.44
390.062	142.44
390.287	141.44
390.512	135.44
390.736	166.44
390.961	176.44
391.186	160.44
391.411	164.44
391.636	152.44
391.86	152.44
392.085	154.44
392.31	163.44
392.534	158.44
392.759	162.44
392.984	162.44
393.208	172.44
393.433	165.44
393.658	158.44
393.882	162.44
394.107	159.44
394.331	157.44
394.556	159.44
394.78	187.44
395.005	177.44
395.229	166.44
395.454	170.44
395.678	163.44
395.903	174.44
396.127	160.44
396.352	169.44
396.576	157.44
396.801	171.44
397.025	158.44
397.249	178.44
397.474	171.44
397.698	166.44
397.922	165.44
398.147	173.44
398.371	183.44
398.595	192.44
398.82	184.44
399.044	201.44
399.268	191.44
399.492	229.44
399.717	248.44
399.941	231.44
400.165	214.44
400.389	202.44
400.613	189.44
400.837	179.44
401.062	189.44
401.286	172.44
401.51	172.44
401.734	172.44
401.958	179.44
402.182	203.44
402.406	189.44
402.63	188.44
402.854	181.44
403.078	195.44
403.302	195.44
403.526	210.44
403.75	185.44
403.974	206.44
404.198	212.44
404.422	215.44
404.645	199.44
404.869	191.44
405.093	203.44
405.317	201.44
405.541	200.44
405.765	206.44
405.988	199.44
406.212	211.44
406.436	192.44
406.66	218.44
406.883	220.44
407.107	206.44
407.331	233.44
407.555	233.44
407.778	216.44
408.002	210.44
408.226	206.44
408.449	182.44
408.673	219.44
408.896	205.44
409.12	214.44
409.344	208.44
409.567	219.44
409.791	199.44
410.014	208.44
410.238	208.44
410.461	200.44
410.685	192.44
410.908	212.44
411.132	200.44
411.355	218.44
411.578	199.44
411.802	195.44
412.025	197.44
412.249	198.44
412.472	199.44
412.695	196.44
412.919	197.44
413.142	185.44
413.365	197.44
413.589	187.44
413.812	201.44
414.035	192.44
414.258	193.44
414.482	188.44
414.705	184.44
414.928	201.44
415.151	200.44
415.374	194.44
415.597	191.44
415.821	194.44
416.044	196.44
416.267	204.44
416.49	188.44
416.713	191.44
416.936	196.44
417.159	201.44
417.382	188.44
417.605	184.44
417.828	192.44
418.051	191.44
418.274	205.44
418.497	216.44
418.72	186.44
418.943	195.44
419.166	195.44
419.389	217.44
419.611	201.44
419.834	205.44
420.057	192.44
420.28	200.44
420.503	188.44
420.726	186.44
420.948	182.44
421.171	204.44
421.394	212.44
421.617	195.44
421.839	200.44
422.062	198.44
422.285	201.44
422.507	198.44
422.73	201.44
422.953	196.44
423.175	206.44
423.398	206.44
423.621	196.44
423.843	188.44
424.066	206.44
424.288	215.44
424.511	204.44
424.733	199.44
424.956	197.44
425.178	196.44
425.401	201.44
425.623	189.44
425.846	183.44
426.068	197.44
426.291	192.44
426.513	185.44
426.735	197.44
426.958	189.44
427.18	195.44
427.402	184.44
427.625	189.44
427.847	190.44
428.069	190.44
428.292	197.44
428.514	193.44
428.736	188.44
428.958	188.44
429.181	176.44
429.403	183.44
429.625	183.44
429.847	178.44
430.069	178.44
430.292	188.44
430.514	197.44
430.736	189.44
430.958	190.44
431.18	186.44
431.402	169.44
431.624	186.44
431.846	173.44
432.068	186.44
432.29	185.44
432.512	198.44
432.734	194.44
432.956	189.44
433.178	190.44
433.4	198.44
433.622	183.44
433.844	190.44
434.066	190.44
434.287	188.44
434.509	205.44
434.731	198.44
434.953	203.44
435.175	208.44
435.397	199.44
435.618	179.44
435.84	194.44
436.062	186.44
436.284	195.44
436.505	185.44
436.727	187.44
436.949	189.44
437.17	181.44
437.392	191.44
437.614	174.44
437.835	177.44
438.057	193.44
438.278	187.44
438.5	207.44
438.721	190.44
438.943	183.44
439.165	178.44
439.386	176.44
439.608	186.44
439.829	201.44
440.05	180.44
440.272	179.44
440.493	203.44
440.715	190.44
440.936	199.44
441.158	206.44
441.379	201.44
441.6	205.44
441.822	223.44
442.043	209.44
442.264	202.44
442.486	205.44
442.707	197.44
442.928	204.44
443.149	211.44
443.371	215.44
443.592	193.44
443.813	200.44
444.034	205.44
444.255	223.44
444.476	226.44
444.698	239.44
444.919	232.44
445.14	323.44
445.361	258.44
445.582	201.44
445.803	181.44
446.024	204.44
446.245	201.44
446.466	194.44
446.687	200.44
446.908	192.44
447.129	194.44
447.35	179.44
447.571	180.44
447.792	189.44
448.013	187.44
448.234	191.44
448.455	171.44
448.675	188.44
448.896	177.44
449.117	193.44
449.338	165.44
449.559	191.44
449.779	181.44
450	167.44
450.221	179.44
450.442	177.44
450.662	186.44
450.883	165.44
451.104	191.44
451.324	193.44
451.545	165.44
451.766	184.44
451.986	188.44
452.207	182.44
452.428	181.44
452.648	194.44
452.869	184.44
453.089	172.44
453.31	177.44
453.53	168.44
453.751	167.44
453.971	178.44
454.192	181.44
454.412	178.44
454.633	178.44
454.853	167.44
455.073	160.44
455.294	172.44
455.514	177.44
455.734	185.44
455.955	167.44
456.175	184.44
456.395	161.44
456.616	172.44
456.836	181.44
457.056	176.44
457.276	159.44
457.497	157.44
457.717	176.44
457.937	174.44
458.157	167.44
458.377	148.44
458.598	176.44
458.818	188.44
459.038	193.44
459.258	193.44
459.478	194.44
459.698	194.44
459.918	199.44
460.138	204.44
460.358	205.44
460.578	195.44
460.798	213.44
461.018	200.44
461.238	208.44
461.458	193.44
461.678	196.44
461.898	235.44
462.118	224.44
462.338	227.44
462.558	228.44
462.777	211.44
462.997	228.44
463.217	265.44
463.437	270.44
463.657	246.44
463.876	254.44
464.096	243.44
464.316	221.44
464.536	234.44
464.755	229.44
464.975	224.44
465.195	216.44
465.414	210.44
465.634	212.44
465.854	197.44
466.073	182.44
466.293	205.44
466.512	195.44
466.732	191.44
466.951	185.44
467.171	200.44
467.391	186.44
467.61	204.44
467.829	205.44
468.049	189.44
468.268	188.44
468.488	195.44
468.707	183.44
468.927	178.44
469.146	190.44
469.365	173.44
469.585	199.44
469.804	187.44
470.023	188.44
470.243	201.44
470.462	205.44
470.681	197.44
470.901	192.44
471.12	196.44
471.339	192.44
471.558	192.44
471.777	178.44
471.997	171.44
472.216	178.44
472.435	190.44
472.654	175.44
472.873	175.44
473.092	193.44
473.311	179.44
473.53	168.44
473.749	185.44
473.968	185.44
474.187	187.44
474.406	179.44
474.625	193.44
474.844	182.44
475.063	192.44
475.282	190.44
475.501	183.44
475.72	193.44
475.939	179.44
476.158	182.44
476.377	188.44
476.596	197.44
476.814	180.44
477.033	191.44
477.252	201.44
477.471	196.44
477.69	204.44
477.908	199.44
478.127	208.44
478.346	211.44
478.564	211.44
478.783	222.44
479.002	214.44
479.22	213.44
479.439	224.44
479.658	210.44
479.876	218.44
480.095	219.44
480.313	218.44
480.532	217.44
480.751	214.44
480.969	203.44
481.188	208.44
481.406	212.44
481.624	205.44
481.843	187.44
482.061	201.44
482.28	208.44
482.498	213.44
482.717	188.44
482.935	197.44
483.153	204.44
483.372	220.44
483.59	217.44
483.808	205.44
484.027	198.44
484.245	206.44
484.463	203.44
484.681	202.44
484.9	200.44
485.118	211.44
485.336	199.44
485.554	205.44
485.772	198.44
485.99	193.44
486.209	199.44
486.427	205.44
486.645	207.44
486.863	223.44
487.081	211.44
487.299	200.44
487.517	216.44
487.735	216.44
487.953	236.44
488.171	222.44
488.389	216.44
488.607	196.44
488.825	199.44
489.043	215.44
489.261	221.44
489.479	203.44
489.696	206.44
489.914	203.44
490.132	211.44
490.35	201.44
490.568	205.44
490.786	223.44
491.003	215.44
491.221	206.44
491.439	235.44
491.657	212.44
491.874	223.44
492.092	227.44
492.31	228.44
492.527	237.44
492.745	232.44
492.963	221.44
493.18	219.44
493.398	235.44
493.615	233.44
493.833	219.44
494.05	217.44
494.268	229.44
494.485	224.44
494.703	240.44
494.92	226.44
495.138	215.44
495.355	228.44
495.573	222.44
495.79	227.44
496.008	233.44
496.225	252.44
496.442	231.44
496.66	229.44
496.877	234.44
497.094	237.44
497.312	224.44
497.529	223.44
497.746	241.44
497.963	248.44
498.181	253.44
498.398	257.44
498.615	258.44
498.832	271.44
499.049	293.44
499.267	314.44
499.484	331.44
499.701	351.44
499.918	371.44
500.135	425.44
500.352	473.44
500.569	487.44
500.786	465.44
501.003	453.44
501.22	408.44
501.437	377.44
501.654	335.44
501.871	328.44
502.088	293.44
502.305	295.44
502.522	281.44
502.739	271.44
502.956	276.44
503.172	256.44
503.389	237.44
503.606	248.44
503.823	236.44
504.04	217.44
504.256	244.44
504.473	226.44
504.69	232.44
504.907	228.44
505.123	235.44
505.34	197.44
505.557	191.44
505.773	224.44
505.99	219.44
506.207	216.44
506.423	202.44
506.64	217.44
506.856	203.44
507.073	196.44
507.289	195.44
507.506	225.44
507.722	213.44
507.939	204.44
508.155	190.44
508.372	212.44
508.588	201.44
508.805	208.44
509.021	207.44
509.238	182.44
509.454	197.44
509.67	198.44
509.887	208.44
510.103	205.44
510.319	193.44
510.536	195.44
510.752	179.44
510.968	177.44
511.184	184.44
511.401	196.44
511.617	198.44
511.833	181.44
512.049	200.44
512.265	194.44
512.481	184.44
512.698	185.44
512.914	187.44
513.13	204.44
513.346	196.44
513.562	192.44
513.778	201.44
513.994	183.44
514.21	186.44
514.426	172.44
514.642	184.44
514.858	181.44
515.074	196.44
515.29	198.44
515.506	220.44
515.721	189.44
515.937	185.44
516.153	195.44
516.369	195.44
516.585	201.44
516.801	226.44
517.016	205.44
517.232	215.44
517.448	223.44
517.664	243.44
517.879	225.44
518.095	250.44
518.311	226.44
518.527	219.44
518.742	207.44
518.958	219.44
519.173	209.44
519.389	206.44
519.605	210.44
519.82	187.44
520.036	197.44
520.251	207.44
520.467	191.44
520.682	187.44
520.898	191.44
521.113	200.44
521.329	184.44
521.544	194.44
521.76	183.44
521.975	199.44
522.19	179.44
522.406	179.44
522.621	186.44
522.836	179.44
523.052	185.44
523.267	176.44
523.482	194.44
523.698	183.44
523.913	184.44
524.128	175.44
524.343	181.44
524.559	182.44
524.774	182.44
524.989	183.44
525.204	214.44
525.419	179.44
525.634	179.44
525.849	181.44
526.064	181.44
526.28	191.44
526.495	177.44
526.71	173.44
526.925	188.44
527.14	182.44
527.355	181.44
527.57	179.44
527.785	176.44
527.999	163.44
528.214	183.44
528.429	180.44
528.644	184.44
528.859	196.44
529.074	184.44
529.289	187.44
529.503	175.44
529.718	177.44
529.933	191.44
530.148	166.44
530.363	165.44
530.577	175.44
530.792	169.44
531.007	171.44
531.221	190.44
531.436	191.44
531.651	185.44
531.865	175.44
532.08	167.44
532.295	164.44
532.509	165.44
532.724	175.44
532.938	171.44
533.153	188.44
533.367	184.44
533.582	183.44
533.796	174.44
534.011	164.44
534.225	189.44
534.44	187.44
534.654	201.44
534.868	183.44
535.083	195.44
535.297	179.44
535.511	171.44
535.726	174.44
535.94	179.44
536.154	161.44
536.369	187.44
536.583	182.44
536.797	185.44
537.011	178.44
537.225	165.44
537.44	175.44
537.654	179.44
537.868	185.44
538.082	177.44
538.296	164.44
538.51	195.44
538.724	193.44
538.938	187.44
539.153	180.44
539.367	174.44
539.581	179.44
539.795	159.44
540.009	179.44
540.222	185.44
540.436	172.44
540.65	162.44
540.864	176.44
541.078	183.44
541.292	184.44
541.506	183.44
541.72	167.44
541.934	162.44
542.147	181.44
542.361	167.44
542.575	166.44
542.789	177.44
543.002	171.44
543.216	176.44
543.43	178.44
543.644	165.44
543.857	175.44
544.071	181.44
544.285	176.44
544.498	166.44
544.712	186.44
544.925	175.44
545.139	177.44
545.352	180.44
545.566	177.44
545.779	171.44
545.993	179.44
546.206	187.44
546.42	186.44
546.633	178.44
546.847	164.44
547.06	165.44
547.274	168.44
547.487	196.44
547.7	177.44
547.914	180.44
548.127	190.44
548.34	176.44
548.554	177.44
548.767	176.44
548.98	176.44
549.193	189.44
549.407	168.44
549.62	173.44
549.833	192.44
550.046	196.44
550.259	188.44
550.473	183.44
550.686	182.44
550.899	159.44
551.112	171.44
551.325	164.44
551.538	182.44
551.751	183.44
551.964	181.44
552.177	166.44
552.39	169.44
552.603	181.44
552.816	174.44
553.029	185.44
553.242	176.44
553.455	197.44
553.667	182.44
553.88	187.44
554.093	183.44
554.306	178.44
554.519	178.44
554.732	168.44
554.944	181.44
555.157	166.44
555.37	155.44
555.583	178.44
555.795	170.44
556.008	168.44
556.221	168.44
556.433	178.44
556.646	159.44
556.859	159.44
557.071	167.44
557.284	155.44
557.496	180.44
557.709	161.44
557.921	165.44
558.134	152.44
558.346	171.44
558.559	151.44
558.771	157.44
558.984	155.44
559.196	159.44
559.409	171.44
559.621	159.44
559.833	160.44
560.046	149.44
560.258	149.44
560.47	165.44
560.683	179.44
560.895	152.44
561.107	159.44
561.32	152.44
561.532	171.44
561.744	166.44
561.956	167.44
562.168	173.44
562.381	166.44
562.593	159.44
562.805	162.44
563.017	168.44
563.229	156.44
563.441	165.44
563.653	140.44
563.865	175.44
564.077	169.44
564.289	163.44
564.501	167.44
564.713	187.44
564.925	157.44
565.137	169.44
565.349	179.44
565.561	167.44
565.773	167.44
565.985	173.44
566.197	175.44
566.408	194.44
566.62	195.44
566.832	216.44
567.044	205.44
567.255	206.44
567.467	197.44
567.679	214.44
567.891	228.44
568.102	237.44
568.314	209.44
568.526	212.44
568.737	187.44
568.949	175.44
569.161	163.44
569.372	168.44
569.584	164.44
569.795	176.44
570.007	167.44
570.218	149.44
570.43	161.44
570.641	158.44
570.853	143.44
571.064	141.44
571.276	165.44
571.487	145.44
571.698	172.44
571.91	142.44
572.121	136.44
572.333	166.44
572.544	159.44
572.755	141.44
572.966	156.44
573.178	147.44
573.389	152.44
573.6	153.44
573.811	141.44
574.023	137.44
574.234	147.44
574.445	151.44
574.656	151.44
574.867	131.44
575.078	146.44
575.289	123.44
575.501	143.44
575.712	133.44
575.923	132.44
576.134	140.44
576.345	141.44
576.556	116.44
576.767	129.44
576.978	135.44
577.188	153.44
577.399	137.44
577.61	147.44
577.821	150.44
578.032	137.44
578.243	123.44
578.454	131.44
578.665	147.44
578.875	122.44
579.086	137.44
579.297	136.44
579.508	113.44
579.718	141.44
579.929	140.44
580.14	124.44
580.35	141.44
580.561	115.44
580.772	146.44
580.982	123.44
581.193	131.44
581.403	131.44
581.614	134.44
581.825	130.44
582.035	135.44
582.246	129.44
582.456	124.44
582.667	117.44
582.877	135.44
583.087	127.44
583.298	127.44
583.508	114.44
583.719	134.44
583.929	145.44
584.139	139.44
584.35	119.44
584.56	121.44
584.77	121.44
584.981	125.44
585.191	116.44
585.401	125.44
585.611	119.44
585.821	130.44
586.032	127.44
586.242	119.44
586.452	129.44
586.662	123.44
586.872	128.44
587.082	127.44
587.292	119.44
587.502	114.44
587.713	129.44
587.923	125.44
588.133	128.44
588.343	127.44
588.553	125.44
588.762	122.44
588.972	137.44
589.182	125.44
589.392	126.44
589.602	124.44
589.812	130.44
590.022	143.44
590.232	130.44
590.441	133.44
590.651	115.44
590.861	129.44
591.071	126.44
591.281	124.44
591.49	132.44
591.7	138.44
591.91	121.44
592.119	129.44
592.329	129.44
592.539	135.44
592.748	154.44
592.958	145.44
593.167	153.44
593.377	139.44
593.587	135.44
593.796	143.44
594.006	147.44
594.215	150.44
594.424	136.44
594.634	138.44
594.843	149.44
595.053	140.44
595.262	120.44
595.472	123.44
595.681	112.44
595.89	127.44
596.1	113.44
596.309	119.44
596.518	121.44
596.727	116.44
596.937	122.44
597.146	133.44
597.355	109.44
597.564	122.44
597.774	109.44
597.983	123.44
598.192	125.44
598.401	133.44
598.61	112.44
598.819	118.44
599.028	120.44
599.237	116.44
599.446	126.44
599.655	117.44
599.864	119.44
600.073	112.44
600.282	117.44
600.491	126.44
600.7	104.44
600.909	96.44
601.118	121.44
601.327	118.44
601.536	121.44
601.745	112.44
601.953	125.44
602.162	110.44
602.371	104.44
602.58	119.44
602.789	105.44
602.997	112.44
603.206	122.44
603.415	105.44
603.623	101.44
603.832	111.44
604.041	111.44
604.249	117.44
604.458	119.44
604.666	117.44
604.875	113.44
605.084	125.44
605.292	118.44
605.501	115.44
605.709	107.44
605.918	113.44
606.126	111.44
606.334	116.44
606.543	106.44
606.751	131.44
606.96	114.44
607.168	116.44
607.376	129.44
607.585	101.44
607.793	103.44
608.001	121.44
608.21	112.44
608.418	115.44
608.626	118.44
608.834	115.44
609.043	108.44
609.251	118.44
609.459	115.44
609.667	124.44
609.875	110.44
610.083	123.44
610.291	112.44
610.499	114.44
610.707	101.44
610.916	121.44
611.124	110.44
611.332	109.44
611.54	120.44
611.748	122.44
611.955	109.44
612.163	114.44
612.371	119.44
612.579	101.44
612.787	107.44
612.995	118.44
613.203	119.44
613.411	111.44
613.618	119.44
613.826	114.44
614.034	111.44
614.242	109.44
614.449	93.44
614.657	116.44
614.865	115.44
615.072	116.44
615.28	110.44
615.488	108.44
615.695	110.44
615.903	117.44
616.111	121.44
616.318	132.44
616.526	110.44
616.733	115.44
616.941	112.44
617.148	109.44
617.356	119.44
617.563	110.44
617.771	105.44
617.978	113.44
618.185	117.44
618.393	104.44
618.6	103.44
618.807	101.44
619.015	104.44
619.222	123.44
619.429	117.44
619.637	104.44
619.844	113.44
620.051	97.44
620.258	118.44
620.466	107.44
620.673	110.44
620.88	102.44
621.087	115.44
621.294	100.44
621.501	104.44
621.708	115.44
621.915	87.44
622.122	101.44
622.329	108.44
622.536	98.44
622.743	109.44
622.95	105.44
623.157	105.44
623.364	96.44
623.571	102.44
623.778	111.44
623.985	104.44
624.192	117.44
624.399	90.44
624.606	105.44
624.812	114.44
625.019	103.44
625.226	111.44
625.433	104.44
625.639	104.44
625.846	86.44
626.053	102.44
626.259	111.44
626.466	103.44
626.673	95.44
626.879	99.44
627.086	84.44
627.293	118.44
627.499	113.44
627.706	114.44
627.912	112.44
628.119	105.44
628.325	104.44
628.532	96.44
628.738	104.44
628.945	88.44
629.151	94.44
629.357	121.44
629.564	107.44
629.77	102.44
629.976	105.44
630.183	104.44
630.389	102.44
630.595	95.44
630.802	101.44
631.008	101.44
631.214	100.44
631.42	109.44
631.627	111.44
631.833	109.44
632.039	90.44
632.245	94.44
632.451	104.44
632.657	94.44
632.863	103.44
633.069	98.44
633.275	94.44
633.481	85.44
633.688	107.44
633.893	105.44
634.099	92.44
634.305	106.44
634.511	109.44
634.717	107.44
634.923	95.44
635.129	102.44
635.335	109.44
635.541	103.44
635.747	109.44
635.952	100.44
636.158	99.44
636.364	102.44
636.57	96.44
636.775	105.44
636.981	93.44
637.187	105.44
637.392	94.44
637.598	86.44
637.804	102.44
638.009	100.44
638.215	104.44
638.421	86.44
638.626	112.44
638.832	103.44
639.037	116.44
639.243	102.44
639.448	93.44
639.654	95.44
639.859	94.44
640.065	93.44
640.27	115.44
640.475	107.44
640.681	103.44
640.886	93.44
641.091	107.44
641.297	85.44
641.502	104.44
641.707	103.44
641.913	100.44
642.118	84.44
642.323	101.44
642.528	110.44
642.733	96.44
642.939	96.44
643.144	94.44
643.349	80.44
643.554	100.44
643.759	85.44
643.964	100.44
644.169	98.44
644.374	93.44
644.579	99.44
644.784	78.44
644.989	93.44
645.194	100.44
645.399	96.44
645.604	107.44
645.809	107.44
646.014	105.44
646.219	101.44
646.423	101.44
646.628	107.44
646.833	104.44
647.038	81.44
647.243	90.44
647.447	91.44
647.652	89.44
647.857	92.44
648.062	100.44
648.266	88.44
648.471	96.44
648.676	90.44
648.88	84.44
649.085	101.44
649.289	107.44
649.494	94.44
649.698	98.44
649.903	95.44
650.107	102.44
650.312	103.44
650.516	94.44
650.721	101.44
650.925	100.44
651.13	101.44
651.334	91.44
651.539	83.44
651.743	92.44
651.947	85.44
652.152	80.44
652.356	83.44
652.56	91.44
652.764	102.44
652.969	91.44
653.173	90.44
653.377	96.44
653.581	92.44
653.785	108.44
653.99	92.44
654.194	103.44
654.398	105.44
654.602	86.44
654.806	100.44
655.01	98.44
655.214	109.44
655.418	87.44
655.622	84.44
655.826	88.44
656.03	95.44
656.234	87.44
656.438	83.44
656.642	91.44
656.846	88.44
657.049	94.44
657.253	87.44
657.457	83.44
657.661	85.44
657.865	96.44
658.068	79.44
658.272	74.44
658.476	79.44
658.68	91.44
658.883	94.44
659.087	86.44
659.291	83.44
659.494	82.44
659.698	89.44
659.901	72.44
660.105	83.44
660.309	88.44
660.512	89.44
660.716	71.44
660.919	81.44
661.123	65.44
661.326	92.44
661.53	93.44
661.733	69.44
661.936	79.44
662.14	67.44
662.343	72.44
662.546	86.44
662.75	73.44
662.953	88.44
663.156	71.44
663.36	81.44
663.563	77.44
663.766	87.44
663.969	67.44
664.173	81.44
664.376	81.44
664.579	64.44
664.782	84.44
664.985	71.44
665.188	75.44
665.391	66.44
665.594	86.44
665.797	88.44
666	65.44
666.203	67.44
666.406	79.44
666.609	84.44
666.812	81.44
667.015	81.44
667.218	56.44
667.421	76.44
667.624	89.44
667.827	71.44
668.03	68.44
668.232	69.44
668.435	88.44
668.638	70.44
668.841	82.44
669.043	87.44
669.246	69.44
669.449	65.44
669.651	80.44
669.854	88.44
670.057	62.44
670.259	67.44
670.462	69.44
670.665	95.44
670.867	84.44
671.07	89.44
671.272	88.44
671.475	79.44
671.677	83.44
671.88	72.44
672.082	84.44
672.284	83.44
672.487	91.44
672.689	68.44
672.892	80.44
