Data from Fe(NO3)3@0.1M.TitratingCurve.Agarose3%dH2O.NegLispCup.LampEnergy10.LIBS07252019_HRD10591_16-37-55-331.txt Node
Date: Thu Jul 25 16:37:55 EDT 2019
User: cochatt
Spectrometer: HR+D1059
Trigger mode: 1
Integration Time (sec): 1.000000E-1
Scans to average: 1
Electric dark correction enabled: true
Nonlinearity correction enabled: false
Boxcar width: 0
XAxis mode: Wavelengths
Number of Pixels in Spectrum: 2048
>>>>>Begin Spectral Data<<<<<
223.165	-23.69
223.4	-23.69
223.635	-23.69
223.869	-21.69
224.104	-12.69
224.338	-2.69
224.573	-4.69
224.808	-29.69
225.042	-8.69
225.277	3.31
225.511	-10.69
225.746	16.31
225.98	5.31
226.215	6.31
226.449	7.31
226.683	24.31
226.918	24.31
227.152	27.31
227.387	31.31
227.621	46.31
227.856	55.31
228.09	43.31
228.324	53.31
228.559	54.31
228.793	59.31
229.027	59.31
229.262	81.31
229.496	84.31
229.73	76.31
229.964	80.31
230.199	79.31
230.433	76.31
230.667	94.31
230.901	93.31
231.136	98.31
231.37	93.31
231.604	80.31
231.838	91.31
232.072	100.31
232.306	92.31
232.541	90.31
232.775	94.31
233.009	89.31
233.243	94.31
233.477	95.31
233.711	98.31
233.945	102.31
234.179	102.31
234.413	90.31
234.647	93.31
234.881	81.31
235.115	96.31
235.349	84.31
235.583	95.31
235.817	85.31
236.051	99.31
236.285	81.31
236.519	90.31
236.753	91.31
236.987	96.31
237.221	89.31
237.455	82.31
237.689	85.31
237.922	74.31
238.156	80.31
238.39	77.31
238.624	88.31
238.858	94.31
239.091	84.31
239.325	87.31
239.559	85.31
239.793	79.31
240.027	84.31
240.26	86.31
240.494	94.31
240.728	97.31
240.961	85.31
241.195	86.31
241.429	91.31
241.662	87.31
241.896	87.31
242.13	81.31
242.363	96.31
242.597	84.31
242.83	85.31
243.064	97.31
243.298	98.31
243.531	89.31
243.765	85.31
243.998	102.31
244.232	104.31
244.465	87.31
244.699	101.31
244.932	84.31
245.166	93.31
245.399	104.31
245.633	108.31
245.866	91.31
246.099	93.31
246.333	92.31
246.566	100.31
246.8	101.31
247.033	97.31
247.266	97.31
247.5	101.31
247.733	112.31
247.966	103.31
248.2	93.31
248.433	95.31
248.666	105.31
248.899	103.31
249.133	111.31
249.366	102.31
249.599	104.31
249.832	102.31
250.066	93.31
250.299	97.31
250.532	97.31
250.765	101.31
250.998	99.31
251.231	106.31
251.465	95.31
251.698	105.31
251.931	98.31
252.164	96.31
252.397	115.31
252.63	99.31
252.863	101.31
253.096	110.31
253.329	104.31
253.562	104.31
253.795	94.31
254.028	117.31
254.261	111.31
254.494	110.31
254.727	110.31
254.96	105.31
255.193	111.31
255.426	103.31
255.659	106.31
255.892	113.31
256.124	97.31
256.357	116.31
256.59	111.31
256.823	119.31
257.056	113.31
257.289	96.31
257.521	92.31
257.754	106.31
257.987	124.31
258.22	108.31
258.452	99.31
258.685	119.31
258.918	115.31
259.151	110.31
259.383	105.31
259.616	112.31
259.849	126.31
260.081	101.31
260.314	107.31
260.547	123.31
260.779	125.31
261.012	130.31
261.244	114.31
261.477	127.31
261.71	116.31
261.942	115.31
262.175	115.31
262.407	119.31
262.64	110.31
262.872	120.31
263.105	133.31
263.337	125.31
263.57	115.31
263.802	131.31
264.035	121.31
264.267	112.31
264.499	113.31
264.732	125.31
264.964	126.31
265.197	124.31
265.429	128.31
265.661	123.31
265.894	126.31
266.126	116.31
266.358	128.31
266.591	134.31
266.823	142.31
267.055	130.31
267.287	125.31
267.52	123.31
267.752	117.31
267.984	124.31
268.216	129.31
268.448	127.31
268.681	126.31
268.913	122.31
269.145	119.31
269.377	125.31
269.609	131.31
269.841	128.31
270.073	118.31
270.306	128.31
270.538	128.31
270.77	111.31
271.002	131.31
271.234	117.31
271.466	121.31
271.698	130.31
271.93	132.31
272.162	131.31
272.394	112.31
272.626	126.31
272.858	132.31
273.09	125.31
273.322	129.31
273.553	127.31
273.785	134.31
274.017	128.31
274.249	128.31
274.481	121.31
274.713	136.31
274.945	144.31
275.176	150.31
275.408	127.31
275.64	134.31
275.872	141.31
276.104	134.31
276.335	129.31
276.567	145.31
276.799	129.31
277.031	133.31
277.262	139.31
277.494	126.31
277.726	136.31
277.957	114.31
278.189	139.31
278.421	150.31
278.652	137.31
278.884	136.31
279.115	127.31
279.347	120.31
279.579	116.31
279.81	139.31
280.042	120.31
280.273	144.31
280.505	133.31
280.736	139.31
280.968	128.31
281.199	129.31
281.431	133.31
281.662	139.31
281.894	141.31
282.125	135.31
282.356	143.31
282.588	143.31
282.819	139.31
283.051	136.31
283.282	146.31
283.513	153.31
283.745	146.31
283.976	140.31
284.207	138.31
284.439	148.31
284.67	144.31
284.901	137.31
285.132	145.31
285.364	143.31
285.595	127.31
285.826	139.31
286.057	146.31
286.288	145.31
286.52	151.31
286.751	131.31
286.982	152.31
287.213	142.31
287.444	137.31
287.675	141.31
287.906	149.31
288.138	158.31
288.369	156.31
288.6	145.31
288.831	142.31
289.062	151.31
289.293	160.31
289.524	144.31
289.755	146.31
289.986	131.31
290.217	137.31
290.448	151.31
290.679	147.31
290.91	130.31
291.141	129.31
291.371	136.31
291.602	150.31
291.833	143.31
292.064	148.31
292.295	147.31
292.526	133.31
292.757	142.31
292.987	147.31
293.218	166.31
293.449	158.31
293.68	120.31
293.91	155.31
294.141	140.31
294.372	171.31
294.603	151.31
294.833	141.31
295.064	155.31
295.295	136.31
295.525	147.31
295.756	147.31
295.987	152.31
296.217	138.31
296.448	163.31
296.679	151.31
296.909	143.31
297.14	152.31
297.37	165.31
297.601	151.31
297.831	154.31
298.062	139.31
298.292	141.31
298.523	159.31
298.753	142.31
298.984	147.31
299.214	148.31
299.445	159.31
299.675	135.31
299.905	155.31
300.136	155.31
300.366	153.31
300.597	160.31
300.827	154.31
301.057	155.31
301.288	156.31
301.518	149.31
301.748	168.31
301.979	168.31
302.209	160.31
302.439	163.31
302.669	160.31
302.9	160.31
303.13	148.31
303.36	154.31
303.59	151.31
303.82	155.31
304.051	151.31
304.281	154.31
304.511	146.31
304.741	159.31
304.971	137.31
305.201	165.31
305.431	156.31
305.661	159.31
305.891	168.31
306.121	159.31
306.352	160.31
306.582	155.31
306.812	141.31
307.042	164.31
307.272	161.31
307.502	153.31
307.731	162.31
307.961	153.31
308.191	166.31
308.421	170.31
308.651	154.31
308.881	165.31
309.111	142.31
309.341	162.31
309.571	167.31
309.8	147.31
310.03	158.31
310.26	170.31
310.49	159.31
310.72	156.31
310.949	150.31
311.179	151.31
311.409	161.31
311.639	163.31
311.868	161.31
312.098	157.31
312.328	157.31
312.557	162.31
312.787	166.31
313.017	165.31
313.246	153.31
313.476	155.31
313.706	155.31
313.935	169.31
314.165	171.31
314.394	163.31
314.624	159.31
314.853	165.31
315.083	174.31
315.312	173.31
315.542	177.31
315.771	160.31
316.001	175.31
316.23	159.31
316.46	175.31
316.689	155.31
316.919	173.31
317.148	167.31
317.377	165.31
317.607	155.31
317.836	159.31
318.065	163.31
318.295	167.31
318.524	161.31
318.753	163.31
318.983	151.31
319.212	173.31
319.441	166.31
319.67	157.31
319.9	173.31
320.129	147.31
320.358	157.31
320.587	154.31
320.816	157.31
321.046	165.31
321.275	163.31
321.504	154.31
321.733	170.31
321.962	163.31
322.191	175.31
322.42	160.31
322.649	166.31
322.878	176.31
323.108	168.31
323.337	170.31
323.566	183.31
323.795	165.31
324.024	150.31
324.253	167.31
324.482	166.31
324.71	175.31
324.939	162.31
325.168	162.31
325.397	164.31
325.626	176.31
325.855	184.31
326.084	177.31
326.313	180.31
326.542	172.31
326.77	189.31
326.999	174.31
327.228	165.31
327.457	174.31
327.686	161.31
327.914	171.31
328.143	192.31
328.372	159.31
328.6	187.31
328.829	176.31
329.058	195.31
329.287	179.31
329.515	188.31
329.744	172.31
329.972	189.31
330.201	172.31
330.43	171.31
330.658	171.31
330.887	176.31
331.115	159.31
331.344	180.31
331.572	193.31
331.801	188.31
332.03	175.31
332.258	187.31
332.486	183.31
332.715	191.31
332.943	188.31
333.172	210.31
333.4	219.31
333.629	208.31
333.857	206.31
334.085	207.31
334.314	201.31
334.542	189.31
334.771	198.31
334.999	195.31
335.227	182.31
335.455	201.31
335.684	184.31
335.912	192.31
336.14	188.31
336.369	212.31
336.597	202.31
336.825	199.31
337.053	195.31
337.281	200.31
337.51	195.31
337.738	208.31
337.966	161.31
338.194	163.31
338.422	182.31
338.65	183.31
338.878	186.31
339.106	174.31
339.334	189.31
339.562	180.31
339.79	169.31
340.018	191.31
340.246	162.31
340.474	177.31
340.702	190.31
340.93	194.31
341.158	174.31
341.386	167.31
341.614	179.31
341.842	183.31
342.07	165.31
342.298	170.31
342.526	175.31
342.754	187.31
342.981	168.31
343.209	170.31
343.437	198.31
343.665	179.31
343.893	212.31
344.12	216.31
344.348	198.31
344.576	193.31
344.804	199.31
345.031	187.31
345.259	185.31
345.487	179.31
345.714	180.31
345.942	185.31
346.17	184.31
346.397	150.31
346.625	172.31
346.853	162.31
347.08	182.31
347.308	167.31
347.535	175.31
347.763	180.31
347.99	181.31
348.218	179.31
348.445	166.31
348.673	182.31
348.9	191.31
349.128	201.31
349.355	189.31
349.583	185.31
349.81	190.31
350.037	168.31
350.265	171.31
350.492	175.31
350.72	162.31
350.947	167.31
351.174	174.31
351.402	171.31
351.629	183.31
351.856	191.31
352.083	179.31
352.311	181.31
352.538	160.31
352.765	183.31
352.992	164.31
353.22	173.31
353.447	175.31
353.674	166.31
353.901	176.31
354.128	174.31
354.355	170.31
354.583	164.31
354.81	182.31
355.037	176.31
355.264	179.31
355.491	167.31
355.718	187.31
355.945	181.31
356.172	183.31
356.399	185.31
356.626	174.31
356.853	161.31
357.08	187.31
357.307	168.31
357.534	178.31
357.761	171.31
357.988	195.31
358.215	182.31
358.441	187.31
358.668	164.31
358.895	182.31
359.122	185.31
359.349	184.31
359.576	193.31
359.802	168.31
360.029	167.31
360.256	175.31
360.483	177.31
360.709	189.31
360.936	181.31
361.163	174.31
361.39	191.31
361.616	176.31
361.843	171.31
362.07	179.31
362.296	164.31
362.523	175.31
362.749	164.31
362.976	174.31
363.203	173.31
363.429	181.31
363.656	184.31
363.882	171.31
364.109	176.31
364.335	148.31
364.562	178.31
364.788	167.31
365.015	172.31
365.241	176.31
365.468	181.31
365.694	168.31
365.92	151.31
366.147	161.31
366.373	173.31
366.599	173.31
366.826	163.31
367.052	172.31
367.278	173.31
367.505	188.31
367.731	186.31
367.957	177.31
368.184	184.31
368.41	167.31
368.636	174.31
368.862	176.31
369.089	184.31
369.315	179.31
369.541	189.31
369.767	196.31
369.993	185.31
370.219	166.31
370.445	172.31
370.672	167.31
370.898	179.31
371.124	175.31
371.35	188.31
371.576	210.31
371.802	195.31
372.028	179.31
372.254	208.31
372.48	213.31
372.706	189.31
372.932	192.31
373.158	187.31
373.384	206.31
373.61	200.31
373.835	204.31
374.061	198.31
374.287	192.31
374.513	197.31
374.739	207.31
374.965	192.31
375.191	214.31
375.416	205.31
375.642	207.31
375.868	200.31
376.094	191.31
376.319	197.31
376.545	180.31
376.771	189.31
376.997	201.31
377.222	193.31
377.448	209.31
377.674	195.31
377.899	193.31
378.125	167.31
378.35	190.31
378.576	179.31
378.802	195.31
379.027	184.31
379.253	183.31
379.478	191.31
379.704	192.31
379.929	183.31
380.155	197.31
380.38	194.31
380.606	191.31
380.831	183.31
381.057	187.31
381.282	177.31
381.507	191.31
381.733	183.31
381.958	200.31
382.184	204.31
382.409	197.31
382.634	205.31
382.86	208.31
383.085	206.31
383.31	191.31
383.535	216.31
383.761	213.31
383.986	210.31
384.211	218.31
384.436	211.31
384.662	219.31
384.887	218.31
385.112	230.31
385.337	212.31
385.562	219.31
385.787	216.31
386.013	228.31
386.238	217.31
386.463	216.31
386.688	223.31
386.913	214.31
387.138	221.31
387.363	215.31
387.588	208.31
387.813	211.31
388.038	213.31
388.263	222.31
388.488	232.31
388.713	224.31
388.938	207.31
389.163	216.31
389.387	227.31
389.612	211.31
389.837	224.31
390.062	230.31
390.287	233.31
390.512	233.31
390.736	229.31
390.961	247.31
391.186	233.31
391.411	234.31
391.636	224.31
391.86	220.31
392.085	237.31
392.31	248.31
392.534	237.31
392.759	238.31
392.984	231.31
393.208	231.31
393.433	233.31
393.658	247.31
393.882	238.31
394.107	238.31
394.331	226.31
394.556	229.31
394.78	236.31
395.005	254.31
395.229	236.31
395.454	231.31
395.678	245.31
395.903	238.31
396.127	244.31
396.352	258.31
396.576	253.31
396.801	223.31
397.025	232.31
397.249	229.31
397.474	230.31
397.698	231.31
397.922	250.31
398.147	229.31
398.371	248.31
398.595	263.31
398.82	267.31
399.044	296.31
399.268	299.31
399.492	330.31
399.717	361.31
399.941	373.31
400.165	335.31
400.389	299.31
400.613	298.31
400.837	280.31
401.062	257.31
401.286	269.31
401.51	286.31
401.734	267.31
401.958	285.31
402.182	276.31
402.406	272.31
402.63	274.31
402.854	288.31
403.078	303.31
403.302	291.31
403.526	296.31
403.75	297.31
403.974	296.31
404.198	302.31
404.422	301.31
404.645	304.31
404.869	300.31
405.093	310.31
405.317	294.31
405.541	307.31
405.765	285.31
405.988	281.31
406.212	295.31
406.436	293.31
406.66	307.31
406.883	303.31
407.107	331.31
407.331	312.31
407.555	324.31
407.778	312.31
408.002	317.31
408.226	316.31
408.449	311.31
408.673	304.31
408.896	301.31
409.12	304.31
409.344	325.31
409.567	291.31
409.791	293.31
410.014	308.31
410.238	296.31
410.461	302.31
410.685	318.31
410.908	285.31
411.132	296.31
411.355	274.31
411.578	316.31
411.802	284.31
412.025	299.31
412.249	308.31
412.472	300.31
412.695	273.31
412.919	275.31
413.142	267.31
413.365	264.31
413.589	290.31
413.812	293.31
414.035	277.31
414.258	299.31
414.482	282.31
414.705	269.31
414.928	291.31
415.151	299.31
415.374	287.31
415.597	284.31
415.821	269.31
416.044	272.31
416.267	265.31
416.49	273.31
416.713	286.31
416.936	302.31
417.159	301.31
417.382	280.31
417.605	247.31
417.828	248.31
418.051	274.31
418.274	270.31
418.497	286.31
418.72	291.31
418.943	292.31
419.166	308.31
419.389	301.31
419.611	305.31
419.834	301.31
420.057	295.31
420.28	269.31
420.503	273.31
420.726	269.31
420.948	269.31
421.171	279.31
421.394	268.31
421.617	271.31
421.839	270.31
422.062	294.31
422.285	263.31
422.507	270.31
422.73	274.31
422.953	271.31
423.175	283.31
423.398	311.31
423.621	293.31
423.843	291.31
424.066	305.31
424.288	288.31
424.511	287.31
424.733	283.31
424.956	291.31
425.178	289.31
425.401	276.31
425.623	281.31
425.846	260.31
426.068	279.31
426.291	267.31
426.513	274.31
426.735	267.31
426.958	278.31
427.18	265.31
427.402	254.31
427.625	261.31
427.847	259.31
428.069	266.31
428.292	280.31
428.514	259.31
428.736	258.31
428.958	267.31
429.181	251.31
429.403	243.31
429.625	265.31
429.847	248.31
430.069	254.31
430.292	258.31
430.514	261.31
430.736	256.31
430.958	260.31
431.18	245.31
431.402	237.31
431.624	233.31
431.846	255.31
432.068	251.31
432.29	266.31
432.512	251.31
432.734	262.31
432.956	272.31
433.178	265.31
433.4	272.31
433.622	266.31
433.844	267.31
434.066	259.31
434.287	276.31
434.509	287.31
434.731	279.31
434.953	271.31
435.175	294.31
435.397	273.31
435.618	275.31
435.84	263.31
436.062	253.31
436.284	259.31
436.505	244.31
436.727	246.31
436.949	262.31
437.17	277.31
437.392	249.31
437.614	246.31
437.835	251.31
438.057	254.31
438.278	262.31
438.5	259.31
438.721	273.31
438.943	250.31
439.165	254.31
439.386	245.31
439.608	252.31
439.829	260.31
440.05	253.31
440.272	257.31
440.493	252.31
440.715	258.31
440.936	266.31
441.158	260.31
441.379	261.31
441.6	278.31
441.822	288.31
442.043	285.31
442.264	298.31
442.486	269.31
442.707	293.31
442.928	275.31
443.149	292.31
443.371	287.31
443.592	279.31
443.813	286.31
444.034	281.31
444.255	295.31
444.476	320.31
444.698	309.31
444.919	303.31
445.14	421.31
445.361	364.31
445.582	298.31
445.803	269.31
446.024	280.31
446.245	251.31
446.466	275.31
446.687	247.31
446.908	255.31
447.129	253.31
447.35	249.31
447.571	260.31
447.792	261.31
448.013	256.31
448.234	241.31
448.455	253.31
448.675	267.31
448.896	256.31
449.117	242.31
449.338	245.31
449.559	253.31
449.779	241.31
450	245.31
450.221	243.31
450.442	254.31
450.662	265.31
450.883	256.31
451.104	235.31
451.324	245.31
451.545	248.31
451.766	250.31
451.986	269.31
452.207	264.31
452.428	244.31
452.648	254.31
452.869	231.31
453.089	240.31
453.31	234.31
453.53	235.31
453.751	245.31
453.971	217.31
454.192	224.31
454.412	239.31
454.633	234.31
454.853	257.31
455.073	208.31
455.294	238.31
455.514	217.31
455.734	251.31
455.955	218.31
456.175	225.31
456.395	223.31
456.616	234.31
456.836	236.31
457.056	240.31
457.276	214.31
457.497	221.31
457.717	221.31
457.937	231.31
458.157	237.31
458.377	244.31
458.598	229.31
458.818	249.31
459.038	249.31
459.258	238.31
459.478	259.31
459.698	253.31
459.918	273.31
460.138	263.31
460.358	268.31
460.578	324.31
460.798	283.31
461.018	286.31
461.238	307.31
461.458	283.31
461.678	274.31
461.898	294.31
462.118	296.31
462.338	303.31
462.558	302.31
462.777	320.31
462.997	360.31
463.217	360.31
463.437	367.31
463.657	354.31
463.876	334.31
464.096	329.31
464.316	331.31
464.536	328.31
464.755	315.31
464.975	307.31
465.195	321.31
465.414	286.31
465.634	275.31
465.854	269.31
466.073	264.31
466.293	269.31
466.512	249.31
466.732	256.31
466.951	252.31
467.171	252.31
467.391	260.31
467.61	244.31
467.829	246.31
468.049	261.31
468.268	265.31
468.488	243.31
468.707	244.31
468.927	230.31
469.146	234.31
469.365	248.31
469.585	247.31
469.804	252.31
470.023	253.31
470.243	232.31
470.462	261.31
470.681	269.31
470.901	276.31
471.12	261.31
471.339	256.31
471.558	263.31
471.777	253.31
471.997	268.31
472.216	273.31
472.435	232.31
472.654	231.31
472.873	222.31
473.092	234.31
473.311	262.31
473.53	243.31
473.749	243.31
473.968	243.31
474.187	222.31
474.406	239.31
474.625	248.31
474.844	247.31
475.063	240.31
475.282	234.31
475.501	263.31
475.72	259.31
475.939	255.31
476.158	230.31
476.377	250.31
476.596	249.31
476.814	247.31
477.033	256.31
477.252	249.31
477.471	255.31
477.69	274.31
477.908	285.31
478.127	280.31
478.346	276.31
478.564	283.31
478.783	291.31
479.002	293.31
479.22	275.31
479.439	296.31
479.658	279.31
479.876	282.31
480.095	295.31
480.313	286.31
480.532	304.31
480.751	300.31
480.969	288.31
481.188	279.31
481.406	287.31
481.624	254.31
481.843	270.31
482.061	264.31
482.28	271.31
482.498	268.31
482.717	258.31
482.935	269.31
483.153	259.31
483.372	260.31
483.59	275.31
483.808	268.31
484.027	287.31
484.245	259.31
484.463	256.31
484.681	279.31
484.9	290.31
485.118	281.31
485.336	260.31
485.554	291.31
485.772	285.31
485.99	287.31
486.209	293.31
486.427	292.31
486.645	287.31
486.863	271.31
487.081	286.31
487.299	289.31
487.517	292.31
487.735	282.31
487.953	273.31
488.171	292.31
488.389	284.31
488.607	291.31
488.825	281.31
489.043	292.31
489.261	277.31
489.479	295.31
489.696	275.31
489.914	289.31
490.132	269.31
490.35	282.31
490.568	275.31
490.786	296.31
491.003	278.31
491.221	274.31
491.439	284.31
491.657	287.31
491.874	300.31
492.092	283.31
492.31	286.31
492.527	301.31
492.745	293.31
492.963	305.31
493.18	283.31
493.398	302.31
493.615	291.31
493.833	299.31
494.05	296.31
494.268	304.31
494.485	286.31
494.703	311.31
494.92	295.31
495.138	299.31
495.355	283.31
495.573	295.31
495.79	313.31
496.008	303.31
496.225	309.31
496.442	313.31
496.66	309.31
496.877	300.31
497.094	312.31
497.312	308.31
497.529	328.31
497.746	321.31
497.963	331.31
498.181	324.31
498.398	340.31
498.615	383.31
498.832	392.31
499.049	413.31
499.267	431.31
499.484	460.31
499.701	494.31
499.918	535.31
500.135	601.31
500.352	663.31
500.569	679.31
500.786	665.31
501.003	640.31
501.22	604.31
501.437	512.31
501.654	493.31
501.871	430.31
502.088	404.31
502.305	385.31
502.522	376.31
502.739	373.31
502.956	345.31
503.172	331.31
503.389	319.31
503.606	319.31
503.823	314.31
504.04	324.31
504.256	320.31
504.473	340.31
504.69	316.31
504.907	337.31
505.123	303.31
505.34	309.31
505.557	319.31
505.773	281.31
505.99	297.31
506.207	248.31
506.423	251.31
506.64	281.31
506.856	260.31
507.073	268.31
507.289	287.31
507.506	259.31
507.722	275.31
507.939	278.31
508.155	265.31
508.372	251.31
508.588	252.31
508.805	256.31
509.021	262.31
509.238	262.31
509.454	254.31
509.67	255.31
509.887	272.31
510.103	238.31
510.319	244.31
510.536	249.31
510.752	241.31
510.968	251.31
511.184	245.31
511.401	247.31
511.617	247.31
511.833	229.31
512.049	240.31
512.265	247.31
512.481	254.31
512.698	247.31
512.914	235.31
513.13	243.31
513.346	264.31
513.562	265.31
513.778	260.31
513.994	263.31
514.21	250.31
514.426	271.31
514.642	236.31
514.858	263.31
515.074	261.31
515.29	268.31
515.506	261.31
515.721	274.31
515.937	279.31
516.153	260.31
516.369	251.31
516.585	273.31
516.801	283.31
517.016	286.31
517.232	310.31
517.448	320.31
517.664	324.31
517.879	320.31
518.095	304.31
518.311	315.31
518.527	303.31
518.742	296.31
518.958	279.31
519.173	280.31
519.389	284.31
519.605	265.31
519.82	260.31
520.036	262.31
520.251	262.31
520.467	255.31
520.682	268.31
520.898	250.31
521.113	249.31
521.329	249.31
521.544	238.31
521.76	227.31
521.975	234.31
522.19	225.31
522.406	237.31
522.621	256.31
522.836	237.31
523.052	256.31
523.267	247.31
523.482	229.31
523.698	242.31
523.913	225.31
524.128	247.31
524.343	232.31
524.559	240.31
524.774	227.31
524.989	227.31
525.204	217.31
525.419	247.31
525.634	226.31
525.849	214.31
526.064	238.31
526.28	231.31
526.495	225.31
526.71	230.31
526.925	245.31
527.14	238.31
527.355	249.31
527.57	231.31
527.785	230.31
527.999	231.31
528.214	233.31
528.429	245.31
528.644	239.31
528.859	251.31
529.074	231.31
529.289	239.31
529.503	245.31
529.718	231.31
529.933	238.31
530.148	229.31
530.363	217.31
530.577	263.31
530.792	230.31
531.007	231.31
531.221	239.31
531.436	228.31
531.651	204.31
531.865	221.31
532.08	236.31
532.295	233.31
532.509	236.31
532.724	240.31
532.938	230.31
533.153	245.31
533.367	237.31
533.582	219.31
533.796	216.31
534.011	240.31
534.225	228.31
534.44	233.31
534.654	223.31
534.868	225.31
535.083	239.31
535.297	244.31
535.511	239.31
535.726	208.31
535.94	201.31
536.154	239.31
536.369	236.31
536.583	236.31
536.797	231.31
537.011	213.31
537.225	224.31
537.44	203.31
537.654	215.31
537.868	224.31
538.082	219.31
538.296	209.31
538.51	221.31
538.724	228.31
538.938	225.31
539.153	210.31
539.367	210.31
539.581	191.31
539.795	231.31
540.009	219.31
540.222	213.31
540.436	226.31
540.65	228.31
540.864	208.31
541.078	216.31
541.292	235.31
541.506	233.31
541.72	222.31
541.934	226.31
542.147	229.31
542.361	243.31
542.575	222.31
542.789	205.31
543.002	208.31
543.216	218.31
543.43	208.31
543.644	214.31
543.857	217.31
544.071	224.31
544.285	230.31
544.498	235.31
544.712	229.31
544.925	207.31
545.139	215.31
545.352	230.31
545.566	220.31
545.779	223.31
545.993	225.31
546.206	239.31
546.42	220.31
546.633	212.31
546.847	229.31
547.06	227.31
547.274	225.31
547.487	244.31
547.7	227.31
547.914	213.31
548.127	234.31
548.34	228.31
548.554	219.31
548.767	238.31
548.98	213.31
549.193	213.31
549.407	206.31
549.62	227.31
549.833	235.31
550.046	232.31
550.259	206.31
550.473	206.31
550.686	225.31
550.899	231.31
551.112	234.31
551.325	232.31
551.538	239.31
551.751	229.31
551.964	228.31
552.177	216.31
552.39	213.31
552.603	240.31
552.816	237.31
553.029	223.31
553.242	237.31
553.455	249.31
553.667	263.31
553.88	243.31
554.093	255.31
554.306	236.31
554.519	215.31
554.732	219.31
554.944	221.31
555.157	215.31
555.37	223.31
555.583	228.31
555.795	217.31
556.008	222.31
556.221	197.31
556.433	205.31
556.646	207.31
556.859	221.31
557.071	204.31
557.284	224.31
557.496	218.31
557.709	193.31
557.921	201.31
558.134	208.31
558.346	208.31
558.559	212.31
558.771	212.31
558.984	193.31
559.196	199.31
559.409	217.31
559.621	194.31
559.833	189.31
560.046	207.31
560.258	189.31
560.47	191.31
560.683	215.31
560.895	201.31
561.107	187.31
561.32	205.31
561.532	200.31
561.744	198.31
561.956	184.31
562.168	216.31
562.381	181.31
562.593	188.31
562.805	202.31
563.017	203.31
563.229	215.31
563.441	188.31
563.653	212.31
563.865	209.31
564.077	181.31
564.289	181.31
564.501	215.31
564.713	217.31
564.925	209.31
565.137	206.31
565.349	199.31
565.561	224.31
565.773	223.31
565.985	236.31
566.197	213.31
566.408	259.31
566.62	251.31
566.832	267.31
567.044	284.31
567.255	277.31
567.467	275.31
567.679	275.31
567.891	312.31
568.102	311.31
568.314	326.31
568.526	273.31
568.737	242.31
568.949	255.31
569.161	228.31
569.372	230.31
569.584	206.31
569.795	218.31
570.007	204.31
570.218	216.31
570.43	190.31
570.641	208.31
570.853	204.31
571.064	201.31
571.276	195.31
571.487	208.31
571.698	220.31
571.91	187.31
572.121	189.31
572.333	199.31
572.544	199.31
572.755	182.31
572.966	161.31
573.178	175.31
573.389	169.31
573.6	163.31
573.811	176.31
574.023	190.31
574.234	170.31
574.445	163.31
574.656	162.31
574.867	170.31
575.078	191.31
575.289	189.31
575.501	183.31
575.712	160.31
575.923	172.31
576.134	171.31
576.345	166.31
576.556	165.31
576.767	183.31
576.978	173.31
577.188	167.31
577.399	157.31
577.61	172.31
577.821	169.31
578.032	168.31
578.243	160.31
578.454	154.31
578.665	181.31
578.875	159.31
579.086	163.31
579.297	150.31
579.508	169.31
579.718	155.31
579.929	170.31
580.14	154.31
580.35	158.31
580.561	152.31
580.772	167.31
580.982	165.31
581.193	147.31
581.403	171.31
581.614	162.31
581.825	156.31
582.035	163.31
582.246	146.31
582.456	154.31
582.667	156.31
582.877	166.31
583.087	158.31
583.298	167.31
583.508	160.31
583.719	156.31
583.929	152.31
584.139	143.31
584.35	154.31
584.56	168.31
584.77	153.31
584.981	147.31
585.191	165.31
585.401	151.31
585.611	145.31
585.821	161.31
586.032	169.31
586.242	157.31
586.452	164.31
586.662	165.31
586.872	160.31
587.082	147.31
587.292	156.31
587.502	155.31
587.713	155.31
587.923	176.31
588.133	152.31
588.343	164.31
588.553	144.31
588.762	142.31
588.972	163.31
589.182	156.31
589.392	148.31
589.602	145.31
589.812	151.31
590.022	154.31
590.232	159.31
590.441	156.31
590.651	139.31
590.861	157.31
591.071	165.31
591.281	155.31
591.49	146.31
591.7	158.31
591.91	162.31
592.119	167.31
592.329	158.31
592.539	181.31
592.748	184.31
592.958	168.31
593.167	179.31
593.377	168.31
593.587	164.31
593.796	163.31
594.006	158.31
594.215	181.31
594.424	185.31
594.634	164.31
594.843	167.31
595.053	172.31
595.262	163.31
595.472	160.31
595.681	169.31
595.89	153.31
596.1	133.31
596.309	158.31
596.518	161.31
596.727	161.31
596.937	156.31
597.146	141.31
597.355	143.31
597.564	141.31
597.774	152.31
597.983	150.31
598.192	148.31
598.401	145.31
598.61	125.31
598.819	148.31
599.028	141.31
599.237	155.31
599.446	160.31
599.655	139.31
599.864	141.31
600.073	142.31
600.282	152.31
600.491	151.31
600.7	153.31
600.909	141.31
601.118	143.31
601.327	144.31
601.536	126.31
601.745	147.31
601.953	145.31
602.162	132.31
602.371	149.31
602.58	131.31
602.789	126.31
602.997	154.31
603.206	158.31
603.415	153.31
603.623	142.31
603.832	139.31
604.041	156.31
604.249	135.31
604.458	147.31
604.666	139.31
604.875	121.31
605.084	129.31
605.292	147.31
605.501	146.31
605.709	143.31
605.918	137.31
606.126	142.31
606.334	141.31
606.543	138.31
606.751	142.31
606.96	149.31
607.168	131.31
607.376	142.31
607.585	155.31
607.793	149.31
608.001	127.31
608.21	131.31
608.418	146.31
608.626	139.31
608.834	148.31
609.043	139.31
609.251	142.31
609.459	153.31
609.667	144.31
609.875	129.31
610.083	143.31
610.291	123.31
610.499	131.31
610.707	127.31
610.916	131.31
611.124	136.31
611.332	136.31
611.54	137.31
611.748	129.31
611.955	147.31
612.163	136.31
612.371	136.31
612.579	133.31
612.787	132.31
612.995	150.31
613.203	137.31
613.411	142.31
613.618	124.31
613.826	125.31
614.034	141.31
614.242	134.31
614.449	142.31
614.657	135.31
614.865	123.31
615.072	128.31
615.28	119.31
615.488	125.31
615.695	139.31
615.903	139.31
616.111	148.31
616.318	140.31
616.526	128.31
616.733	144.31
616.941	125.31
617.148	130.31
617.356	147.31
617.563	135.31
617.771	145.31
617.978	136.31
618.185	149.31
618.393	137.31
618.6	135.31
618.807	125.31
619.015	122.31
619.222	134.31
619.429	126.31
619.637	137.31
619.844	124.31
620.051	113.31
620.258	126.31
620.466	139.31
620.673	132.31
620.88	126.31
621.087	139.31
621.294	144.31
621.501	132.31
621.708	134.31
621.915	127.31
622.122	146.31
622.329	135.31
622.536	133.31
622.743	129.31
622.95	135.31
623.157	138.31
623.364	133.31
623.571	140.31
623.778	117.31
623.985	131.31
624.192	131.31
624.399	134.31
624.606	127.31
624.812	127.31
625.019	123.31
625.226	132.31
625.433	126.31
625.639	129.31
625.846	129.31
626.053	128.31
626.259	121.31
626.466	132.31
626.673	123.31
626.879	111.31
627.086	111.31
627.293	130.31
627.499	117.31
627.706	110.31
627.912	135.31
628.119	117.31
628.325	126.31
628.532	124.31
628.738	116.31
628.945	117.31
629.151	129.31
629.357	136.31
629.564	107.31
629.77	126.31
629.976	110.31
630.183	126.31
630.389	127.31
630.595	126.31
630.802	101.31
631.008	123.31
631.214	122.31
631.42	130.31
631.627	128.31
631.833	119.31
632.039	110.31
632.245	108.31
632.451	108.31
632.657	105.31
632.863	120.31
633.069	113.31
633.275	117.31
633.481	115.31
633.688	121.31
633.893	117.31
634.099	120.31
634.305	117.31
634.511	107.31
634.717	106.31
634.923	105.31
635.129	107.31
635.335	106.31
635.541	115.31
635.747	103.31
635.952	118.31
636.158	119.31
636.364	112.31
636.57	119.31
636.775	116.31
636.981	129.31
637.187	115.31
637.392	119.31
637.598	115.31
637.804	113.31
638.009	109.31
638.215	104.31
638.421	102.31
638.626	116.31
638.832	121.31
639.037	91.31
639.243	115.31
639.448	103.31
639.654	113.31
639.859	115.31
640.065	112.31
640.27	112.31
640.475	103.31
640.681	113.31
640.886	133.31
641.091	112.31
641.297	116.31
641.502	123.31
641.707	119.31
641.913	126.31
642.118	128.31
642.323	120.31
642.528	115.31
642.733	124.31
642.939	99.31
643.144	123.31
643.349	111.31
643.554	111.31
643.759	124.31
643.964	117.31
644.169	115.31
644.374	99.31
644.579	110.31
644.784	118.31
644.989	116.31
645.194	103.31
645.399	115.31
645.604	121.31
645.809	106.31
646.014	118.31
646.219	91.31
646.423	102.31
646.628	99.31
646.833	119.31
647.038	116.31
647.243	115.31
647.447	119.31
647.652	115.31
647.857	122.31
648.062	118.31
648.266	131.31
648.471	112.31
648.676	125.31
648.88	101.31
649.085	106.31
649.289	111.31
649.494	106.31
649.698	110.31
649.903	118.31
650.107	122.31
650.312	109.31
650.516	110.31
650.721	119.31
650.925	110.31
651.13	102.31
651.334	128.31
651.539	97.31
651.743	96.31
651.947	116.31
652.152	121.31
652.356	125.31
652.56	116.31
652.764	108.31
652.969	110.31
653.173	112.31
653.377	106.31
653.581	108.31
653.785	113.31
653.99	105.31
654.194	102.31
654.398	92.31
654.602	103.31
654.806	109.31
655.01	93.31
655.214	90.31
655.418	99.31
655.622	106.31
655.826	110.31
656.03	104.31
656.234	104.31
656.438	110.31
656.642	110.31
656.846	92.31
657.049	102.31
657.253	99.31
657.457	102.31
657.661	93.31
657.865	102.31
658.068	92.31
658.272	82.31
658.476	92.31
658.68	86.31
658.883	90.31
659.087	90.31
659.291	107.31
659.494	83.31
659.698	99.31
659.901	91.31
660.105	101.31
660.309	84.31
660.512	89.31
660.716	94.31
660.919	93.31
661.123	92.31
661.326	101.31
661.53	97.31
661.733	80.31
661.936	97.31
662.14	88.31
662.343	87.31
662.546	81.31
662.75	102.31
662.953	76.31
663.156	85.31
663.36	82.31
663.563	80.31
663.766	81.31
663.969	87.31
664.173	79.31
664.376	79.31
664.579	91.31
664.782	79.31
664.985	83.31
665.188	84.31
665.391	88.31
665.594	86.31
665.797	81.31
666	78.31
666.203	87.31
666.406	84.31
666.609	89.31
666.812	98.31
667.015	87.31
667.218	78.31
667.421	90.31
667.624	89.31
667.827	81.31
668.03	85.31
668.232	70.31
668.435	88.31
668.638	77.31
668.841	85.31
669.043	80.31
669.246	79.31
669.449	93.31
669.651	93.31
669.854	73.31
670.057	72.31
670.259	78.31
670.462	86.31
670.665	84.31
670.867	86.31
671.07	93.31
671.272	94.31
671.475	104.31
671.677	85.31
671.88	81.31
672.082	95.31
672.284	68.31
672.487	90.31
672.689	86.31
672.892	85.31
