Data from Fe(NO3)3@0.05M.TitratingCurve.Agarose3%dH2O.NegLispCup.LampEnergy10.LIBS07252019_HRD10591_16-48-45-334.txt Node
Date: Thu Jul 25 16:48:45 EDT 2019
User: cochatt
Spectrometer: HR+D1059
Trigger mode: 1
Integration Time (sec): 1.000000E-1
Scans to average: 1
Electric dark correction enabled: true
Nonlinearity correction enabled: false
Boxcar width: 0
XAxis mode: Wavelengths
Number of Pixels in Spectrum: 2048
>>>>>Begin Spectral Data<<<<<
223.165	-18.81
223.4	-18.81
223.635	-18.81
223.869	-13.81
224.104	-22.81
224.338	-1.81
224.573	-12.81
224.808	-3.81
225.042	0.19
225.277	0.19
225.511	3.19
225.746	14.19
225.98	1.19
226.215	12.19
226.449	9.19
226.683	5.19
226.918	14.19
227.152	14.19
227.387	36.19
227.621	41.19
227.856	56.19
228.09	43.19
228.324	45.19
228.559	59.19
228.793	68.19
229.027	79.19
229.262	77.19
229.496	90.19
229.73	86.19
229.964	92.19
230.199	88.19
230.433	81.19
230.667	88.19
230.901	80.19
231.136	109.19
231.37	100.19
231.604	87.19
231.838	101.19
232.072	80.19
232.306	95.19
232.541	93.19
232.775	94.19
233.009	97.19
233.243	96.19
233.477	108.19
233.711	98.19
233.945	91.19
234.179	91.19
234.413	94.19
234.647	83.19
234.881	93.19
235.115	92.19
235.349	89.19
235.583	86.19
235.817	99.19
236.051	96.19
236.285	83.19
236.519	95.19
236.753	96.19
236.987	97.19
237.221	96.19
237.455	94.19
237.689	104.19
237.922	112.19
238.156	108.19
238.39	97.19
238.624	100.19
238.858	105.19
239.091	109.19
239.325	83.19
239.559	99.19
239.793	91.19
240.027	110.19
240.26	96.19
240.494	96.19
240.728	110.19
240.961	97.19
241.195	101.19
241.429	118.19
241.662	111.19
241.896	106.19
242.13	110.19
242.363	104.19
242.597	114.19
242.83	107.19
243.064	97.19
243.298	99.19
243.531	89.19
243.765	123.19
243.998	112.19
244.232	118.19
244.465	112.19
244.699	96.19
244.932	98.19
245.166	106.19
245.399	105.19
245.633	118.19
245.866	117.19
246.099	102.19
246.333	123.19
246.566	119.19
246.8	104.19
247.033	102.19
247.266	117.19
247.5	107.19
247.733	117.19
247.966	110.19
248.2	119.19
248.433	115.19
248.666	111.19
248.899	116.19
249.133	105.19
249.366	132.19
249.599	117.19
249.832	123.19
250.066	108.19
250.299	117.19
250.532	125.19
250.765	113.19
250.998	116.19
251.231	122.19
251.465	116.19
251.698	125.19
251.931	130.19
252.164	121.19
252.397	110.19
252.63	113.19
252.863	106.19
253.096	120.19
253.329	126.19
253.562	126.19
253.795	128.19
254.028	118.19
254.261	118.19
254.494	101.19
254.727	122.19
254.96	113.19
255.193	133.19
255.426	131.19
255.659	129.19
255.892	141.19
256.124	125.19
256.357	138.19
256.59	126.19
256.823	123.19
257.056	98.19
257.289	122.19
257.521	122.19
257.754	126.19
257.987	126.19
258.22	121.19
258.452	130.19
258.685	102.19
258.918	124.19
259.151	135.19
259.383	132.19
259.616	108.19
259.849	130.19
260.081	138.19
260.314	139.19
260.547	145.19
260.779	123.19
261.012	129.19
261.244	132.19
261.477	134.19
261.71	131.19
261.942	116.19
262.175	126.19
262.407	132.19
262.64	141.19
262.872	137.19
263.105	130.19
263.337	143.19
263.57	130.19
263.802	128.19
264.035	161.19
264.267	147.19
264.499	127.19
264.732	148.19
264.964	138.19
265.197	144.19
265.429	145.19
265.661	130.19
265.894	151.19
266.126	137.19
266.358	142.19
266.591	148.19
266.823	144.19
267.055	157.19
267.287	138.19
267.52	134.19
267.752	154.19
267.984	134.19
268.216	143.19
268.448	159.19
268.681	144.19
268.913	119.19
269.145	145.19
269.377	156.19
269.609	157.19
269.841	171.19
270.073	144.19
270.306	140.19
270.538	154.19
270.77	147.19
271.002	132.19
271.234	147.19
271.466	132.19
271.698	151.19
271.93	160.19
272.162	154.19
272.394	147.19
272.626	148.19
272.858	141.19
273.09	148.19
273.322	163.19
273.553	140.19
273.785	148.19
274.017	144.19
274.249	153.19
274.481	157.19
274.713	146.19
274.945	151.19
275.176	146.19
275.408	156.19
275.64	164.19
275.872	160.19
276.104	145.19
276.335	146.19
276.567	162.19
276.799	169.19
277.031	169.19
277.262	157.19
277.494	155.19
277.726	161.19
277.957	161.19
278.189	148.19
278.421	155.19
278.652	151.19
278.884	164.19
279.115	164.19
279.347	160.19
279.579	154.19
279.81	158.19
280.042	161.19
280.273	165.19
280.505	165.19
280.736	161.19
280.968	182.19
281.199	173.19
281.431	167.19
281.662	148.19
281.894	182.19
282.125	169.19
282.356	165.19
282.588	168.19
282.819	178.19
283.051	167.19
283.282	168.19
283.513	174.19
283.745	179.19
283.976	153.19
284.207	163.19
284.439	157.19
284.67	173.19
284.901	184.19
285.132	164.19
285.364	162.19
285.595	163.19
285.826	183.19
286.057	180.19
286.288	163.19
286.52	178.19
286.751	177.19
286.982	168.19
287.213	159.19
287.444	177.19
287.675	168.19
287.906	171.19
288.138	186.19
288.369	194.19
288.6	186.19
288.831	176.19
289.062	184.19
289.293	167.19
289.524	178.19
289.755	156.19
289.986	185.19
290.217	179.19
290.448	199.19
290.679	160.19
290.91	193.19
291.141	170.19
291.371	170.19
291.602	173.19
291.833	180.19
292.064	175.19
292.295	180.19
292.526	176.19
292.757	186.19
292.987	190.19
293.218	186.19
293.449	175.19
293.68	166.19
293.91	179.19
294.141	178.19
294.372	167.19
294.603	198.19
294.833	171.19
295.064	182.19
295.295	190.19
295.525	173.19
295.756	170.19
295.987	190.19
296.217	169.19
296.448	185.19
296.679	189.19
296.909	181.19
297.14	206.19
297.37	202.19
297.601	189.19
297.831	188.19
298.062	179.19
298.292	201.19
298.523	188.19
298.753	179.19
298.984	191.19
299.214	205.19
299.445	183.19
299.675	186.19
299.905	192.19
300.136	180.19
300.366	187.19
300.597	199.19
300.827	197.19
301.057	207.19
301.288	188.19
301.518	205.19
301.748	190.19
301.979	200.19
302.209	213.19
302.439	205.19
302.669	172.19
302.9	211.19
303.13	199.19
303.36	196.19
303.59	203.19
303.82	204.19
304.051	196.19
304.281	186.19
304.511	195.19
304.741	199.19
304.971	205.19
305.201	204.19
305.431	193.19
305.661	198.19
305.891	192.19
306.121	200.19
306.352	209.19
306.582	189.19
306.812	200.19
307.042	205.19
307.272	194.19
307.502	174.19
307.731	193.19
307.961	204.19
308.191	206.19
308.421	212.19
308.651	206.19
308.881	199.19
309.111	180.19
309.341	199.19
309.571	217.19
309.8	208.19
310.03	200.19
310.26	190.19
310.49	196.19
310.72	191.19
310.949	192.19
311.179	195.19
311.409	208.19
311.639	205.19
311.868	200.19
312.098	203.19
312.328	200.19
312.557	215.19
312.787	205.19
313.017	210.19
313.246	196.19
313.476	220.19
313.706	204.19
313.935	190.19
314.165	210.19
314.394	198.19
314.624	206.19
314.853	210.19
315.083	222.19
315.312	204.19
315.542	202.19
315.771	203.19
316.001	185.19
316.23	215.19
316.46	190.19
316.689	200.19
316.919	203.19
317.148	200.19
317.377	212.19
317.607	204.19
317.836	185.19
318.065	210.19
318.295	216.19
318.524	199.19
318.753	220.19
318.983	202.19
319.212	210.19
319.441	196.19
319.67	199.19
319.9	212.19
320.129	207.19
320.358	225.19
320.587	201.19
320.816	215.19
321.046	192.19
321.275	199.19
321.504	194.19
321.733	216.19
321.962	214.19
322.191	203.19
322.42	206.19
322.649	200.19
322.878	197.19
323.108	224.19
323.337	199.19
323.566	204.19
323.795	218.19
324.024	203.19
324.253	192.19
324.482	210.19
324.71	216.19
324.939	224.19
325.168	189.19
325.397	204.19
325.626	201.19
325.855	216.19
326.084	225.19
326.313	208.19
326.542	212.19
326.77	226.19
326.999	210.19
327.228	228.19
327.457	232.19
327.686	220.19
327.914	222.19
328.143	220.19
328.372	232.19
328.6	213.19
328.829	217.19
329.058	234.19
329.287	217.19
329.515	209.19
329.744	243.19
329.972	228.19
330.201	214.19
330.43	219.19
330.658	226.19
330.887	235.19
331.115	221.19
331.344	231.19
331.572	231.19
331.801	237.19
332.03	246.19
332.258	242.19
332.486	242.19
332.715	263.19
332.943	258.19
333.172	251.19
333.4	262.19
333.629	288.19
333.857	284.19
334.085	276.19
334.314	275.19
334.542	262.19
334.771	260.19
334.999	264.19
335.227	270.19
335.455	264.19
335.684	265.19
335.912	265.19
336.14	264.19
336.369	259.19
336.597	243.19
336.825	262.19
337.053	246.19
337.281	242.19
337.51	241.19
337.738	246.19
337.966	254.19
338.194	243.19
338.422	237.19
338.65	230.19
338.878	232.19
339.106	238.19
339.334	252.19
339.562	220.19
339.79	244.19
340.018	245.19
340.246	218.19
340.474	249.19
340.702	243.19
340.93	236.19
341.158	236.19
341.386	234.19
341.614	229.19
341.842	244.19
342.07	229.19
342.298	226.19
342.526	215.19
342.754	242.19
342.981	232.19
343.209	233.19
343.437	263.19
343.665	239.19
343.893	261.19
344.12	274.19
344.348	260.19
344.576	238.19
344.804	245.19
345.031	247.19
345.259	240.19
345.487	221.19
345.714	237.19
345.942	217.19
346.17	210.19
346.397	223.19
346.625	220.19
346.853	234.19
347.08	210.19
347.308	196.19
347.535	229.19
347.763	236.19
347.99	229.19
348.218	229.19
348.445	209.19
348.673	237.19
348.9	214.19
349.128	214.19
349.355	219.19
349.583	214.19
349.81	212.19
350.037	213.19
350.265	212.19
350.492	216.19
350.72	205.19
350.947	221.19
351.174	217.19
351.402	225.19
351.629	213.19
351.856	210.19
352.083	226.19
352.311	204.19
352.538	206.19
352.765	212.19
352.992	209.19
353.22	218.19
353.447	207.19
353.674	197.19
353.901	232.19
354.128	219.19
354.355	218.19
354.583	215.19
354.81	211.19
355.037	221.19
355.264	231.19
355.491	212.19
355.718	208.19
355.945	212.19
356.172	220.19
356.399	214.19
356.626	220.19
356.853	213.19
357.08	222.19
357.307	217.19
357.534	212.19
357.761	212.19
357.988	234.19
358.215	235.19
358.441	211.19
358.668	225.19
358.895	226.19
359.122	240.19
359.349	223.19
359.576	226.19
359.802	211.19
360.029	221.19
360.256	215.19
360.483	221.19
360.709	226.19
360.936	229.19
361.163	214.19
361.39	223.19
361.616	201.19
361.843	225.19
362.07	226.19
362.296	213.19
362.523	211.19
362.749	214.19
362.976	215.19
363.203	214.19
363.429	238.19
363.656	224.19
363.882	217.19
364.109	227.19
364.335	218.19
364.562	212.19
364.788	212.19
365.015	218.19
365.241	212.19
365.468	240.19
365.694	251.19
365.92	221.19
366.147	228.19
366.373	226.19
366.599	235.19
366.826	220.19
367.052	212.19
367.278	218.19
367.505	219.19
367.731	209.19
367.957	214.19
368.184	234.19
368.41	223.19
368.636	222.19
368.862	234.19
369.089	238.19
369.315	210.19
369.541	228.19
369.767	220.19
369.993	242.19
370.219	246.19
370.445	232.19
370.672	236.19
370.898	223.19
371.124	242.19
371.35	226.19
371.576	234.19
371.802	241.19
372.028	236.19
372.254	254.19
372.48	240.19
372.706	247.19
372.932	237.19
373.158	256.19
373.384	260.19
373.61	235.19
373.835	243.19
374.061	242.19
374.287	242.19
374.513	245.19
374.739	260.19
374.965	269.19
375.191	272.19
375.416	252.19
375.642	269.19
375.868	261.19
376.094	251.19
376.319	256.19
376.545	243.19
376.771	235.19
376.997	248.19
377.222	249.19
377.448	235.19
377.674	256.19
377.899	266.19
378.125	221.19
378.35	236.19
378.576	239.19
378.802	233.19
379.027	234.19
379.253	257.19
379.478	238.19
379.704	241.19
379.929	250.19
380.155	249.19
380.38	249.19
380.606	232.19
380.831	241.19
381.057	242.19
381.282	246.19
381.507	242.19
381.733	252.19
381.958	264.19
382.184	252.19
382.409	235.19
382.634	260.19
382.86	264.19
383.085	252.19
383.31	264.19
383.535	268.19
383.761	284.19
383.986	263.19
384.211	284.19
384.436	280.19
384.662	270.19
384.887	282.19
385.112	286.19
385.337	268.19
385.562	285.19
385.787	296.19
386.013	307.19
386.238	291.19
386.463	294.19
386.688	289.19
386.913	284.19
387.138	274.19
387.363	303.19
387.588	290.19
387.813	282.19
388.038	293.19
388.263	313.19
388.488	297.19
388.713	309.19
388.938	272.19
389.163	270.19
389.387	279.19
389.612	283.19
389.837	292.19
390.062	280.19
390.287	289.19
390.512	278.19
390.736	284.19
390.961	300.19
391.186	292.19
391.411	330.19
391.636	314.19
391.86	341.19
392.085	328.19
392.31	327.19
392.534	311.19
392.759	307.19
392.984	310.19
393.208	305.19
393.433	320.19
393.658	315.19
393.882	323.19
394.107	319.19
394.331	305.19
394.556	307.19
394.78	333.19
395.005	303.19
395.229	311.19
395.454	320.19
395.678	318.19
395.903	329.19
396.127	319.19
396.352	313.19
396.576	325.19
396.801	312.19
397.025	318.19
397.249	322.19
397.474	345.19
397.698	325.19
397.922	324.19
398.147	368.19
398.371	344.19
398.595	360.19
398.82	352.19
399.044	358.19
399.268	389.19
399.492	444.19
399.717	504.19
399.941	500.19
400.165	471.19
400.389	420.19
400.613	386.19
400.837	375.19
401.062	378.19
401.286	368.19
401.51	366.19
401.734	370.19
401.958	376.19
402.182	362.19
402.406	380.19
402.63	370.19
402.854	384.19
403.078	372.19
403.302	390.19
403.526	398.19
403.75	401.19
403.974	414.19
404.198	401.19
404.422	409.19
404.645	410.19
404.869	397.19
405.093	411.19
405.317	392.19
405.541	423.19
405.765	392.19
405.988	386.19
406.212	405.19
406.436	402.19
406.66	402.19
406.883	418.19
407.107	412.19
407.331	453.19
407.555	450.19
407.778	428.19
408.002	444.19
408.226	425.19
408.449	426.19
408.673	411.19
408.896	407.19
409.12	392.19
409.344	401.19
409.567	404.19
409.791	392.19
410.014	408.19
410.238	410.19
410.461	394.19
410.685	408.19
410.908	395.19
411.132	404.19
411.355	380.19
411.578	381.19
411.802	373.19
412.025	387.19
412.249	374.19
412.472	379.19
412.695	390.19
412.919	388.19
413.142	388.19
413.365	386.19
413.589	386.19
413.812	386.19
414.035	365.19
414.258	358.19
414.482	395.19
414.705	396.19
414.928	390.19
415.151	392.19
415.374	386.19
415.597	391.19
415.821	378.19
416.044	361.19
416.267	372.19
416.49	386.19
416.713	382.19
416.936	373.19
417.159	368.19
417.382	368.19
417.605	359.19
417.828	384.19
418.051	360.19
418.274	391.19
418.497	376.19
418.72	387.19
418.943	382.19
419.166	395.19
419.389	441.19
419.611	413.19
419.834	406.19
420.057	383.19
420.28	373.19
420.503	361.19
420.726	384.19
420.948	376.19
421.171	377.19
421.394	370.19
421.617	356.19
421.839	370.19
422.062	370.19
422.285	394.19
422.507	371.19
422.73	387.19
422.953	389.19
423.175	411.19
423.398	394.19
423.621	408.19
423.843	385.19
424.066	379.19
424.288	406.19
424.511	381.19
424.733	396.19
424.956	392.19
425.178	369.19
425.401	384.19
425.623	384.19
425.846	362.19
426.068	360.19
426.291	362.19
426.513	346.19
426.735	337.19
426.958	361.19
427.18	361.19
427.402	341.19
427.625	345.19
427.847	335.19
428.069	344.19
428.292	359.19
428.514	359.19
428.736	351.19
428.958	356.19
429.181	339.19
429.403	349.19
429.625	344.19
429.847	336.19
430.069	338.19
430.292	346.19
430.514	336.19
430.736	334.19
430.958	358.19
431.18	337.19
431.402	331.19
431.624	356.19
431.846	346.19
432.068	358.19
432.29	342.19
432.512	343.19
432.734	358.19
432.956	353.19
433.178	354.19
433.4	362.19
433.622	368.19
433.844	368.19
434.066	339.19
434.287	354.19
434.509	362.19
434.731	375.19
434.953	362.19
435.175	377.19
435.397	372.19
435.618	365.19
435.84	346.19
436.062	351.19
436.284	376.19
436.505	354.19
436.727	364.19
436.949	338.19
437.17	370.19
437.392	354.19
437.614	350.19
437.835	346.19
438.057	338.19
438.278	338.19
438.5	348.19
438.721	347.19
438.943	342.19
439.165	357.19
439.386	343.19
439.608	368.19
439.829	345.19
440.05	338.19
440.272	356.19
440.493	368.19
440.715	350.19
440.936	376.19
441.158	376.19
441.379	376.19
441.6	397.19
441.822	390.19
442.043	402.19
442.264	380.19
442.486	370.19
442.707	372.19
442.928	379.19
443.149	400.19
443.371	393.19
443.592	365.19
443.813	397.19
444.034	389.19
444.255	404.19
444.476	434.19
444.698	426.19
444.919	461.19
445.14	565.19
445.361	473.19
445.582	406.19
445.803	396.19
446.024	387.19
446.245	368.19
446.466	386.19
446.687	387.19
446.908	373.19
447.129	375.19
447.35	350.19
447.571	350.19
447.792	356.19
448.013	338.19
448.234	355.19
448.455	342.19
448.675	342.19
448.896	323.19
449.117	353.19
449.338	359.19
449.559	340.19
449.779	343.19
450	363.19
450.221	327.19
450.442	360.19
450.662	339.19
450.883	337.19
451.104	357.19
451.324	344.19
451.545	342.19
451.766	339.19
451.986	321.19
452.207	348.19
452.428	346.19
452.648	331.19
452.869	330.19
453.089	314.19
453.31	321.19
453.53	310.19
453.751	329.19
453.971	307.19
454.192	320.19
454.412	324.19
454.633	317.19
454.853	323.19
455.073	304.19
455.294	343.19
455.514	317.19
455.734	310.19
455.955	324.19
456.175	329.19
456.395	315.19
456.616	311.19
456.836	308.19
457.056	342.19
457.276	316.19
457.497	318.19
457.717	313.19
457.937	325.19
458.157	329.19
458.377	334.19
458.598	341.19
458.818	324.19
459.038	326.19
459.258	356.19
459.478	362.19
459.698	356.19
459.918	363.19
460.138	372.19
460.358	410.19
460.578	413.19
460.798	411.19
461.018	400.19
461.238	390.19
461.458	397.19
461.678	414.19
461.898	402.19
462.118	410.19
462.338	423.19
462.558	434.19
462.777	444.19
462.997	478.19
463.217	517.19
463.437	507.19
463.657	469.19
463.876	462.19
464.096	472.19
464.316	452.19
464.536	459.19
464.755	451.19
464.975	429.19
465.195	408.19
465.414	413.19
465.634	371.19
465.854	376.19
466.073	358.19
466.293	357.19
466.512	360.19
466.732	356.19
466.951	383.19
467.171	346.19
467.391	329.19
467.61	341.19
467.829	352.19
468.049	336.19
468.268	348.19
468.488	346.19
468.707	343.19
468.927	332.19
469.146	335.19
469.365	357.19
469.585	352.19
469.804	368.19
470.023	372.19
470.243	374.19
470.462	353.19
470.681	364.19
470.901	373.19
471.12	355.19
471.339	363.19
471.558	337.19
471.777	344.19
471.997	353.19
472.216	348.19
472.435	337.19
472.654	330.19
472.873	331.19
473.092	342.19
473.311	328.19
473.53	344.19
473.749	320.19
473.968	353.19
474.187	344.19
474.406	336.19
474.625	328.19
474.844	327.19
475.063	344.19
475.282	347.19
475.501	329.19
475.72	342.19
475.939	350.19
476.158	334.19
476.377	339.19
476.596	338.19
476.814	349.19
477.033	340.19
477.252	371.19
477.471	353.19
477.69	352.19
477.908	386.19
478.127	392.19
478.346	372.19
478.564	389.19
478.783	381.19
479.002	398.19
479.22	394.19
479.439	410.19
479.658	392.19
479.876	390.19
480.095	389.19
480.313	411.19
480.532	407.19
480.751	406.19
480.969	378.19
481.188	384.19
481.406	382.19
481.624	376.19
481.843	358.19
482.061	360.19
482.28	360.19
482.498	366.19
482.717	368.19
482.935	380.19
483.153	364.19
483.372	382.19
483.59	375.19
483.808	359.19
484.027	372.19
484.245	373.19
484.463	377.19
484.681	379.19
484.9	390.19
485.118	385.19
485.336	360.19
485.554	361.19
485.772	367.19
485.99	378.19
486.209	368.19
486.427	369.19
486.645	387.19
486.863	380.19
487.081	397.19
487.299	389.19
487.517	376.19
487.735	388.19
487.953	380.19
488.171	366.19
488.389	386.19
488.607	368.19
488.825	363.19
489.043	381.19
489.261	376.19
489.479	372.19
489.696	371.19
489.914	387.19
490.132	372.19
490.35	390.19
490.568	386.19
490.786	381.19
491.003	387.19
491.221	386.19
491.439	384.19
491.657	398.19
491.874	410.19
492.092	412.19
492.31	403.19
492.527	412.19
492.745	396.19
492.963	383.19
493.18	393.19
493.398	408.19
493.615	418.19
493.833	415.19
494.05	395.19
494.268	419.19
494.485	424.19
494.703	395.19
494.92	412.19
495.138	401.19
495.355	398.19
495.573	403.19
495.79	381.19
496.008	411.19
496.225	429.19
496.442	427.19
496.66	429.19
496.877	427.19
497.094	425.19
497.312	414.19
497.529	428.19
497.746	424.19
497.963	465.19
498.181	491.19
498.398	467.19
498.615	494.19
498.832	536.19
499.049	574.19
499.267	603.19
499.484	648.19
499.701	707.19
499.918	777.19
500.135	852.19
500.352	952.19
500.569	969.19
500.786	975.19
501.003	918.19
501.22	816.19
501.437	745.19
501.654	685.19
501.871	614.19
502.088	582.19
502.305	564.19
502.522	536.19
502.739	543.19
502.956	509.19
503.172	497.19
503.389	470.19
503.606	443.19
503.823	455.19
504.04	450.19
504.256	453.19
504.473	469.19
504.69	481.19
504.907	448.19
505.123	424.19
505.34	406.19
505.557	383.19
505.773	379.19
505.99	364.19
506.207	382.19
506.423	357.19
506.64	376.19
506.856	390.19
507.073	366.19
507.289	366.19
507.506	371.19
507.722	363.19
507.939	360.19
508.155	347.19
508.372	352.19
508.588	342.19
508.805	341.19
509.021	339.19
509.238	357.19
509.454	337.19
509.67	329.19
509.887	329.19
510.103	322.19
510.319	329.19
510.536	337.19
510.752	325.19
510.968	336.19
511.184	322.19
511.401	330.19
511.617	322.19
511.833	320.19
512.049	322.19
512.265	325.19
512.481	324.19
512.698	315.19
512.914	344.19
513.13	329.19
513.346	324.19
513.562	312.19
513.778	323.19
513.994	314.19
514.21	344.19
514.426	331.19
514.642	323.19
514.858	324.19
515.074	362.19
515.29	336.19
515.506	340.19
515.721	356.19
515.937	361.19
516.153	350.19
516.369	349.19
516.585	364.19
516.801	380.19
517.016	384.19
517.232	392.19
517.448	425.19
517.664	428.19
517.879	412.19
518.095	416.19
518.311	423.19
518.527	407.19
518.742	388.19
518.958	360.19
519.173	364.19
519.389	365.19
519.605	363.19
519.82	342.19
520.036	348.19
520.251	348.19
520.467	353.19
520.682	334.19
520.898	320.19
521.113	313.19
521.329	328.19
521.544	310.19
521.76	298.19
521.975	312.19
522.19	319.19
522.406	292.19
522.621	300.19
522.836	337.19
523.052	317.19
523.267	286.19
523.482	322.19
523.698	328.19
523.913	297.19
524.128	327.19
524.343	322.19
524.559	305.19
524.774	317.19
524.989	311.19
525.204	315.19
525.419	291.19
525.634	306.19
525.849	297.19
526.064	298.19
526.28	317.19
526.495	288.19
526.71	306.19
526.925	300.19
527.14	295.19
527.355	305.19
527.57	287.19
527.785	283.19
527.999	282.19
528.214	295.19
528.429	321.19
528.644	322.19
528.859	294.19
529.074	306.19
529.289	306.19
529.503	285.19
529.718	292.19
529.933	296.19
530.148	310.19
530.363	300.19
530.577	291.19
530.792	271.19
531.007	304.19
531.221	291.19
531.436	286.19
531.651	287.19
531.865	304.19
532.08	295.19
532.295	304.19
532.509	299.19
532.724	294.19
532.938	297.19
533.153	289.19
533.367	292.19
533.582	290.19
533.796	292.19
534.011	284.19
534.225	300.19
534.44	299.19
534.654	295.19
534.868	290.19
535.083	284.19
535.297	288.19
535.511	288.19
535.726	285.19
535.94	289.19
536.154	285.19
536.369	280.19
536.583	280.19
536.797	306.19
537.011	290.19
537.225	274.19
537.44	279.19
537.654	280.19
537.868	296.19
538.082	297.19
538.296	276.19
538.51	286.19
538.724	273.19
538.938	265.19
539.153	274.19
539.367	289.19
539.581	282.19
539.795	290.19
540.009	283.19
540.222	271.19
540.436	271.19
540.65	284.19
540.864	282.19
541.078	286.19
541.292	287.19
541.506	279.19
541.72	279.19
541.934	278.19
542.147	292.19
542.361	270.19
542.575	288.19
542.789	279.19
543.002	284.19
543.216	277.19
543.43	277.19
543.644	274.19
543.857	288.19
544.071	277.19
544.285	292.19
544.498	281.19
544.712	281.19
544.925	277.19
545.139	307.19
545.352	286.19
545.566	289.19
545.779	269.19
545.993	277.19
546.206	297.19
546.42	310.19
546.633	290.19
546.847	284.19
547.06	297.19
547.274	295.19
547.487	285.19
547.7	298.19
547.914	274.19
548.127	277.19
548.34	302.19
548.554	298.19
548.767	297.19
548.98	294.19
549.193	299.19
549.407	298.19
549.62	284.19
549.833	306.19
550.046	306.19
550.259	299.19
550.473	291.19
550.686	294.19
550.899	289.19
551.112	283.19
551.325	288.19
551.538	295.19
551.751	285.19
551.964	289.19
552.177	285.19
552.39	280.19
552.603	293.19
552.816	313.19
553.029	308.19
553.242	302.19
553.455	306.19
553.667	324.19
553.88	277.19
554.093	308.19
554.306	301.19
554.519	292.19
554.732	279.19
554.944	280.19
555.157	292.19
555.37	288.19
555.583	277.19
555.795	283.19
556.008	254.19
556.221	250.19
556.433	268.19
556.646	267.19
556.859	266.19
557.071	265.19
557.284	257.19
557.496	246.19
557.709	241.19
557.921	253.19
558.134	264.19
558.346	235.19
558.559	259.19
558.771	265.19
558.984	233.19
559.196	244.19
559.409	252.19
559.621	244.19
559.833	254.19
560.046	246.19
560.258	232.19
560.47	244.19
560.683	249.19
560.895	229.19
561.107	221.19
561.32	243.19
561.532	237.19
561.744	253.19
561.956	243.19
562.168	249.19
562.381	234.19
562.593	253.19
562.805	246.19
563.017	240.19
563.229	257.19
563.441	228.19
563.653	250.19
563.865	232.19
564.077	272.19
564.289	277.19
564.501	272.19
564.713	244.19
564.925	286.19
565.137	259.19
565.349	250.19
565.561	275.19
565.773	277.19
565.985	276.19
566.197	308.19
566.408	316.19
566.62	345.19
566.832	351.19
567.044	349.19
567.255	347.19
567.467	357.19
567.679	382.19
567.891	371.19
568.102	398.19
568.314	395.19
568.526	345.19
568.737	312.19
568.949	291.19
569.161	278.19
569.372	285.19
569.584	245.19
569.795	260.19
570.007	258.19
570.218	264.19
570.43	253.19
570.641	251.19
570.853	251.19
571.064	246.19
571.276	254.19
571.487	254.19
571.698	232.19
571.91	215.19
572.121	226.19
572.333	240.19
572.544	216.19
572.755	218.19
572.966	209.19
573.178	215.19
573.389	205.19
573.6	195.19
573.811	202.19
574.023	201.19
574.234	218.19
574.445	206.19
574.656	198.19
574.867	221.19
575.078	223.19
575.289	216.19
575.501	201.19
575.712	197.19
575.923	210.19
576.134	202.19
576.345	186.19
576.556	228.19
576.767	205.19
576.978	202.19
577.188	212.19
577.399	209.19
577.61	190.19
577.821	185.19
578.032	193.19
578.243	208.19
578.454	198.19
578.665	182.19
578.875	186.19
579.086	211.19
579.297	204.19
579.508	193.19
579.718	195.19
579.929	171.19
580.14	180.19
580.35	200.19
580.561	186.19
580.772	199.19
580.982	189.19
581.193	181.19
581.403	181.19
581.614	184.19
581.825	188.19
582.035	184.19
582.246	198.19
582.456	182.19
582.667	190.19
582.877	176.19
583.087	197.19
583.298	190.19
583.508	180.19
583.719	182.19
583.929	185.19
584.139	202.19
584.35	180.19
584.56	191.19
584.77	178.19
584.981	176.19
585.191	181.19
585.401	178.19
585.611	179.19
585.821	179.19
586.032	191.19
586.242	182.19
586.452	185.19
586.662	176.19
586.872	190.19
587.082	172.19
587.292	188.19
587.502	188.19
587.713	181.19
587.923	182.19
588.133	185.19
588.343	185.19
588.553	179.19
588.762	182.19
588.972	172.19
589.182	182.19
589.392	170.19
589.602	174.19
589.812	198.19
590.022	182.19
590.232	173.19
590.441	182.19
590.651	169.19
590.861	186.19
591.071	193.19
591.281	184.19
591.49	195.19
591.7	190.19
591.91	181.19
592.119	172.19
592.329	184.19
592.539	213.19
592.748	201.19
592.958	196.19
593.167	187.19
593.377	194.19
593.587	228.19
593.796	198.19
594.006	217.19
594.215	205.19
594.424	217.19
594.634	195.19
594.843	180.19
595.053	194.19
595.262	188.19
595.472	182.19
595.681	178.19
595.89	192.19
596.1	187.19
596.309	201.19
596.518	180.19
596.727	182.19
596.937	175.19
597.146	176.19
597.355	182.19
597.564	175.19
597.774	187.19
597.983	173.19
598.192	146.19
598.401	163.19
598.61	149.19
598.819	164.19
599.028	184.19
599.237	179.19
599.446	156.19
599.655	151.19
599.864	149.19
600.073	167.19
600.282	153.19
600.491	148.19
600.7	148.19
600.909	176.19
601.118	168.19
601.327	158.19
601.536	147.19
601.745	160.19
601.953	170.19
602.162	163.19
602.371	166.19
602.58	142.19
602.789	154.19
602.997	176.19
603.206	154.19
603.415	155.19
603.623	152.19
603.832	148.19
604.041	161.19
604.249	145.19
604.458	138.19
604.666	165.19
604.875	144.19
605.084	169.19
605.292	169.19
605.501	153.19
605.709	161.19
605.918	147.19
606.126	159.19
606.334	147.19
606.543	147.19
606.751	150.19
606.96	161.19
607.168	150.19
607.376	151.19
607.585	159.19
607.793	163.19
608.001	152.19
608.21	156.19
608.418	154.19
608.626	146.19
608.834	154.19
609.043	150.19
609.251	145.19
609.459	152.19
609.667	150.19
609.875	162.19
610.083	148.19
610.291	147.19
610.499	147.19
610.707	149.19
610.916	152.19
611.124	146.19
611.332	136.19
611.54	149.19
611.748	146.19
611.955	143.19
612.163	133.19
612.371	157.19
612.579	140.19
612.787	148.19
612.995	149.19
613.203	140.19
613.411	150.19
613.618	152.19
613.826	151.19
614.034	147.19
614.242	147.19
614.449	145.19
614.657	134.19
614.865	148.19
615.072	150.19
615.28	164.19
615.488	155.19
615.695	149.19
615.903	136.19
616.111	148.19
616.318	157.19
616.526	157.19
616.733	148.19
616.941	158.19
617.148	140.19
617.356	153.19
617.563	155.19
617.771	150.19
617.978	140.19
618.185	154.19
618.393	141.19
618.6	156.19
618.807	151.19
619.015	137.19
619.222	146.19
619.429	160.19
619.637	150.19
619.844	150.19
620.051	127.19
620.258	130.19
620.466	148.19
620.673	141.19
620.88	131.19
621.087	129.19
621.294	136.19
621.501	141.19
621.708	144.19
621.915	139.19
622.122	134.19
622.329	140.19
622.536	135.19
622.743	131.19
622.95	140.19
623.157	132.19
623.364	121.19
623.571	134.19
623.778	140.19
623.985	138.19
624.192	132.19
624.399	146.19
624.606	140.19
624.812	130.19
625.019	142.19
625.226	143.19
625.433	143.19
625.639	140.19
625.846	137.19
626.053	125.19
626.259	126.19
626.466	133.19
626.673	138.19
626.879	126.19
627.086	128.19
627.293	109.19
627.499	136.19
627.706	131.19
627.912	123.19
628.119	127.19
628.325	126.19
628.532	128.19
628.738	136.19
628.945	141.19
629.151	132.19
629.357	132.19
629.564	143.19
629.77	121.19
629.976	122.19
630.183	138.19
630.389	131.19
630.595	137.19
630.802	133.19
631.008	126.19
631.214	117.19
631.42	127.19
631.627	134.19
631.833	128.19
632.039	135.19
632.245	142.19
632.451	135.19
632.657	136.19
632.863	113.19
633.069	126.19
633.275	140.19
633.481	133.19
633.688	127.19
633.893	143.19
634.099	128.19
634.305	125.19
634.511	120.19
634.717	114.19
634.923	101.19
635.129	118.19
635.335	108.19
635.541	130.19
635.747	128.19
635.952	122.19
636.158	132.19
636.364	112.19
636.57	114.19
636.775	129.19
636.981	112.19
637.187	121.19
637.392	105.19
637.598	132.19
637.804	128.19
638.009	114.19
638.215	120.19
638.421	115.19
638.626	130.19
638.832	114.19
639.037	113.19
639.243	115.19
639.448	134.19
639.654	122.19
639.859	122.19
640.065	106.19
640.27	112.19
640.475	128.19
640.681	120.19
640.886	121.19
641.091	109.19
641.297	131.19
641.502	122.19
641.707	116.19
641.913	126.19
642.118	126.19
642.323	125.19
642.528	102.19
642.733	124.19
642.939	142.19
643.144	109.19
643.349	106.19
643.554	107.19
643.759	107.19
643.964	121.19
644.169	109.19
644.374	123.19
644.579	122.19
644.784	121.19
644.989	122.19
645.194	138.19
645.399	122.19
645.604	120.19
645.809	122.19
646.014	118.19
646.219	114.19
646.423	112.19
646.628	120.19
646.833	112.19
647.038	112.19
647.243	108.19
647.447	124.19
647.652	116.19
647.857	119.19
648.062	132.19
648.266	117.19
648.471	129.19
648.676	124.19
648.88	116.19
649.085	86.19
649.289	120.19
649.494	109.19
649.698	103.19
649.903	114.19
650.107	116.19
650.312	121.19
650.516	120.19
650.721	117.19
650.925	114.19
651.13	98.19
651.334	114.19
651.539	114.19
651.743	119.19
651.947	103.19
652.152	94.19
652.356	126.19
652.56	123.19
652.764	107.19
652.969	113.19
653.173	98.19
653.377	108.19
653.581	112.19
653.785	113.19
653.99	109.19
654.194	106.19
654.398	110.19
654.602	102.19
654.806	99.19
655.01	133.19
655.214	108.19
655.418	108.19
655.622	102.19
655.826	99.19
656.03	106.19
656.234	115.19
656.438	102.19
656.642	92.19
656.846	105.19
657.049	92.19
657.253	112.19
657.457	107.19
657.661	91.19
657.865	116.19
658.068	100.19
658.272	101.19
658.476	92.19
658.68	94.19
658.883	98.19
659.087	97.19
659.291	96.19
659.494	102.19
659.698	84.19
659.901	93.19
660.105	88.19
660.309	86.19
660.512	72.19
660.716	92.19
660.919	87.19
661.123	92.19
661.326	93.19
661.53	93.19
661.733	86.19
661.936	87.19
662.14	82.19
662.343	86.19
662.546	82.19
662.75	84.19
662.953	89.19
663.156	103.19
663.36	90.19
663.563	84.19
663.766	80.19
663.969	80.19
664.173	86.19
664.376	90.19
664.579	79.19
664.782	77.19
664.985	77.19
665.188	81.19
665.391	84.19
665.594	80.19
665.797	90.19
666	81.19
666.203	67.19
666.406	77.19
666.609	78.19
666.812	77.19
667.015	81.19
667.218	84.19
667.421	86.19
667.624	71.19
667.827	80.19
668.03	84.19
668.232	71.19
668.435	79.19
668.638	84.19
668.841	87.19
669.043	89.19
669.246	84.19
669.449	84.19
669.651	85.19
669.854	78.19
670.057	68.19
670.259	75.19
670.462	68.19
670.665	74.19
670.867	84.19
671.07	92.19
671.272	92.19
671.475	88.19
671.677	83.19
671.88	76.19
672.082	56.19
672.284	94.19
672.487	73.19
672.689	77.19
672.892	89.19
