Data from Fe(NO3)3@0.1M.TitratingCurve.Agarose3%dH2O.NegLispCup.LampEnergy10.LIBS07252019_HRD10591_16-38-16-332.txt Node
Date: Thu Jul 25 16:38:16 EDT 2019
User: cochatt
Spectrometer: HR+D1059
Trigger mode: 1
Integration Time (sec): 1.000000E-1
Scans to average: 1
Electric dark correction enabled: true
Nonlinearity correction enabled: false
Boxcar width: 0
XAxis mode: Wavelengths
Number of Pixels in Spectrum: 2048
>>>>>Begin Spectral Data<<<<<
223.165	-22.56
223.4	-22.56
223.635	-22.56
223.869	-26.56
224.104	-15.56
224.338	-14.56
224.573	-3.56
224.808	-20.56
225.042	-10.56
225.277	10.44
225.511	-3.56
225.746	1.44
225.98	2.44
226.215	10.44
226.449	22.44
226.683	21.44
226.918	24.44
227.152	24.44
227.387	44.44
227.621	32.44
227.856	37.44
228.09	44.44
228.324	40.44
228.559	48.44
228.793	55.44
229.027	68.44
229.262	69.44
229.496	64.44
229.73	75.44
229.964	66.44
230.199	76.44
230.433	77.44
230.667	81.44
230.901	87.44
231.136	80.44
231.37	80.44
231.604	78.44
231.838	76.44
232.072	90.44
232.306	84.44
232.541	78.44
232.775	93.44
233.009	87.44
233.243	92.44
233.477	79.44
233.711	81.44
233.945	87.44
234.179	70.44
234.413	87.44
234.647	94.44
234.881	93.44
235.115	85.44
235.349	90.44
235.583	83.44
235.817	88.44
236.051	85.44
236.285	96.44
236.519	75.44
236.753	91.44
236.987	87.44
237.221	87.44
237.455	74.44
237.689	93.44
237.922	86.44
238.156	80.44
238.39	88.44
238.624	77.44
238.858	92.44
239.091	82.44
239.325	70.44
239.559	85.44
239.793	79.44
240.027	68.44
240.26	85.44
240.494	81.44
240.728	83.44
240.961	93.44
241.195	82.44
241.429	92.44
241.662	85.44
241.896	85.44
242.13	79.44
242.363	84.44
242.597	88.44
242.83	92.44
243.064	89.44
243.298	88.44
243.531	90.44
243.765	109.44
243.998	73.44
244.232	84.44
244.465	76.44
244.699	82.44
244.932	94.44
245.166	86.44
245.399	76.44
245.633	89.44
245.866	79.44
246.099	78.44
246.333	87.44
246.566	85.44
246.8	84.44
247.033	82.44
247.266	96.44
247.5	85.44
247.733	88.44
247.966	100.44
248.2	92.44
248.433	84.44
248.666	98.44
248.899	99.44
249.133	93.44
249.366	102.44
249.599	98.44
249.832	81.44
250.066	101.44
250.299	96.44
250.532	97.44
250.765	96.44
250.998	77.44
251.231	98.44
251.465	98.44
251.698	83.44
251.931	98.44
252.164	108.44
252.397	90.44
252.63	85.44
252.863	101.44
253.096	95.44
253.329	86.44
253.562	96.44
253.795	74.44
254.028	81.44
254.261	90.44
254.494	86.44
254.727	107.44
254.96	94.44
255.193	85.44
255.426	102.44
255.659	79.44
255.892	97.44
256.124	99.44
256.357	84.44
256.59	94.44
256.823	99.44
257.056	91.44
257.289	87.44
257.521	96.44
257.754	89.44
257.987	96.44
258.22	96.44
258.452	90.44
258.685	97.44
258.918	99.44
259.151	84.44
259.383	100.44
259.616	89.44
259.849	103.44
260.081	112.44
260.314	94.44
260.547	96.44
260.779	101.44
261.012	105.44
261.244	101.44
261.477	109.44
261.71	96.44
261.942	91.44
262.175	97.44
262.407	87.44
262.64	90.44
262.872	100.44
263.105	98.44
263.337	106.44
263.57	91.44
263.802	83.44
264.035	102.44
264.267	102.44
264.499	88.44
264.732	98.44
264.964	100.44
265.197	97.44
265.429	93.44
265.661	107.44
265.894	91.44
266.126	89.44
266.358	92.44
266.591	101.44
266.823	107.44
267.055	92.44
267.287	109.44
267.52	95.44
267.752	106.44
267.984	113.44
268.216	93.44
268.448	92.44
268.681	106.44
268.913	116.44
269.145	102.44
269.377	105.44
269.609	109.44
269.841	112.44
270.073	92.44
270.306	88.44
270.538	96.44
270.77	84.44
271.002	93.44
271.234	95.44
271.466	102.44
271.698	90.44
271.93	92.44
272.162	115.44
272.394	102.44
272.626	98.44
272.858	101.44
273.09	115.44
273.322	88.44
273.553	121.44
273.785	112.44
274.017	112.44
274.249	117.44
274.481	107.44
274.713	102.44
274.945	108.44
275.176	115.44
275.408	116.44
275.64	105.44
275.872	102.44
276.104	92.44
276.335	113.44
276.567	116.44
276.799	112.44
277.031	103.44
277.262	106.44
277.494	103.44
277.726	114.44
277.957	105.44
278.189	93.44
278.421	105.44
278.652	100.44
278.884	101.44
279.115	108.44
279.347	100.44
279.579	109.44
279.81	124.44
280.042	116.44
280.273	106.44
280.505	108.44
280.736	112.44
280.968	114.44
281.199	112.44
281.431	102.44
281.662	112.44
281.894	100.44
282.125	109.44
282.356	107.44
282.588	116.44
282.819	128.44
283.051	114.44
283.282	102.44
283.513	104.44
283.745	105.44
283.976	107.44
284.207	134.44
284.439	96.44
284.67	114.44
284.901	117.44
285.132	109.44
285.364	115.44
285.595	112.44
285.826	107.44
286.057	107.44
286.288	117.44
286.52	116.44
286.751	132.44
286.982	106.44
287.213	93.44
287.444	123.44
287.675	107.44
287.906	124.44
288.138	123.44
288.369	127.44
288.6	114.44
288.831	106.44
289.062	105.44
289.293	122.44
289.524	120.44
289.755	107.44
289.986	107.44
290.217	126.44
290.448	123.44
290.679	108.44
290.91	114.44
291.141	112.44
291.371	124.44
291.602	126.44
291.833	103.44
292.064	107.44
292.295	117.44
292.526	116.44
292.757	102.44
292.987	97.44
293.218	118.44
293.449	117.44
293.68	124.44
293.91	106.44
294.141	107.44
294.372	119.44
294.603	117.44
294.833	97.44
295.064	118.44
295.295	120.44
295.525	116.44
295.756	126.44
295.987	112.44
296.217	118.44
296.448	106.44
296.679	118.44
296.909	112.44
297.14	114.44
297.37	131.44
297.601	105.44
297.831	116.44
298.062	122.44
298.292	121.44
298.523	114.44
298.753	120.44
298.984	105.44
299.214	114.44
299.445	101.44
299.675	118.44
299.905	111.44
300.136	116.44
300.366	122.44
300.597	124.44
300.827	130.44
301.057	105.44
301.288	119.44
301.518	120.44
301.748	125.44
301.979	130.44
302.209	126.44
302.439	120.44
302.669	123.44
302.9	112.44
303.13	117.44
303.36	125.44
303.59	118.44
303.82	114.44
304.051	122.44
304.281	115.44
304.511	124.44
304.741	121.44
304.971	118.44
305.201	126.44
305.431	115.44
305.661	112.44
305.891	130.44
306.121	117.44
306.352	133.44
306.582	113.44
306.812	123.44
307.042	126.44
307.272	118.44
307.502	120.44
307.731	126.44
307.961	120.44
308.191	112.44
308.421	120.44
308.651	119.44
308.881	108.44
309.111	123.44
309.341	115.44
309.571	121.44
309.8	122.44
310.03	129.44
310.26	124.44
310.49	112.44
310.72	112.44
310.949	127.44
311.179	122.44
311.409	121.44
311.639	128.44
311.868	128.44
312.098	116.44
312.328	124.44
312.557	132.44
312.787	123.44
313.017	115.44
313.246	128.44
313.476	122.44
313.706	123.44
313.935	133.44
314.165	116.44
314.394	115.44
314.624	134.44
314.853	130.44
315.083	115.44
315.312	126.44
315.542	132.44
315.771	131.44
316.001	125.44
316.23	115.44
316.46	109.44
316.689	131.44
316.919	140.44
317.148	123.44
317.377	125.44
317.607	130.44
317.836	122.44
318.065	135.44
318.295	123.44
318.524	121.44
318.753	121.44
318.983	120.44
319.212	121.44
319.441	129.44
319.67	126.44
319.9	140.44
320.129	119.44
320.358	118.44
320.587	135.44
320.816	141.44
321.046	127.44
321.275	126.44
321.504	116.44
321.733	121.44
321.962	137.44
322.191	135.44
322.42	128.44
322.649	134.44
322.878	127.44
323.108	130.44
323.337	115.44
323.566	141.44
323.795	141.44
324.024	133.44
324.253	129.44
324.482	125.44
324.71	127.44
324.939	131.44
325.168	129.44
325.397	130.44
325.626	133.44
325.855	140.44
326.084	138.44
326.313	144.44
326.542	128.44
326.77	136.44
326.999	120.44
327.228	129.44
327.457	134.44
327.686	133.44
327.914	126.44
328.143	126.44
328.372	132.44
328.6	150.44
328.829	135.44
329.058	145.44
329.287	136.44
329.515	141.44
329.744	133.44
329.972	131.44
330.201	136.44
330.43	138.44
330.658	147.44
330.887	138.44
331.115	138.44
331.344	139.44
331.572	133.44
331.801	134.44
332.03	141.44
332.258	135.44
332.486	151.44
332.715	153.44
332.943	149.44
333.172	149.44
333.4	150.44
333.629	142.44
333.857	152.44
334.085	154.44
334.314	140.44
334.542	136.44
334.771	145.44
334.999	139.44
335.227	138.44
335.455	152.44
335.684	142.44
335.912	130.44
336.14	150.44
336.369	147.44
336.597	134.44
336.825	145.44
337.053	128.44
337.281	138.44
337.51	149.44
337.738	137.44
337.966	126.44
338.194	136.44
338.422	139.44
338.65	136.44
338.878	145.44
339.106	135.44
339.334	150.44
339.562	151.44
339.79	142.44
340.018	141.44
340.246	140.44
340.474	148.44
340.702	137.44
340.93	144.44
341.158	146.44
341.386	116.44
341.614	126.44
341.842	116.44
342.07	148.44
342.298	143.44
342.526	125.44
342.754	145.44
342.981	128.44
343.209	138.44
343.437	140.44
343.665	130.44
343.893	166.44
344.12	149.44
344.348	158.44
344.576	149.44
344.804	134.44
345.031	144.44
345.259	124.44
345.487	138.44
345.714	133.44
345.942	125.44
346.17	129.44
346.397	135.44
346.625	142.44
346.853	124.44
347.08	141.44
347.308	124.44
347.535	143.44
347.763	144.44
347.99	138.44
348.218	158.44
348.445	127.44
348.673	143.44
348.9	128.44
349.128	131.44
349.355	135.44
349.583	142.44
349.81	140.44
350.037	133.44
350.265	124.44
350.492	124.44
350.72	138.44
350.947	128.44
351.174	137.44
351.402	142.44
351.629	151.44
351.856	140.44
352.083	148.44
352.311	145.44
352.538	132.44
352.765	137.44
352.992	148.44
353.22	132.44
353.447	139.44
353.674	126.44
353.901	145.44
354.128	152.44
354.355	136.44
354.583	152.44
354.81	134.44
355.037	130.44
355.264	124.44
355.491	145.44
355.718	139.44
355.945	141.44
356.172	140.44
356.399	133.44
356.626	143.44
356.853	138.44
357.08	140.44
357.307	134.44
357.534	130.44
357.761	118.44
357.988	125.44
358.215	134.44
358.441	146.44
358.668	132.44
358.895	126.44
359.122	126.44
359.349	136.44
359.576	129.44
359.802	120.44
360.029	139.44
360.256	127.44
360.483	131.44
360.709	134.44
360.936	144.44
361.163	125.44
361.39	134.44
361.616	128.44
361.843	120.44
362.07	133.44
362.296	142.44
362.523	130.44
362.749	141.44
362.976	151.44
363.203	136.44
363.429	134.44
363.656	147.44
363.882	126.44
364.109	128.44
364.335	138.44
364.562	121.44
364.788	125.44
365.015	135.44
365.241	133.44
365.468	150.44
365.694	139.44
365.92	134.44
366.147	131.44
366.373	139.44
366.599	141.44
366.826	141.44
367.052	127.44
367.278	116.44
367.505	122.44
367.731	131.44
367.957	150.44
368.184	136.44
368.41	146.44
368.636	131.44
368.862	149.44
369.089	153.44
369.315	133.44
369.541	138.44
369.767	142.44
369.993	153.44
370.219	146.44
370.445	136.44
370.672	146.44
370.898	148.44
371.124	142.44
371.35	139.44
371.576	133.44
371.802	144.44
372.028	137.44
372.254	156.44
372.48	141.44
372.706	144.44
372.932	146.44
373.158	140.44
373.384	147.44
373.61	156.44
373.835	142.44
374.061	148.44
374.287	148.44
374.513	135.44
374.739	146.44
374.965	142.44
375.191	161.44
375.416	140.44
375.642	141.44
375.868	144.44
376.094	136.44
376.319	148.44
376.545	147.44
376.771	160.44
376.997	149.44
377.222	145.44
377.448	142.44
377.674	135.44
377.899	151.44
378.125	149.44
378.35	148.44
378.576	137.44
378.802	159.44
379.027	146.44
379.253	147.44
379.478	154.44
379.704	144.44
379.929	157.44
380.155	159.44
380.38	134.44
380.606	144.44
380.831	162.44
381.057	150.44
381.282	135.44
381.507	146.44
381.733	149.44
381.958	156.44
382.184	155.44
382.409	165.44
382.634	168.44
382.86	150.44
383.085	166.44
383.31	169.44
383.535	177.44
383.761	156.44
383.986	158.44
384.211	152.44
384.436	174.44
384.662	157.44
384.887	169.44
385.112	158.44
385.337	166.44
385.562	157.44
385.787	168.44
386.013	167.44
386.238	176.44
386.463	184.44
386.688	169.44
386.913	166.44
387.138	167.44
387.363	170.44
387.588	182.44
387.813	177.44
388.038	174.44
388.263	172.44
388.488	188.44
388.713	179.44
388.938	167.44
389.163	157.44
389.387	175.44
389.612	163.44
389.837	184.44
390.062	174.44
390.287	188.44
390.512	195.44
390.736	170.44
390.961	159.44
391.186	165.44
391.411	182.44
391.636	183.44
391.86	183.44
392.085	174.44
392.31	184.44
392.534	163.44
392.759	164.44
392.984	173.44
393.208	182.44
393.433	165.44
393.658	157.44
393.882	171.44
394.107	172.44
394.331	195.44
394.556	163.44
394.78	181.44
395.005	169.44
395.229	178.44
395.454	190.44
395.678	179.44
395.903	178.44
396.127	180.44
396.352	193.44
396.576	178.44
396.801	187.44
397.025	186.44
397.249	185.44
397.474	192.44
397.698	188.44
397.922	198.44
398.147	198.44
398.371	188.44
398.595	209.44
398.82	182.44
399.044	218.44
399.268	200.44
399.492	218.44
399.717	243.44
399.941	237.44
400.165	226.44
400.389	213.44
400.613	206.44
400.837	206.44
401.062	181.44
401.286	202.44
401.51	211.44
401.734	192.44
401.958	198.44
402.182	199.44
402.406	206.44
402.63	202.44
402.854	218.44
403.078	197.44
403.302	199.44
403.526	216.44
403.75	209.44
403.974	220.44
404.198	216.44
404.422	202.44
404.645	208.44
404.869	220.44
405.093	224.44
405.317	206.44
405.541	204.44
405.765	211.44
405.988	220.44
406.212	219.44
406.436	211.44
406.66	221.44
406.883	199.44
407.107	217.44
407.331	233.44
407.555	247.44
407.778	245.44
408.002	236.44
408.226	228.44
408.449	213.44
408.673	236.44
408.896	226.44
409.12	213.44
409.344	236.44
409.567	218.44
409.791	224.44
410.014	217.44
410.238	209.44
410.461	222.44
410.685	227.44
410.908	219.44
411.132	217.44
411.355	205.44
411.578	204.44
411.802	224.44
412.025	215.44
412.249	215.44
412.472	211.44
412.695	197.44
412.919	199.44
413.142	219.44
413.365	212.44
413.589	194.44
413.812	194.44
414.035	202.44
414.258	217.44
414.482	217.44
414.705	214.44
414.928	202.44
415.151	207.44
415.374	196.44
415.597	214.44
415.821	209.44
416.044	214.44
416.267	202.44
416.49	196.44
416.713	199.44
416.936	189.44
417.159	208.44
417.382	197.44
417.605	192.44
417.828	204.44
418.051	193.44
418.274	196.44
418.497	226.44
418.72	229.44
418.943	197.44
419.166	210.44
419.389	211.44
419.611	232.44
419.834	231.44
420.057	198.44
420.28	220.44
420.503	218.44
420.726	210.44
420.948	210.44
421.171	198.44
421.394	224.44
421.617	217.44
421.839	221.44
422.062	200.44
422.285	209.44
422.507	209.44
422.73	214.44
422.953	215.44
423.175	208.44
423.398	205.44
423.621	214.44
423.843	220.44
424.066	206.44
424.288	212.44
424.511	214.44
424.733	199.44
424.956	208.44
425.178	225.44
425.401	196.44
425.623	210.44
425.846	190.44
426.068	203.44
426.291	206.44
426.513	188.44
426.735	200.44
426.958	204.44
427.18	211.44
427.402	199.44
427.625	201.44
427.847	199.44
428.069	202.44
428.292	201.44
428.514	193.44
428.736	205.44
428.958	205.44
429.181	197.44
429.403	189.44
429.625	200.44
429.847	197.44
430.069	199.44
430.292	195.44
430.514	197.44
430.736	183.44
430.958	198.44
431.18	184.44
431.402	196.44
431.624	200.44
431.846	180.44
432.068	193.44
432.29	200.44
432.512	205.44
432.734	196.44
432.956	195.44
433.178	205.44
433.4	200.44
433.622	208.44
433.844	211.44
434.066	218.44
434.287	220.44
434.509	197.44
434.731	201.44
434.953	201.44
435.175	214.44
435.397	205.44
435.618	212.44
435.84	199.44
436.062	202.44
436.284	208.44
436.505	188.44
436.727	193.44
436.949	208.44
437.17	207.44
437.392	199.44
437.614	195.44
437.835	194.44
438.057	180.44
438.278	189.44
438.5	200.44
438.721	198.44
438.943	212.44
439.165	191.44
439.386	200.44
439.608	205.44
439.829	199.44
440.05	216.44
440.272	212.44
440.493	197.44
440.715	194.44
440.936	210.44
441.158	211.44
441.379	199.44
441.6	218.44
441.822	229.44
442.043	202.44
442.264	206.44
442.486	190.44
442.707	220.44
442.928	202.44
443.149	214.44
443.371	202.44
443.592	201.44
443.813	216.44
444.034	227.44
444.255	216.44
444.476	230.44
444.698	217.44
444.919	229.44
445.14	339.44
445.361	262.44
445.582	216.44
445.803	198.44
446.024	216.44
446.245	219.44
446.466	210.44
446.687	221.44
446.908	229.44
447.129	218.44
447.35	201.44
447.571	200.44
447.792	201.44
448.013	193.44
448.234	213.44
448.455	202.44
448.675	193.44
448.896	192.44
449.117	188.44
449.338	176.44
449.559	172.44
449.779	189.44
450	191.44
450.221	183.44
450.442	198.44
450.662	197.44
450.883	172.44
451.104	190.44
451.324	212.44
451.545	199.44
451.766	206.44
451.986	189.44
452.207	198.44
452.428	181.44
452.648	210.44
452.869	193.44
453.089	191.44
453.31	187.44
453.53	192.44
453.751	187.44
453.971	194.44
454.192	178.44
454.412	184.44
454.633	184.44
454.853	176.44
455.073	178.44
455.294	174.44
455.514	186.44
455.734	174.44
455.955	174.44
456.175	188.44
456.395	192.44
456.616	170.44
456.836	185.44
457.056	172.44
457.276	172.44
457.497	192.44
457.717	189.44
457.937	193.44
458.157	176.44
458.377	183.44
458.598	187.44
458.818	169.44
459.038	192.44
459.258	190.44
459.478	201.44
459.698	210.44
459.918	205.44
460.138	218.44
460.358	205.44
460.578	241.44
460.798	205.44
461.018	219.44
461.238	222.44
461.458	232.44
461.678	226.44
461.898	225.44
462.118	209.44
462.338	218.44
462.558	230.44
462.777	227.44
462.997	249.44
463.217	255.44
463.437	269.44
463.657	249.44
463.876	234.44
464.096	228.44
464.316	245.44
464.536	240.44
464.755	240.44
464.975	235.44
465.195	225.44
465.414	200.44
465.634	188.44
465.854	198.44
466.073	200.44
466.293	200.44
466.512	201.44
466.732	199.44
466.951	201.44
467.171	195.44
467.391	212.44
467.61	197.44
467.829	188.44
468.049	219.44
468.268	198.44
468.488	208.44
468.707	183.44
468.927	188.44
469.146	198.44
469.365	203.44
469.585	184.44
469.804	205.44
470.023	186.44
470.243	199.44
470.462	181.44
470.681	210.44
470.901	190.44
471.12	208.44
471.339	191.44
471.558	201.44
471.777	206.44
471.997	209.44
472.216	204.44
472.435	197.44
472.654	184.44
472.873	187.44
473.092	190.44
473.311	197.44
473.53	179.44
473.749	180.44
473.968	187.44
474.187	189.44
474.406	185.44
474.625	188.44
474.844	185.44
475.063	198.44
475.282	196.44
475.501	194.44
475.72	185.44
475.939	199.44
476.158	197.44
476.377	200.44
476.596	206.44
476.814	213.44
477.033	208.44
477.252	199.44
477.471	201.44
477.69	214.44
477.908	225.44
478.127	208.44
478.346	199.44
478.564	218.44
478.783	200.44
479.002	221.44
479.22	228.44
479.439	228.44
479.658	213.44
479.876	214.44
480.095	205.44
480.313	213.44
480.532	232.44
480.751	247.44
480.969	220.44
481.188	221.44
481.406	216.44
481.624	202.44
481.843	208.44
482.061	210.44
482.28	204.44
482.498	206.44
482.717	208.44
482.935	203.44
483.153	206.44
483.372	226.44
483.59	201.44
483.808	217.44
484.027	228.44
484.245	213.44
484.463	199.44
484.681	215.44
484.9	231.44
485.118	213.44
485.336	196.44
485.554	229.44
485.772	216.44
485.99	220.44
486.209	226.44
486.427	224.44
486.645	216.44
486.863	205.44
487.081	210.44
487.299	214.44
487.517	219.44
487.735	224.44
487.953	221.44
488.171	223.44
488.389	230.44
488.607	216.44
488.825	208.44
489.043	221.44
489.261	214.44
489.479	208.44
489.696	219.44
489.914	209.44
490.132	208.44
490.35	216.44
490.568	213.44
490.786	210.44
491.003	220.44
491.221	232.44
491.439	230.44
491.657	218.44
491.874	230.44
492.092	220.44
492.31	232.44
492.527	232.44
492.745	227.44
492.963	229.44
493.18	235.44
493.398	228.44
493.615	227.44
493.833	212.44
494.05	237.44
494.268	245.44
494.485	235.44
494.703	255.44
494.92	244.44
495.138	225.44
495.355	219.44
495.573	229.44
495.79	217.44
496.008	242.44
496.225	241.44
496.442	234.44
496.66	233.44
496.877	220.44
497.094	246.44
497.312	240.44
497.529	252.44
497.746	254.44
497.963	233.44
498.181	264.44
498.398	267.44
498.615	264.44
498.832	276.44
499.049	291.44
499.267	297.44
499.484	323.44
499.701	361.44
499.918	380.44
500.135	412.44
500.352	446.44
500.569	445.44
500.786	444.44
501.003	398.44
501.22	385.44
501.437	349.44
501.654	322.44
501.871	324.44
502.088	288.44
502.305	284.44
502.522	294.44
502.739	268.44
502.956	271.44
503.172	248.44
503.389	262.44
503.606	249.44
503.823	237.44
504.04	237.44
504.256	239.44
504.473	255.44
504.69	250.44
504.907	248.44
505.123	228.44
505.34	242.44
505.557	224.44
505.773	214.44
505.99	250.44
506.207	215.44
506.423	205.44
506.64	212.44
506.856	209.44
507.073	241.44
507.289	215.44
507.506	228.44
507.722	205.44
507.939	192.44
508.155	205.44
508.372	192.44
508.588	181.44
508.805	209.44
509.021	204.44
509.238	197.44
509.454	204.44
509.67	190.44
509.887	186.44
510.103	197.44
510.319	201.44
510.536	194.44
510.752	199.44
510.968	190.44
511.184	206.44
511.401	203.44
511.617	188.44
511.833	193.44
512.049	188.44
512.265	190.44
512.481	193.44
512.698	181.44
512.914	185.44
513.13	205.44
513.346	195.44
513.562	198.44
513.778	185.44
513.994	192.44
514.21	194.44
514.426	202.44
514.642	199.44
514.858	188.44
515.074	186.44
515.29	200.44
515.506	202.44
515.721	201.44
515.937	216.44
516.153	214.44
516.369	203.44
516.585	214.44
516.801	206.44
517.016	228.44
517.232	237.44
517.448	242.44
517.664	224.44
517.879	238.44
518.095	224.44
518.311	235.44
518.527	240.44
518.742	216.44
518.958	201.44
519.173	218.44
519.389	217.44
519.605	221.44
519.82	210.44
520.036	194.44
520.251	197.44
520.467	203.44
520.682	206.44
520.898	197.44
521.113	189.44
521.329	181.44
521.544	185.44
521.76	201.44
521.975	189.44
522.19	197.44
522.406	192.44
522.621	178.44
522.836	180.44
523.052	190.44
523.267	184.44
523.482	200.44
523.698	190.44
523.913	180.44
524.128	197.44
524.343	209.44
524.559	198.44
524.774	186.44
524.989	193.44
525.204	182.44
525.419	196.44
525.634	186.44
525.849	198.44
526.064	190.44
526.28	187.44
526.495	188.44
526.71	193.44
526.925	185.44
527.14	190.44
527.355	186.44
527.57	196.44
527.785	172.44
527.999	186.44
528.214	192.44
528.429	187.44
528.644	193.44
528.859	210.44
529.074	193.44
529.289	189.44
529.503	197.44
529.718	170.44
529.933	185.44
530.148	202.44
530.363	210.44
530.577	181.44
530.792	194.44
531.007	208.44
531.221	173.44
531.436	187.44
531.651	193.44
531.865	176.44
532.08	197.44
532.295	192.44
532.509	184.44
532.724	195.44
532.938	189.44
533.153	175.44
533.367	201.44
533.582	203.44
533.796	195.44
534.011	189.44
534.225	200.44
534.44	187.44
534.654	177.44
534.868	201.44
535.083	186.44
535.297	179.44
535.511	196.44
535.726	196.44
535.94	183.44
536.154	185.44
536.369	188.44
536.583	166.44
536.797	181.44
537.011	188.44
537.225	184.44
537.44	185.44
537.654	185.44
537.868	167.44
538.082	176.44
538.296	169.44
538.51	162.44
538.724	168.44
538.938	185.44
539.153	178.44
539.367	194.44
539.581	188.44
539.795	180.44
540.009	175.44
540.222	172.44
540.436	174.44
540.65	176.44
540.864	185.44
541.078	178.44
541.292	169.44
541.506	180.44
541.72	185.44
541.934	188.44
542.147	182.44
542.361	192.44
542.575	181.44
542.789	166.44
543.002	160.44
543.216	177.44
543.43	160.44
543.644	176.44
543.857	180.44
544.071	181.44
544.285	174.44
544.498	176.44
544.712	170.44
544.925	187.44
545.139	200.44
545.352	192.44
545.566	178.44
545.779	174.44
545.993	178.44
546.206	185.44
546.42	176.44
546.633	191.44
546.847	202.44
547.06	172.44
547.274	172.44
547.487	168.44
547.7	176.44
547.914	180.44
548.127	169.44
548.34	183.44
548.554	176.44
548.767	182.44
548.98	187.44
549.193	177.44
549.407	178.44
549.62	182.44
549.833	179.44
550.046	190.44
550.259	182.44
550.473	171.44
550.686	188.44
550.899	179.44
551.112	190.44
551.325	185.44
551.538	184.44
551.751	173.44
551.964	168.44
552.177	182.44
552.39	189.44
552.603	180.44
552.816	189.44
553.029	194.44
553.242	182.44
553.455	180.44
553.667	178.44
553.88	193.44
554.093	182.44
554.306	163.44
554.519	186.44
554.732	174.44
554.944	168.44
555.157	178.44
555.37	172.44
555.583	146.44
555.795	179.44
556.008	181.44
556.221	176.44
556.433	166.44
556.646	178.44
556.859	169.44
557.071	178.44
557.284	166.44
557.496	175.44
557.709	180.44
557.921	187.44
558.134	165.44
558.346	162.44
558.559	173.44
558.771	159.44
558.984	162.44
559.196	161.44
559.409	160.44
559.621	165.44
559.833	162.44
560.046	162.44
560.258	162.44
560.47	164.44
560.683	174.44
560.895	173.44
561.107	155.44
561.32	148.44
561.532	171.44
561.744	153.44
561.956	155.44
562.168	163.44
562.381	150.44
562.593	155.44
562.805	160.44
563.017	148.44
563.229	168.44
563.441	177.44
563.653	176.44
563.865	157.44
564.077	162.44
564.289	156.44
564.501	163.44
564.713	175.44
564.925	171.44
565.137	166.44
565.349	178.44
565.561	191.44
565.773	170.44
565.985	179.44
566.197	173.44
566.408	179.44
566.62	188.44
566.832	200.44
567.044	208.44
567.255	211.44
567.467	197.44
567.679	207.44
567.891	211.44
568.102	217.44
568.314	200.44
568.526	217.44
568.737	197.44
568.949	181.44
569.161	147.44
569.372	164.44
569.584	170.44
569.795	155.44
570.007	160.44
570.218	149.44
570.43	152.44
570.641	151.44
570.853	164.44
571.064	154.44
571.276	160.44
571.487	165.44
571.698	176.44
571.91	146.44
572.121	154.44
572.333	154.44
572.544	133.44
572.755	155.44
572.966	152.44
573.178	140.44
573.389	150.44
573.6	143.44
573.811	155.44
574.023	143.44
574.234	134.44
574.445	133.44
574.656	148.44
574.867	148.44
575.078	147.44
575.289	138.44
575.501	143.44
575.712	136.44
575.923	130.44
576.134	140.44
576.345	137.44
576.556	147.44
576.767	150.44
576.978	143.44
577.188	125.44
577.399	136.44
577.61	124.44
577.821	136.44
578.032	139.44
578.243	135.44
578.454	151.44
578.665	140.44
578.875	154.44
579.086	135.44
579.297	133.44
579.508	132.44
579.718	128.44
579.929	138.44
580.14	133.44
580.35	141.44
580.561	146.44
580.772	138.44
580.982	136.44
581.193	131.44
581.403	140.44
581.614	147.44
581.825	131.44
582.035	139.44
582.246	142.44
582.456	123.44
582.667	130.44
582.877	143.44
583.087	137.44
583.298	133.44
583.508	117.44
583.719	128.44
583.929	137.44
584.139	141.44
584.35	130.44
584.56	136.44
584.77	132.44
584.981	128.44
585.191	136.44
585.401	132.44
585.611	134.44
585.821	126.44
586.032	121.44
586.242	126.44
586.452	113.44
586.662	135.44
586.872	134.44
587.082	144.44
587.292	125.44
587.502	148.44
587.713	130.44
587.923	121.44
588.133	120.44
588.343	127.44
588.553	129.44
588.762	131.44
588.972	130.44
589.182	109.44
589.392	122.44
589.602	125.44
589.812	148.44
590.022	139.44
590.232	126.44
590.441	116.44
590.651	126.44
590.861	142.44
591.071	124.44
591.281	136.44
591.49	116.44
591.7	134.44
591.91	125.44
592.119	143.44
592.329	131.44
592.539	117.44
592.748	130.44
592.958	136.44
593.167	148.44
593.377	139.44
593.587	157.44
593.796	148.44
594.006	148.44
594.215	139.44
594.424	158.44
594.634	150.44
594.843	135.44
595.053	142.44
595.262	131.44
595.472	139.44
595.681	112.44
595.89	132.44
596.1	136.44
596.309	131.44
596.518	130.44
596.727	134.44
596.937	128.44
597.146	124.44
597.355	126.44
597.564	117.44
597.774	108.44
597.983	125.44
598.192	120.44
598.401	125.44
598.61	115.44
598.819	120.44
599.028	119.44
599.237	113.44
599.446	129.44
599.655	125.44
599.864	120.44
600.073	115.44
600.282	122.44
600.491	126.44
600.7	122.44
600.909	128.44
601.118	118.44
601.327	107.44
601.536	128.44
601.745	109.44
601.953	121.44
602.162	119.44
602.371	109.44
602.58	120.44
602.789	126.44
602.997	130.44
603.206	136.44
603.415	119.44
603.623	117.44
603.832	122.44
604.041	124.44
604.249	118.44
604.458	105.44
604.666	124.44
604.875	117.44
605.084	121.44
605.292	119.44
605.501	109.44
605.709	141.44
605.918	117.44
606.126	122.44
606.334	113.44
606.543	102.44
606.751	132.44
606.96	118.44
607.168	126.44
607.376	121.44
607.585	100.44
607.793	120.44
608.001	124.44
608.21	105.44
608.418	118.44
608.626	122.44
608.834	118.44
609.043	128.44
609.251	109.44
609.459	116.44
609.667	116.44
609.875	122.44
610.083	125.44
610.291	121.44
610.499	116.44
610.707	124.44
610.916	121.44
611.124	127.44
611.332	120.44
611.54	124.44
611.748	110.44
611.955	126.44
612.163	111.44
612.371	115.44
612.579	118.44
612.787	116.44
612.995	118.44
613.203	124.44
613.411	109.44
613.618	122.44
613.826	110.44
614.034	120.44
614.242	117.44
614.449	108.44
614.657	125.44
614.865	107.44
615.072	124.44
615.28	99.44
615.488	115.44
615.695	109.44
615.903	114.44
616.111	112.44
616.318	109.44
616.526	116.44
616.733	118.44
616.941	105.44
617.148	107.44
617.356	105.44
617.563	104.44
617.771	116.44
617.978	116.44
618.185	123.44
618.393	105.44
618.6	128.44
618.807	118.44
619.015	109.44
619.222	128.44
619.429	124.44
619.637	116.44
619.844	123.44
620.051	100.44
620.258	120.44
620.466	112.44
620.673	106.44
620.88	114.44
621.087	104.44
621.294	124.44
621.501	88.44
621.708	121.44
621.915	116.44
622.122	107.44
622.329	118.44
622.536	122.44
622.743	106.44
622.95	107.44
623.157	119.44
623.364	121.44
623.571	126.44
623.778	131.44
623.985	112.44
624.192	122.44
624.399	104.44
624.606	109.44
624.812	114.44
625.019	104.44
625.226	103.44
625.433	106.44
625.639	106.44
625.846	101.44
626.053	112.44
626.259	110.44
626.466	112.44
626.673	117.44
626.879	101.44
627.086	118.44
627.293	102.44
627.499	96.44
627.706	104.44
627.912	102.44
628.119	103.44
628.325	111.44
628.532	112.44
628.738	117.44
628.945	113.44
629.151	117.44
629.357	105.44
629.564	98.44
629.77	115.44
629.976	119.44
630.183	99.44
630.389	99.44
630.595	99.44
630.802	105.44
631.008	106.44
631.214	113.44
631.42	118.44
631.627	113.44
631.833	117.44
632.039	111.44
632.245	106.44
632.451	108.44
632.657	100.44
632.863	115.44
633.069	102.44
633.275	102.44
633.481	101.44
633.688	106.44
633.893	105.44
634.099	104.44
634.305	93.44
634.511	102.44
634.717	89.44
634.923	100.44
635.129	105.44
635.335	105.44
635.541	110.44
635.747	107.44
635.952	114.44
636.158	114.44
636.364	112.44
636.57	102.44
636.775	90.44
636.981	99.44
637.187	114.44
637.392	99.44
637.598	89.44
637.804	114.44
638.009	106.44
638.215	113.44
638.421	110.44
638.626	93.44
638.832	98.44
639.037	107.44
639.243	93.44
639.448	94.44
639.654	116.44
639.859	104.44
640.065	109.44
640.27	110.44
640.475	110.44
640.681	99.44
640.886	107.44
641.091	110.44
641.297	112.44
641.502	105.44
641.707	105.44
641.913	93.44
642.118	99.44
642.323	114.44
642.528	98.44
642.733	110.44
642.939	96.44
643.144	99.44
643.349	105.44
643.554	112.44
643.759	98.44
643.964	97.44
644.169	97.44
644.374	112.44
644.579	112.44
644.784	117.44
644.989	94.44
645.194	92.44
645.399	106.44
645.604	101.44
645.809	95.44
646.014	94.44
646.219	113.44
646.423	100.44
646.628	109.44
646.833	98.44
647.038	120.44
647.243	100.44
647.447	86.44
647.652	98.44
647.857	97.44
648.062	90.44
648.266	109.44
648.471	102.44
648.676	98.44
648.88	93.44
649.085	94.44
649.289	103.44
649.494	117.44
649.698	97.44
649.903	109.44
650.107	108.44
650.312	92.44
650.516	114.44
650.721	92.44
650.925	90.44
651.13	113.44
651.334	100.44
651.539	120.44
651.743	108.44
651.947	108.44
652.152	113.44
652.356	90.44
652.56	89.44
652.764	104.44
652.969	109.44
653.173	106.44
653.377	109.44
653.581	96.44
653.785	106.44
653.99	99.44
654.194	98.44
654.398	111.44
654.602	88.44
654.806	102.44
655.01	101.44
655.214	100.44
655.418	81.44
655.622	85.44
655.826	88.44
656.03	96.44
656.234	97.44
656.438	107.44
656.642	104.44
656.846	97.44
657.049	94.44
657.253	112.44
657.457	94.44
657.661	96.44
657.865	112.44
658.068	89.44
658.272	88.44
658.476	89.44
658.68	95.44
658.883	97.44
659.087	83.44
659.291	92.44
659.494	82.44
659.698	97.44
659.901	94.44
660.105	96.44
660.309	68.44
660.512	92.44
660.716	86.44
660.919	71.44
661.123	84.44
661.326	93.44
661.53	99.44
661.733	97.44
661.936	82.44
662.14	81.44
662.343	88.44
662.546	75.44
662.75	91.44
662.953	87.44
663.156	96.44
663.36	84.44
663.563	85.44
663.766	82.44
663.969	75.44
664.173	93.44
664.376	92.44
664.579	74.44
664.782	86.44
664.985	73.44
665.188	83.44
665.391	78.44
665.594	78.44
665.797	95.44
666	73.44
666.203	85.44
666.406	93.44
666.609	84.44
666.812	86.44
667.015	90.44
667.218	79.44
667.421	80.44
667.624	86.44
667.827	89.44
668.03	87.44
668.232	90.44
668.435	86.44
668.638	82.44
668.841	93.44
669.043	85.44
669.246	76.44
669.449	86.44
669.651	78.44
669.854	83.44
670.057	79.44
670.259	89.44
670.462	86.44
670.665	90.44
670.867	95.44
671.07	83.44
671.272	88.44
671.475	96.44
671.677	93.44
671.88	81.44
672.082	84.44
672.284	91.44
672.487	88.44
672.689	78.44
672.892	72.44
