Data from Fe(NO3)3@0.1M.TitratingCurve.Agarose3%dH2O.NegLispCup.LampEnergy10.LIBS07252019_HRD10591_16-38-24-331.txt Node
Date: Thu Jul 25 16:38:24 EDT 2019
User: cochatt
Spectrometer: HR+D1059
Trigger mode: 1
Integration Time (sec): 1.000000E-1
Scans to average: 1
Electric dark correction enabled: true
Nonlinearity correction enabled: false
Boxcar width: 0
XAxis mode: Wavelengths
Number of Pixels in Spectrum: 2048
>>>>>Begin Spectral Data<<<<<
223.165	-13
223.4	-13
223.635	-13
223.869	-16
224.104	-21
224.338	-15
224.573	-14
224.808	-5
225.042	-8
225.277	-15
225.511	-10
225.746	3
225.98	8
226.215	10
226.449	31
226.683	12
226.918	31
227.152	22
227.387	35
227.621	37
227.856	43
228.09	44
228.324	42
228.559	62
228.793	57
229.027	70
229.262	66
229.496	72
229.73	79
229.964	62
230.199	74
230.433	73
230.667	84
230.901	86
231.136	82
231.37	71
231.604	84
231.838	96
232.072	80
232.306	97
232.541	94
232.775	99
233.009	76
233.243	86
233.477	119
233.711	84
233.945	97
234.179	94
234.413	84
234.647	105
234.881	100
235.115	95
235.349	84
235.583	106
235.817	98
236.051	96
236.285	90
236.519	92
236.753	82
236.987	83
237.221	83
237.455	98
237.689	94
237.922	99
238.156	87
238.39	83
238.624	82
238.858	91
239.091	96
239.325	97
239.559	88
239.793	93
240.027	102
240.26	87
240.494	88
240.728	103
240.961	93
241.195	91
241.429	94
241.662	88
241.896	82
242.13	98
242.363	88
242.597	98
242.83	108
243.064	94
243.298	89
243.531	77
243.765	97
243.998	97
244.232	100
244.465	103
244.699	95
244.932	103
245.166	104
245.399	90
245.633	106
245.866	89
246.099	99
246.333	106
246.566	107
246.8	90
247.033	97
247.266	104
247.5	92
247.733	114
247.966	112
248.2	99
248.433	104
248.666	104
248.899	111
249.133	104
249.366	104
249.599	96
249.832	97
250.066	102
250.299	114
250.532	115
250.765	114
250.998	107
251.231	120
251.465	110
251.698	114
251.931	112
252.164	114
252.397	105
252.63	123
252.863	111
253.096	115
253.329	119
253.562	114
253.795	104
254.028	114
254.261	116
254.494	101
254.727	111
254.96	102
255.193	99
255.426	112
255.659	102
255.892	101
256.124	105
256.357	108
256.59	120
256.823	126
257.056	116
257.289	127
257.521	120
257.754	105
257.987	102
258.22	105
258.452	123
258.685	113
258.918	117
259.151	108
259.383	112
259.616	88
259.849	108
260.081	110
260.314	107
260.547	106
260.779	122
261.012	116
261.244	113
261.477	122
261.71	112
261.942	102
262.175	114
262.407	120
262.64	120
262.872	111
263.105	126
263.337	120
263.57	125
263.802	116
264.035	117
264.267	115
264.499	119
264.732	122
264.964	116
265.197	120
265.429	116
265.661	133
265.894	115
266.126	140
266.358	121
266.591	122
266.823	126
267.055	121
267.287	140
267.52	126
267.752	139
267.984	129
268.216	129
268.448	134
268.681	119
268.913	129
269.145	124
269.377	107
269.609	117
269.841	134
270.073	128
270.306	129
270.538	138
270.77	136
271.002	146
271.234	132
271.466	120
271.698	128
271.93	127
272.162	110
272.394	148
272.626	123
272.858	137
273.09	146
273.322	138
273.553	130
273.785	140
274.017	139
274.249	120
274.481	129
274.713	127
274.945	129
275.176	123
275.408	133
275.64	147
275.872	127
276.104	138
276.335	127
276.567	140
276.799	126
277.031	131
277.262	137
277.494	136
277.726	132
277.957	135
278.189	145
278.421	141
278.652	132
278.884	132
279.115	138
279.347	144
279.579	149
279.81	140
280.042	142
280.273	144
280.505	145
280.736	151
280.968	152
281.199	151
281.431	156
281.662	139
281.894	123
282.125	143
282.356	148
282.588	158
282.819	144
283.051	146
283.282	159
283.513	160
283.745	154
283.976	155
284.207	148
284.439	151
284.67	148
284.901	147
285.132	139
285.364	139
285.595	154
285.826	158
286.057	160
286.288	146
286.52	156
286.751	150
286.982	154
287.213	147
287.444	153
287.675	152
287.906	170
288.138	138
288.369	146
288.6	136
288.831	146
289.062	157
289.293	146
289.524	162
289.755	161
289.986	133
290.217	146
290.448	151
290.679	154
290.91	154
291.141	155
291.371	168
291.602	144
291.833	153
292.064	164
292.295	163
292.526	152
292.757	155
292.987	157
293.218	160
293.449	151
293.68	143
293.91	143
294.141	162
294.372	158
294.603	167
294.833	161
295.064	162
295.295	167
295.525	161
295.756	181
295.987	150
296.217	139
296.448	154
296.679	170
296.909	162
297.14	161
297.37	154
297.601	180
297.831	158
298.062	166
298.292	157
298.523	174
298.753	165
298.984	174
299.214	148
299.445	167
299.675	175
299.905	164
300.136	165
300.366	166
300.597	171
300.827	175
301.057	176
301.288	175
301.518	151
301.748	160
301.979	174
302.209	162
302.439	162
302.669	162
302.9	168
303.13	174
303.36	168
303.59	154
303.82	163
304.051	170
304.281	175
304.511	170
304.741	170
304.971	160
305.201	168
305.431	177
305.661	173
305.891	161
306.121	166
306.352	170
306.582	164
306.812	169
307.042	167
307.272	184
307.502	175
307.731	155
307.961	160
308.191	171
308.421	174
308.651	153
308.881	156
309.111	162
309.341	169
309.571	158
309.8	170
310.03	174
310.26	176
310.49	174
310.72	175
310.949	176
311.179	179
311.409	174
311.639	164
311.868	170
312.098	162
312.328	187
312.557	167
312.787	176
313.017	178
313.246	194
313.476	183
313.706	184
313.935	185
314.165	172
314.394	198
314.624	179
314.853	182
315.083	176
315.312	177
315.542	179
315.771	179
316.001	169
316.23	177
316.46	187
316.689	188
316.919	163
317.148	179
317.377	168
317.607	161
317.836	153
318.065	182
318.295	182
318.524	170
318.753	168
318.983	165
319.212	192
319.441	190
319.67	168
319.9	189
320.129	187
320.358	185
320.587	180
320.816	175
321.046	167
321.275	182
321.504	193
321.733	171
321.962	175
322.191	174
322.42	184
322.649	159
322.878	176
323.108	184
323.337	191
323.566	174
323.795	172
324.024	182
324.253	174
324.482	184
324.71	185
324.939	193
325.168	197
325.397	189
325.626	187
325.855	177
326.084	190
326.313	182
326.542	180
326.77	188
326.999	172
327.228	165
327.457	184
327.686	182
327.914	199
328.143	200
328.372	194
328.6	183
328.829	184
329.058	203
329.287	190
329.515	185
329.744	192
329.972	203
330.201	192
330.43	186
330.658	187
330.887	200
331.115	199
331.344	198
331.572	206
331.801	209
332.03	203
332.258	190
332.486	205
332.715	206
332.943	209
333.172	230
333.4	233
333.629	231
333.857	240
334.085	233
334.314	237
334.542	234
334.771	220
334.999	229
335.227	222
335.455	209
335.684	233
335.912	214
336.14	204
336.369	210
336.597	219
336.825	216
337.053	200
337.281	203
337.51	198
337.738	213
337.966	205
338.194	207
338.422	190
338.65	200
338.878	212
339.106	212
339.334	202
339.562	204
339.79	204
340.018	183
340.246	186
340.474	194
340.702	194
340.93	203
341.158	209
341.386	182
341.614	192
341.842	160
342.07	193
342.298	192
342.526	181
342.754	198
342.981	200
343.209	192
343.437	210
343.665	230
343.893	224
344.12	225
344.348	211
344.576	217
344.804	212
345.031	195
345.259	198
345.487	203
345.714	192
345.942	178
346.17	194
346.397	186
346.625	196
346.853	186
347.08	201
347.308	178
347.535	193
347.763	198
347.99	185
348.218	199
348.445	205
348.673	174
348.9	178
349.128	198
349.355	197
349.583	197
349.81	196
350.037	192
350.265	184
350.492	183
350.72	194
350.947	190
351.174	184
351.402	179
351.629	184
351.856	176
352.083	182
352.311	190
352.538	183
352.765	188
352.992	190
353.22	188
353.447	181
353.674	181
353.901	184
354.128	180
354.355	183
354.583	190
354.81	193
355.037	187
355.264	201
355.491	199
355.718	186
355.945	195
356.172	194
356.399	198
356.626	195
356.853	193
357.08	197
357.307	191
357.534	176
357.761	187
357.988	198
358.215	194
358.441	187
358.668	207
358.895	203
359.122	193
359.349	190
359.576	200
359.802	200
360.029	187
360.256	187
360.483	195
360.709	188
360.936	206
361.163	190
361.39	185
361.616	191
361.843	183
362.07	169
362.296	195
362.523	185
362.749	197
362.976	179
363.203	187
363.429	193
363.656	203
363.882	192
364.109	190
364.335	191
364.562	183
364.788	181
365.015	171
365.241	193
365.468	200
365.694	194
365.92	184
366.147	193
366.373	194
366.599	194
366.826	187
367.052	195
367.278	185
367.505	185
367.731	195
367.957	190
368.184	177
368.41	184
368.636	187
368.862	184
369.089	197
369.315	197
369.541	193
369.767	203
369.993	187
370.219	185
370.445	210
370.672	202
370.898	190
371.124	205
371.35	216
371.576	207
371.802	216
372.028	214
372.254	210
372.48	220
372.706	209
372.932	218
373.158	219
373.384	209
373.61	208
373.835	204
374.061	204
374.287	222
374.513	200
374.739	210
374.965	214
375.191	237
375.416	228
375.642	210
375.868	205
376.094	227
376.319	208
376.545	208
376.771	208
376.997	224
377.222	217
377.448	211
377.674	208
377.899	207
378.125	198
378.35	221
378.576	211
378.802	195
379.027	202
379.253	208
379.478	210
379.704	203
379.929	213
380.155	192
380.38	208
380.606	218
380.831	195
381.057	215
381.282	213
381.507	228
381.733	208
381.958	219
382.184	225
382.409	213
382.634	242
382.86	232
383.085	222
383.31	234
383.535	221
383.761	220
383.986	225
384.211	217
384.436	235
384.662	266
384.887	254
385.112	248
385.337	234
385.562	249
385.787	242
386.013	246
386.238	249
386.463	229
386.688	254
386.913	252
387.138	235
387.363	238
387.588	246
387.813	242
388.038	255
388.263	248
388.488	250
388.713	256
388.938	261
389.163	219
389.387	235
389.612	240
389.837	233
390.062	240
390.287	248
390.512	259
390.736	241
390.961	252
391.186	268
391.411	272
391.636	272
391.86	274
392.085	274
392.31	264
392.534	260
392.759	274
392.984	259
393.208	262
393.433	265
393.658	254
393.882	247
394.107	265
394.331	257
394.556	271
394.78	249
395.005	279
395.229	268
395.454	282
395.678	285
395.903	289
396.127	278
396.352	263
396.576	259
396.801	269
397.025	274
397.249	283
397.474	279
397.698	267
397.922	276
398.147	292
398.371	291
398.595	286
398.82	314
399.044	318
399.268	326
399.492	394
399.717	425
399.941	414
400.165	371
400.389	342
400.613	336
400.837	320
401.062	318
401.286	295
401.51	310
401.734	304
401.958	295
402.182	310
402.406	308
402.63	316
402.854	325
403.078	328
403.302	324
403.526	323
403.75	342
403.974	332
404.198	331
404.422	352
404.645	329
404.869	353
405.093	343
405.317	324
405.541	324
405.765	336
405.988	331
406.212	326
406.436	345
406.66	352
406.883	350
407.107	356
407.331	373
407.555	384
407.778	373
408.002	384
408.226	360
408.449	374
408.673	359
408.896	343
409.12	341
409.344	346
409.567	340
409.791	336
410.014	347
410.238	355
410.461	332
410.685	337
410.908	313
411.132	320
411.355	317
411.578	325
411.802	314
412.025	323
412.249	318
412.472	318
412.695	325
412.919	317
413.142	334
413.365	312
413.589	291
413.812	323
414.035	308
414.258	307
414.482	302
414.705	308
414.928	320
415.151	298
415.374	302
415.597	316
415.821	300
416.044	303
416.267	298
416.49	289
416.713	302
416.936	302
417.159	295
417.382	326
417.605	302
417.828	320
418.051	327
418.274	305
418.497	331
418.72	332
418.943	315
419.166	336
419.389	339
419.611	338
419.834	312
420.057	308
420.28	303
420.503	299
420.726	330
420.948	311
421.171	312
421.394	307
421.617	308
421.839	319
422.062	326
422.285	305
422.507	323
422.73	309
422.953	315
423.175	307
423.398	326
423.621	322
423.843	337
424.066	352
424.288	322
424.511	328
424.733	323
424.956	320
425.178	322
425.401	304
425.623	305
425.846	306
426.068	305
426.291	283
426.513	294
426.735	293
426.958	291
427.18	313
427.402	298
427.625	282
427.847	295
428.069	274
428.292	272
428.514	274
428.736	275
428.958	280
429.181	290
429.403	265
429.625	295
429.847	286
430.069	288
430.292	290
430.514	275
430.736	282
430.958	287
431.18	265
431.402	276
431.624	272
431.846	292
432.068	292
432.29	291
432.512	273
432.734	294
432.956	286
433.178	297
433.4	304
433.622	279
433.844	283
434.066	300
434.287	311
434.509	296
434.731	309
434.953	310
435.175	308
435.397	332
435.618	298
435.84	309
436.062	299
436.284	286
436.505	278
436.727	285
436.949	282
437.17	291
437.392	303
437.614	271
437.835	264
438.057	272
438.278	277
438.5	269
438.721	276
438.943	295
439.165	278
439.386	286
439.608	268
439.829	285
440.05	288
440.272	272
440.493	261
440.715	287
440.936	291
441.158	316
441.379	303
441.6	321
441.822	318
442.043	323
442.264	320
442.486	311
442.707	305
442.928	297
443.149	304
443.371	312
443.592	333
443.813	324
444.034	315
444.255	332
444.476	326
444.698	342
444.919	352
445.14	460
445.361	381
445.582	324
445.803	316
446.024	307
446.245	295
446.466	294
446.687	304
446.908	304
447.129	297
447.35	288
447.571	266
447.792	278
448.013	281
448.234	269
448.455	285
448.675	259
448.896	266
449.117	261
449.338	260
449.559	259
449.779	271
450	254
450.221	267
450.442	281
450.662	272
450.883	274
451.104	282
451.324	291
451.545	269
451.766	260
451.986	278
452.207	270
452.428	241
452.648	262
452.869	267
453.089	266
453.31	268
453.53	264
453.751	263
453.971	246
454.192	274
454.412	265
454.633	251
454.853	259
455.073	233
455.294	262
455.514	255
455.734	250
455.955	241
456.175	252
456.395	263
456.616	245
456.836	246
457.056	263
457.276	234
457.497	266
457.717	240
457.937	263
458.157	245
458.377	239
458.598	273
458.818	273
459.038	278
459.258	287
459.478	291
459.698	287
459.918	263
460.138	300
460.358	323
460.578	323
460.798	335
461.018	336
461.238	334
461.458	318
461.678	333
461.898	332
462.118	312
462.338	349
462.558	344
462.777	358
462.997	391
463.217	400
463.437	407
463.657	384
463.876	369
464.096	374
464.316	351
464.536	374
464.755	362
464.975	352
465.195	336
465.414	325
465.634	300
465.854	295
466.073	316
466.293	282
466.512	275
466.732	276
466.951	283
467.171	277
467.391	264
467.61	273
467.829	266
468.049	281
468.268	272
468.488	273
468.707	264
468.927	272
469.146	275
469.365	264
469.585	269
469.804	269
470.023	295
470.243	281
470.462	290
470.681	282
470.901	292
471.12	279
471.339	299
471.558	284
471.777	264
471.997	290
472.216	264
472.435	279
472.654	268
472.873	267
473.092	260
473.311	251
473.53	272
473.749	266
473.968	260
474.187	268
474.406	263
474.625	251
474.844	262
475.063	264
475.282	263
475.501	255
475.72	261
475.939	279
476.158	250
476.377	269
476.596	280
476.814	256
477.033	267
477.252	289
477.471	280
477.69	284
477.908	296
478.127	303
478.346	294
478.564	310
478.783	292
479.002	314
479.22	314
479.439	307
479.658	308
479.876	314
480.095	316
480.313	316
480.532	318
480.751	320
480.969	295
481.188	289
481.406	306
481.624	306
481.843	297
482.061	283
482.28	286
482.498	302
482.717	268
482.935	290
483.153	289
483.372	279
483.59	285
483.808	267
484.027	281
484.245	292
484.463	297
484.681	300
484.9	295
485.118	291
485.336	280
485.554	313
485.772	295
485.99	305
486.209	316
486.427	297
486.645	306
486.863	304
487.081	303
487.299	320
487.517	289
487.735	314
487.953	298
488.171	311
488.389	286
488.607	296
488.825	297
489.043	297
489.261	300
489.479	301
489.696	296
489.914	304
490.132	312
490.35	296
490.568	280
490.786	312
491.003	299
491.221	291
491.439	323
491.657	308
491.874	316
492.092	318
492.31	326
492.527	317
492.745	310
492.963	308
493.18	307
493.398	319
493.615	314
493.833	314
494.05	336
494.268	320
494.485	321
494.703	330
494.92	329
495.138	334
495.355	324
495.573	329
495.79	322
496.008	342
496.225	328
496.442	335
496.66	330
496.877	330
497.094	342
497.312	345
497.529	336
497.746	346
497.963	356
498.181	359
498.398	416
498.615	402
498.832	419
499.049	450
499.267	503
499.484	521
499.701	555
499.918	613
500.135	711
500.352	779
500.569	784
500.786	778
501.003	726
501.22	673
501.437	606
501.654	522
501.871	492
502.088	471
502.305	439
502.522	415
502.739	405
502.956	384
503.172	376
503.389	352
503.606	372
503.823	346
504.04	363
504.256	363
504.473	368
504.69	372
504.907	376
505.123	357
505.34	330
505.557	312
505.773	331
505.99	322
506.207	292
506.423	297
506.64	293
506.856	293
507.073	278
507.289	285
507.506	282
507.722	280
507.939	292
508.155	288
508.372	287
508.588	250
508.805	283
509.021	278
509.238	258
509.454	256
509.67	276
509.887	262
510.103	273
510.319	282
510.536	252
510.752	286
510.968	268
511.184	272
511.401	274
511.617	271
511.833	247
512.049	257
512.265	270
512.481	282
512.698	268
512.914	274
513.13	278
513.346	271
513.562	255
513.778	262
513.994	254
514.21	274
514.426	267
514.642	256
514.858	264
515.074	266
515.29	290
515.506	274
515.721	282
515.937	277
516.153	284
516.369	311
516.585	293
516.801	322
517.016	314
517.232	323
517.448	338
517.664	334
517.879	349
518.095	346
518.311	350
518.527	331
518.742	323
518.958	312
519.173	290
519.389	279
519.605	300
519.82	281
520.036	273
520.251	281
520.467	277
520.682	260
520.898	259
521.113	275
521.329	267
521.544	269
521.76	270
521.975	259
522.19	266
522.406	255
522.621	247
522.836	255
523.052	262
523.267	262
523.482	247
523.698	240
523.913	257
524.128	255
524.343	252
524.559	258
524.774	261
524.989	252
525.204	237
525.419	246
525.634	253
525.849	248
526.064	255
526.28	246
526.495	250
526.71	259
526.925	233
527.14	240
527.355	242
527.57	256
527.785	245
527.999	261
528.214	244
528.429	225
528.644	262
528.859	254
529.074	232
529.289	265
529.503	256
529.718	241
529.933	245
530.148	247
530.363	259
530.577	251
530.792	234
531.007	248
531.221	233
531.436	250
531.651	240
531.865	236
532.08	242
532.295	243
532.509	233
532.724	243
532.938	232
533.153	244
533.367	266
533.582	242
533.796	259
534.011	228
534.225	243
534.44	248
534.654	254
534.868	239
535.083	250
535.297	238
535.511	244
535.726	258
535.94	248
536.154	243
536.369	254
536.583	246
536.797	244
537.011	233
537.225	240
537.44	245
537.654	230
537.868	218
538.082	222
538.296	224
538.51	226
538.724	231
538.938	238
539.153	227
539.367	219
539.581	242
539.795	240
540.009	232
540.222	228
540.436	219
540.65	228
540.864	222
541.078	225
541.292	233
541.506	232
541.72	241
541.934	235
542.147	236
542.361	233
542.575	224
542.789	228
543.002	239
543.216	225
543.43	229
543.644	222
543.857	221
544.071	217
544.285	238
544.498	239
544.712	235
544.925	236
545.139	234
545.352	239
545.566	254
545.779	234
545.993	233
546.206	252
546.42	243
546.633	221
546.847	240
547.06	235
547.274	227
547.487	243
547.7	233
547.914	239
548.127	246
548.34	233
548.554	225
548.767	249
548.98	254
549.193	225
549.407	228
549.62	243
549.833	246
550.046	240
550.259	238
550.473	225
550.686	232
550.899	212
551.112	238
551.325	217
551.538	230
551.751	230
551.964	242
552.177	228
552.39	258
552.603	234
552.816	233
553.029	234
553.242	248
553.455	236
553.667	241
553.88	247
554.093	246
554.306	252
554.519	233
554.732	233
554.944	243
555.157	226
555.37	240
555.583	225
555.795	205
556.008	216
556.221	222
556.433	218
556.646	211
556.859	214
557.071	218
557.284	204
557.496	220
557.709	216
557.921	211
558.134	212
558.346	217
558.559	207
558.771	203
558.984	210
559.196	210
559.409	199
559.621	198
559.833	195
560.046	196
560.258	208
560.47	208
560.683	210
560.895	203
561.107	209
561.32	224
561.532	209
561.744	207
561.956	202
562.168	203
562.381	199
562.593	200
562.805	219
563.017	204
563.229	192
563.441	193
563.653	201
563.865	206
564.077	206
564.289	206
564.501	204
564.713	198
564.925	203
565.137	216
565.349	231
565.561	217
565.773	232
565.985	245
566.197	245
566.408	245
566.62	271
566.832	299
567.044	287
567.255	297
567.467	284
567.679	303
567.891	289
568.102	320
568.314	334
568.526	288
568.737	283
568.949	265
569.161	256
569.372	217
569.584	216
569.795	217
570.007	224
570.218	206
570.43	208
570.641	216
570.853	206
571.064	218
571.276	218
571.487	210
571.698	212
571.91	199
572.121	201
572.333	187
572.544	174
572.755	187
572.966	186
573.178	183
573.389	193
573.6	174
573.811	165
574.023	194
574.234	161
574.445	166
574.656	170
574.867	166
575.078	174
575.289	178
575.501	169
575.712	174
575.923	171
576.134	164
576.345	177
576.556	170
576.767	160
576.978	167
577.188	187
577.399	188
577.61	161
577.821	164
578.032	172
578.243	147
578.454	176
578.665	183
578.875	174
579.086	164
579.297	157
579.508	177
579.718	155
579.929	156
580.14	162
580.35	152
580.561	164
580.772	157
580.982	162
581.193	164
581.403	182
581.614	158
581.825	158
582.035	164
582.246	166
582.456	168
582.667	145
582.877	150
583.087	154
583.298	149
583.508	161
583.719	170
583.929	154
584.139	147
584.35	166
584.56	167
584.77	170
584.981	168
585.191	165
585.401	144
585.611	150
585.821	155
586.032	152
586.242	145
586.452	147
586.662	155
586.872	143
587.082	148
587.292	143
587.502	163
587.713	159
587.923	168
588.133	168
588.343	154
588.553	158
588.762	162
588.972	152
589.182	158
589.392	168
589.602	145
589.812	166
590.022	149
590.232	149
590.441	161
590.651	158
590.861	148
591.071	166
591.281	166
591.49	153
591.7	163
591.91	165
592.119	153
592.329	175
592.539	163
592.748	178
592.958	164
593.167	177
593.377	163
593.587	188
593.796	165
594.006	169
594.215	186
594.424	185
594.634	186
594.843	172
595.053	172
595.262	159
595.472	145
595.681	163
595.89	166
596.1	154
596.309	160
596.518	146
596.727	146
596.937	136
597.146	158
597.355	145
597.564	138
597.774	153
597.983	160
598.192	150
598.401	141
598.61	132
598.819	138
599.028	133
599.237	138
599.446	155
599.655	130
599.864	149
600.073	138
600.282	143
600.491	129
600.7	142
600.909	148
601.118	129
601.327	138
601.536	143
601.745	149
601.953	142
602.162	139
602.371	135
602.58	144
602.789	135
602.997	160
603.206	135
603.415	150
603.623	138
603.832	131
604.041	136
604.249	124
604.458	151
604.666	130
604.875	131
605.084	133
605.292	140
605.501	128
605.709	152
605.918	111
606.126	147
606.334	133
606.543	136
606.751	144
606.96	124
607.168	126
607.376	125
607.585	139
607.793	119
608.001	130
608.21	130
608.418	130
608.626	129
608.834	139
609.043	126
609.251	112
609.459	117
609.667	122
609.875	126
610.083	145
610.291	137
610.499	137
610.707	137
610.916	133
611.124	128
611.332	134
611.54	124
611.748	122
611.955	134
612.163	138
612.371	143
612.579	137
612.787	126
612.995	133
613.203	127
613.411	135
613.618	121
613.826	119
614.034	127
614.242	134
614.449	131
614.657	122
614.865	131
615.072	125
615.28	126
615.488	123
615.695	149
615.903	131
616.111	121
616.318	132
616.526	138
616.733	123
616.941	133
617.148	124
617.356	133
617.563	104
617.771	122
617.978	122
618.185	137
618.393	137
618.6	147
618.807	121
619.015	130
619.222	132
619.429	123
619.637	119
619.844	111
620.051	125
620.258	127
620.466	133
620.673	120
620.88	121
621.087	121
621.294	116
621.501	118
621.708	118
621.915	119
622.122	128
622.329	131
622.536	128
622.743	128
622.95	122
623.157	127
623.364	139
623.571	129
623.778	118
623.985	132
624.192	120
624.399	121
624.606	138
624.812	131
625.019	123
625.226	131
625.433	101
625.639	127
625.846	124
626.053	121
626.259	111
626.466	103
626.673	120
626.879	134
627.086	124
627.293	120
627.499	119
627.706	116
627.912	113
628.119	123
628.325	125
628.532	116
628.738	136
628.945	136
629.151	122
629.357	120
629.564	137
629.77	130
629.976	111
630.183	114
630.389	127
630.595	117
630.802	129
631.008	130
631.214	113
631.42	118
631.627	115
631.833	119
632.039	111
632.245	111
632.451	112
632.657	118
632.863	116
633.069	102
633.275	112
633.481	119
633.688	107
633.893	114
634.099	104
634.305	105
634.511	108
634.717	117
634.923	113
635.129	119
635.335	105
635.541	104
635.747	128
635.952	116
636.158	97
636.364	105
636.57	109
636.775	105
636.981	98
637.187	102
637.392	102
637.598	110
637.804	124
638.009	116
638.215	100
638.421	106
638.626	116
638.832	123
639.037	103
639.243	115
639.448	107
639.654	110
639.859	105
640.065	112
640.27	122
640.475	100
640.681	100
640.886	106
641.091	112
641.297	116
641.502	117
641.707	97
641.913	96
642.118	100
642.323	99
642.528	114
642.733	121
642.939	119
643.144	116
643.349	111
643.554	105
643.759	110
643.964	101
644.169	99
644.374	105
644.579	116
644.784	103
644.989	110
645.194	105
645.399	94
645.604	100
645.809	101
646.014	99
646.219	111
646.423	87
646.628	111
646.833	98
647.038	107
647.243	98
647.447	109
647.652	106
647.857	111
648.062	104
648.266	116
648.471	110
648.676	106
648.88	102
649.085	95
649.289	116
649.494	120
649.698	116
649.903	114
650.107	114
650.312	124
650.516	114
650.721	100
650.925	110
651.13	106
651.334	111
651.539	96
651.743	105
651.947	103
652.152	98
652.356	103
652.56	105
652.764	89
652.969	106
653.173	82
653.377	88
653.581	96
653.785	84
653.99	95
654.194	94
654.398	93
654.602	77
654.806	91
655.01	103
655.214	91
655.418	101
655.622	96
655.826	102
656.03	101
656.234	87
656.438	90
656.642	74
656.846	94
657.049	89
657.253	91
657.457	99
657.661	103
657.865	87
658.068	86
658.272	96
658.476	82
658.68	87
658.883	96
659.087	66
659.291	79
659.494	78
659.698	87
659.901	87
660.105	80
660.309	73
660.512	94
660.716	74
660.919	86
661.123	81
661.326	108
661.53	90
661.733	86
661.936	85
662.14	90
662.343	96
662.546	76
662.75	80
662.953	82
663.156	83
663.36	71
663.563	87
663.766	74
663.969	77
664.173	88
664.376	82
664.579	70
664.782	78
664.985	85
665.188	89
665.391	83
665.594	70
665.797	86
666	76
666.203	88
666.406	72
666.609	81
666.812	75
667.015	74
667.218	91
667.421	75
667.624	78
667.827	64
668.03	74
668.232	88
668.435	76
668.638	67
668.841	82
669.043	85
669.246	67
669.449	93
669.651	89
669.854	74
670.057	78
670.259	73
670.462	72
670.665	85
670.867	73
671.07	81
671.272	89
671.475	92
671.677	77
671.88	66
672.082	78
672.284	83
672.487	87
672.689	59
672.892	78
