Data from Fe(NO3)3@0.1M.TitratingCurve.Agarose3%dH2O.NegLispCup.LampEnergy10.LIBS07252019_HRD10591_16-39-24-332.txt Node
Date: Thu Jul 25 16:39:24 EDT 2019
User: cochatt
Spectrometer: HR+D1059
Trigger mode: 1
Integration Time (sec): 1.000000E-1
Scans to average: 1
Electric dark correction enabled: true
Nonlinearity correction enabled: false
Boxcar width: 0
XAxis mode: Wavelengths
Number of Pixels in Spectrum: 2048
>>>>>Begin Spectral Data<<<<<
223.165	-14
223.4	-14
223.635	-14
223.869	-18
224.104	-20
224.338	-28
224.573	-16
224.808	-14
225.042	-2
225.277	-8
225.511	-8
225.746	-2
225.98	0
226.215	17
226.449	19
226.683	18
226.918	37
227.152	39
227.387	36
227.621	30
227.856	41
228.09	42
228.324	50
228.559	54
228.793	52
229.027	65
229.262	75
229.496	76
229.73	84
229.964	85
230.199	88
230.433	100
230.667	92
230.901	100
231.136	84
231.37	92
231.604	90
231.838	102
232.072	107
232.306	97
232.541	96
232.775	91
233.009	113
233.243	93
233.477	90
233.711	94
233.945	104
234.179	84
234.413	102
234.647	106
234.881	100
235.115	105
235.349	95
235.583	82
235.817	85
236.051	102
236.285	97
236.519	109
236.753	96
236.987	95
237.221	104
237.455	107
237.689	83
237.922	109
238.156	99
238.39	104
238.624	87
238.858	110
239.091	101
239.325	104
239.559	97
239.793	88
240.027	95
240.26	93
240.494	95
240.728	108
240.961	112
241.195	114
241.429	113
241.662	112
241.896	101
242.13	105
242.363	88
242.597	114
242.83	97
243.064	88
243.298	116
243.531	99
243.765	122
243.998	118
244.232	108
244.465	108
244.699	102
244.932	112
245.166	122
245.399	114
245.633	99
245.866	132
246.099	112
246.333	114
246.566	124
246.8	107
247.033	118
247.266	110
247.5	115
247.733	128
247.966	109
248.2	106
248.433	115
248.666	110
248.899	106
249.133	126
249.366	123
249.599	129
249.832	112
250.066	130
250.299	114
250.532	124
250.765	135
250.998	127
251.231	116
251.465	120
251.698	125
251.931	117
252.164	113
252.397	130
252.63	134
252.863	122
253.096	136
253.329	133
253.562	141
253.795	126
254.028	113
254.261	122
254.494	124
254.727	134
254.96	119
255.193	128
255.426	125
255.659	142
255.892	137
256.124	133
256.357	129
256.59	143
256.823	125
257.056	136
257.289	134
257.521	136
257.754	132
257.987	136
258.22	120
258.452	142
258.685	141
258.918	141
259.151	133
259.383	151
259.616	152
259.849	126
260.081	140
260.314	149
260.547	132
260.779	121
261.012	140
261.244	135
261.477	156
261.71	130
261.942	146
262.175	146
262.407	142
262.64	137
262.872	143
263.105	133
263.337	156
263.57	161
263.802	142
264.035	163
264.267	141
264.499	148
264.732	156
264.964	154
265.197	155
265.429	143
265.661	142
265.894	151
266.126	159
266.358	154
266.591	141
266.823	144
267.055	146
267.287	149
267.52	140
267.752	143
267.984	178
268.216	160
268.448	142
268.681	140
268.913	167
269.145	165
269.377	167
269.609	140
269.841	155
270.073	168
270.306	167
270.538	157
270.77	155
271.002	158
271.234	153
271.466	159
271.698	158
271.93	151
272.162	176
272.394	156
272.626	140
272.858	152
273.09	152
273.322	148
273.553	170
273.785	162
274.017	152
274.249	167
274.481	161
274.713	161
274.945	170
275.176	165
275.408	173
275.64	179
275.872	184
276.104	157
276.335	162
276.567	165
276.799	168
277.031	169
277.262	172
277.494	176
277.726	194
277.957	170
278.189	182
278.421	166
278.652	181
278.884	178
279.115	178
279.347	169
279.579	179
279.81	175
280.042	187
280.273	176
280.505	170
280.736	165
280.968	164
281.199	170
281.431	165
281.662	180
281.894	185
282.125	172
282.356	188
282.588	172
282.819	188
283.051	192
283.282	196
283.513	184
283.745	177
283.976	172
284.207	186
284.439	192
284.67	178
284.901	178
285.132	186
285.364	153
285.595	179
285.826	178
286.057	211
286.288	182
286.52	194
286.751	186
286.982	194
287.213	178
287.444	198
287.675	199
287.906	197
288.138	186
288.369	204
288.6	187
288.831	208
289.062	186
289.293	188
289.524	193
289.755	208
289.986	201
290.217	197
290.448	189
290.679	214
290.91	208
291.141	186
291.371	206
291.602	191
291.833	188
292.064	182
292.295	183
292.526	183
292.757	205
292.987	196
293.218	197
293.449	193
293.68	183
293.91	204
294.141	193
294.372	184
294.603	219
294.833	189
295.064	214
295.295	204
295.525	195
295.756	215
295.987	200
296.217	199
296.448	191
296.679	190
296.909	200
297.14	205
297.37	212
297.601	216
297.831	200
298.062	204
298.292	194
298.523	201
298.753	207
298.984	213
299.214	190
299.445	212
299.675	210
299.905	211
300.136	232
300.366	212
300.597	208
300.827	208
301.057	221
301.288	206
301.518	212
301.748	232
301.979	235
302.209	227
302.439	220
302.669	238
302.9	222
303.13	210
303.36	218
303.59	212
303.82	211
304.051	224
304.281	221
304.511	216
304.741	219
304.971	206
305.201	222
305.431	224
305.661	229
305.891	219
306.121	225
306.352	225
306.582	210
306.812	218
307.042	229
307.272	211
307.502	216
307.731	223
307.961	212
308.191	223
308.421	210
308.651	208
308.881	212
309.111	205
309.341	205
309.571	219
309.8	232
310.03	222
310.26	224
310.49	221
310.72	222
310.949	217
311.179	218
311.409	226
311.639	214
311.868	206
312.098	212
312.328	240
312.557	242
312.787	241
313.017	234
313.246	210
313.476	251
313.706	215
313.935	228
314.165	247
314.394	233
314.624	227
314.853	245
315.083	242
315.312	221
315.542	243
315.771	219
316.001	227
316.23	236
316.46	246
316.689	230
316.919	221
317.148	220
317.377	233
317.607	229
317.836	201
318.065	230
318.295	234
318.524	241
318.753	219
318.983	212
319.212	229
319.441	218
319.67	244
319.9	232
320.129	224
320.358	229
320.587	235
320.816	230
321.046	215
321.275	225
321.504	222
321.733	232
321.962	240
322.191	224
322.42	226
322.649	235
322.878	229
323.108	241
323.337	242
323.566	232
323.795	234
324.024	237
324.253	254
324.482	243
324.71	231
324.939	248
325.168	237
325.397	239
325.626	251
325.855	253
326.084	229
326.313	270
326.542	248
326.77	250
326.999	241
327.228	259
327.457	249
327.686	256
327.914	249
328.143	260
328.372	250
328.6	249
328.829	252
329.058	253
329.287	245
329.515	246
329.744	241
329.972	261
330.201	252
330.43	251
330.658	255
330.887	258
331.115	274
331.344	259
331.572	272
331.801	269
332.03	269
332.258	287
332.486	283
332.715	285
332.943	309
333.172	318
333.4	325
333.629	324
333.857	314
334.085	328
334.314	320
334.542	327
334.771	308
334.999	313
335.227	284
335.455	321
335.684	309
335.912	309
336.14	327
336.369	301
336.597	292
336.825	281
337.053	298
337.281	304
337.51	293
337.738	285
337.966	277
338.194	272
338.422	288
338.65	264
338.878	280
339.106	274
339.334	297
339.562	276
339.79	267
340.018	244
340.246	282
340.474	242
340.702	269
340.93	274
341.158	246
341.386	267
341.614	267
341.842	263
342.07	260
342.298	268
342.526	274
342.754	275
342.981	245
343.209	267
343.437	274
343.665	312
343.893	305
344.12	291
344.348	307
344.576	280
344.804	282
345.031	275
345.259	248
345.487	268
345.714	248
345.942	267
346.17	260
346.397	261
346.625	270
346.853	282
347.08	255
347.308	270
347.535	252
347.763	282
347.99	263
348.218	271
348.445	262
348.673	249
348.9	269
349.128	264
349.355	246
349.583	242
349.81	266
350.037	258
350.265	229
350.492	246
350.72	249
350.947	238
351.174	259
351.402	260
351.629	225
351.856	232
352.083	243
352.311	240
352.538	245
352.765	250
352.992	229
353.22	248
353.447	254
353.674	238
353.901	254
354.128	237
354.355	237
354.583	253
354.81	253
355.037	259
355.264	259
355.491	258
355.718	239
355.945	267
356.172	242
356.399	267
356.626	264
356.853	261
357.08	256
357.307	261
357.534	257
357.761	260
357.988	265
358.215	264
358.441	266
358.668	248
358.895	244
359.122	253
359.349	241
359.576	266
359.802	248
360.029	244
360.256	260
360.483	261
360.709	252
360.936	278
361.163	234
361.39	247
361.616	250
361.843	260
362.07	242
362.296	261
362.523	264
362.749	248
362.976	252
363.203	267
363.429	250
363.656	256
363.882	243
364.109	258
364.335	232
364.562	240
364.788	246
365.015	248
365.241	244
365.468	267
365.694	267
365.92	265
366.147	265
366.373	261
366.599	261
366.826	267
367.052	257
367.278	280
367.505	256
367.731	254
367.957	264
368.184	282
368.41	269
368.636	266
368.862	263
369.089	270
369.315	250
369.541	264
369.767	270
369.993	264
370.219	265
370.445	270
370.672	277
370.898	274
371.124	271
371.35	281
371.576	290
371.802	265
372.028	295
372.254	280
372.48	286
372.706	286
372.932	296
373.158	284
373.384	287
373.61	281
373.835	273
374.061	279
374.287	276
374.513	298
374.739	296
374.965	299
375.191	325
375.416	296
375.642	306
375.868	314
376.094	290
376.319	300
376.545	288
376.771	271
376.997	289
377.222	293
377.448	278
377.674	289
377.899	280
378.125	291
378.35	304
378.576	287
378.802	273
379.027	277
379.253	266
379.478	297
379.704	289
379.929	279
380.155	288
380.38	276
380.606	274
380.831	283
381.057	293
381.282	290
381.507	290
381.733	285
381.958	290
382.184	310
382.409	311
382.634	296
382.86	300
383.085	299
383.31	306
383.535	304
383.761	311
383.986	312
384.211	313
384.436	321
384.662	331
384.887	336
385.112	333
385.337	339
385.562	339
385.787	338
386.013	331
386.238	333
386.463	323
386.688	350
386.913	329
387.138	312
387.363	334
387.588	340
387.813	340
388.038	326
388.263	329
388.488	330
388.713	320
388.938	331
389.163	328
389.387	323
389.612	349
389.837	323
390.062	328
390.287	323
390.512	342
390.736	330
390.961	347
391.186	342
391.411	349
391.636	358
391.86	353
392.085	363
392.31	381
392.534	357
392.759	353
392.984	345
393.208	354
393.433	347
393.658	341
393.882	354
394.107	367
394.331	358
394.556	352
394.78	370
395.005	352
395.229	372
395.454	385
395.678	381
395.903	375
396.127	392
396.352	359
396.576	364
396.801	349
397.025	365
397.249	377
397.474	376
397.698	360
397.922	375
398.147	386
398.371	386
398.595	398
398.82	429
399.044	443
399.268	467
399.492	512
399.717	529
399.941	560
400.165	514
400.389	465
400.613	445
400.837	421
401.062	422
401.286	419
401.51	420
401.734	420
401.958	425
402.182	414
402.406	419
402.63	417
402.854	439
403.078	429
403.302	429
403.526	455
403.75	465
403.974	464
404.198	444
404.422	462
404.645	443
404.869	441
405.093	446
405.317	444
405.541	459
405.765	444
405.988	436
406.212	450
406.436	459
406.66	473
406.883	451
407.107	496
407.331	522
407.555	535
407.778	501
408.002	496
408.226	496
408.449	475
408.673	474
408.896	496
409.12	465
409.344	484
409.567	447
409.791	473
410.014	471
410.238	473
410.461	460
410.685	454
410.908	459
411.132	454
411.355	465
411.578	446
411.802	417
412.025	446
412.249	455
412.472	443
412.695	444
412.919	440
413.142	424
413.365	418
413.589	434
413.812	422
414.035	453
414.258	425
414.482	416
414.705	421
414.928	439
415.151	434
415.374	428
415.597	435
415.821	419
416.044	442
416.267	420
416.49	408
416.713	416
416.936	393
417.159	400
417.382	406
417.605	410
417.828	410
418.051	420
418.274	418
418.497	418
418.72	425
418.943	421
419.166	449
419.389	459
419.611	448
419.834	442
420.057	478
420.28	426
420.503	401
420.726	402
420.948	406
421.171	393
421.394	436
421.617	412
421.839	420
422.062	423
422.285	438
422.507	436
422.73	412
422.953	423
423.175	432
423.398	437
423.621	426
423.843	443
424.066	429
424.288	437
424.511	460
424.733	430
424.956	415
425.178	418
425.401	424
425.623	420
425.846	394
426.068	391
426.291	416
426.513	404
426.735	406
426.958	401
427.18	394
427.402	384
427.625	382
427.847	384
428.069	392
428.292	384
428.514	386
428.736	385
428.958	378
429.181	387
429.403	372
429.625	372
429.847	372
430.069	381
430.292	384
430.514	379
430.736	362
430.958	392
431.18	364
431.402	372
431.624	374
431.846	380
432.068	384
432.29	378
432.512	389
432.734	391
432.956	381
433.178	393
433.4	388
433.622	400
433.844	383
434.066	388
434.287	413
434.509	406
434.731	409
434.953	440
435.175	406
435.397	417
435.618	404
435.84	394
436.062	396
436.284	384
436.505	395
436.727	376
436.949	385
437.17	368
437.392	382
437.614	403
437.835	351
438.057	388
438.278	385
438.5	379
438.721	363
438.943	406
439.165	384
439.386	380
439.608	406
439.829	398
440.05	380
440.272	394
440.493	398
440.715	400
440.936	413
441.158	392
441.379	418
441.6	422
441.822	413
442.043	438
442.264	418
442.486	412
442.707	439
442.928	438
443.149	410
443.371	423
443.592	417
443.813	430
444.034	433
444.255	430
444.476	454
444.698	477
444.919	514
445.14	586
445.361	516
445.582	438
445.803	431
446.024	439
446.245	418
446.466	422
446.687	411
446.908	402
447.129	379
447.35	378
447.571	367
447.792	378
448.013	399
448.234	362
448.455	376
448.675	387
448.896	379
449.117	365
449.338	364
449.559	372
449.779	352
450	360
450.221	362
450.442	377
450.662	376
450.883	392
451.104	365
451.324	376
451.545	378
451.766	389
451.986	368
452.207	334
452.428	358
452.648	367
452.869	356
453.089	364
453.31	343
453.53	369
453.751	341
453.971	351
454.192	352
454.412	342
454.633	332
454.853	344
455.073	324
455.294	344
455.514	337
455.734	339
455.955	338
456.175	344
456.395	330
456.616	327
456.836	350
457.056	330
457.276	328
457.497	338
457.717	353
457.937	345
458.157	341
458.377	339
458.598	349
458.818	356
459.038	354
459.258	376
459.478	394
459.698	405
459.918	386
460.138	406
460.358	444
460.578	432
460.798	440
461.018	437
461.238	448
461.458	442
461.678	434
461.898	439
462.118	460
462.338	475
462.558	453
462.777	490
462.997	519
463.217	570
463.437	537
463.657	525
463.876	514
464.096	488
464.316	482
464.536	493
464.755	498
464.975	482
465.195	448
465.414	443
465.634	416
465.854	401
466.073	404
466.293	385
466.512	381
466.732	395
466.951	379
467.171	399
467.391	399
467.61	361
467.829	376
468.049	376
468.268	371
468.488	379
468.707	371
468.927	387
469.146	360
469.365	372
469.585	390
469.804	376
470.023	371
470.243	364
470.462	384
470.681	384
470.901	383
471.12	371
471.339	378
471.558	376
471.777	388
471.997	362
472.216	372
472.435	357
472.654	362
472.873	341
473.092	350
473.311	355
473.53	353
473.749	350
473.968	347
474.187	358
474.406	349
474.625	332
474.844	347
475.063	347
475.282	347
475.501	374
475.72	352
475.939	358
476.158	357
476.377	389
476.596	389
476.814	391
477.033	385
477.252	364
477.471	382
477.69	392
477.908	380
478.127	406
478.346	411
478.564	404
478.783	413
479.002	424
479.22	413
479.439	440
479.658	420
479.876	424
480.095	410
480.313	440
480.532	423
480.751	438
480.969	420
481.188	398
481.406	395
481.624	414
481.843	403
482.061	379
482.28	387
482.498	386
482.717	392
482.935	391
483.153	384
483.372	396
483.59	387
483.808	380
484.027	399
484.245	394
484.463	408
484.681	416
484.9	410
485.118	413
485.336	398
485.554	391
485.772	424
485.99	384
486.209	390
486.427	397
486.645	393
486.863	384
487.081	412
487.299	398
487.517	421
487.735	397
487.953	397
488.171	412
488.389	427
488.607	407
488.825	414
489.043	420
489.261	404
489.479	397
489.696	408
489.914	401
490.132	413
490.35	413
490.568	408
490.786	410
491.003	391
491.221	421
491.439	415
491.657	420
491.874	413
492.092	397
492.31	406
492.527	424
492.745	442
492.963	414
493.18	419
493.398	421
493.615	411
493.833	408
494.05	427
494.268	422
494.485	447
494.703	438
494.92	428
495.138	406
495.355	449
495.573	440
495.79	432
496.008	441
496.225	461
496.442	453
496.66	451
496.877	454
497.094	443
497.312	454
497.529	475
497.746	478
497.963	491
498.181	524
498.398	530
498.615	545
498.832	582
499.049	626
499.267	672
499.484	713
499.701	779
499.918	838
500.135	932
500.352	1044
500.569	1096
500.786	1052
501.003	992
501.22	914
501.437	814
501.654	742
501.871	686
502.088	621
502.305	609
502.522	592
502.739	580
502.956	536
503.172	509
503.389	512
503.606	496
503.823	457
504.04	474
504.256	505
504.473	494
504.69	489
504.907	477
505.123	456
505.34	423
505.557	422
505.773	403
505.99	397
506.207	401
506.423	393
506.64	374
506.856	385
507.073	388
507.289	395
507.506	370
507.722	389
507.939	364
508.155	359
508.372	368
508.588	368
508.805	375
509.021	353
509.238	355
509.454	365
509.67	361
509.887	352
510.103	348
510.319	344
510.536	370
510.752	337
510.968	338
511.184	340
511.401	340
511.617	339
511.833	338
512.049	350
512.265	352
512.481	348
512.698	351
512.914	364
513.13	343
513.346	335
513.562	349
513.778	349
513.994	341
514.21	346
514.426	353
514.642	350
514.858	363
515.074	340
515.29	347
515.506	353
515.721	372
515.937	375
516.153	378
516.369	394
516.585	392
516.801	396
517.016	416
517.232	432
517.448	449
517.664	452
517.879	475
518.095	452
518.311	443
518.527	414
518.742	417
518.958	414
519.173	382
519.389	363
519.605	384
519.82	363
520.036	354
520.251	349
520.467	348
520.682	356
520.898	359
521.113	337
521.329	348
521.544	332
521.76	347
521.975	311
522.19	339
522.406	329
522.621	333
522.836	313
523.052	347
523.267	331
523.482	331
523.698	326
523.913	336
524.128	320
524.343	326
524.559	330
524.774	346
524.989	331
525.204	330
525.419	325
525.634	322
525.849	317
526.064	333
526.28	323
526.495	332
526.71	317
526.925	333
527.14	312
527.355	311
527.57	332
527.785	332
527.999	308
528.214	315
528.429	329
528.644	319
528.859	323
529.074	317
529.289	316
529.503	325
529.718	328
529.933	321
530.148	304
530.363	320
530.577	318
530.792	310
531.007	312
531.221	287
531.436	315
531.651	327
531.865	320
532.08	321
532.295	335
532.509	318
532.724	323
532.938	306
533.153	311
533.367	318
533.582	326
533.796	308
534.011	330
534.225	318
534.44	342
534.654	309
534.868	307
535.083	308
535.297	308
535.511	315
535.726	317
535.94	309
536.154	292
536.369	299
536.583	302
536.797	292
537.011	291
537.225	292
537.44	284
537.654	305
537.868	285
538.082	306
538.296	288
538.51	281
538.724	305
538.938	292
539.153	296
539.367	293
539.581	281
539.795	283
540.009	292
540.222	299
540.436	288
540.65	282
540.864	282
541.078	291
541.292	296
541.506	295
541.72	302
541.934	284
542.147	308
542.361	290
542.575	294
542.789	290
543.002	269
543.216	282
543.43	288
543.644	288
543.857	286
544.071	296
544.285	274
544.498	302
544.712	292
544.925	307
545.139	293
545.352	310
545.566	297
545.779	304
545.993	308
546.206	298
546.42	294
546.633	318
546.847	285
547.06	305
547.274	306
547.487	311
547.7	307
547.914	314
548.127	314
548.34	290
548.554	306
548.767	298
548.98	312
549.193	294
549.407	296
549.62	317
549.833	312
550.046	293
550.259	308
550.473	306
550.686	296
550.899	313
551.112	291
551.325	290
551.538	296
551.751	290
551.964	265
552.177	301
552.39	304
552.603	301
552.816	326
553.029	318
553.242	316
553.455	318
553.667	321
553.88	315
554.093	297
554.306	312
554.519	294
554.732	293
554.944	289
555.157	284
555.37	278
555.583	288
555.795	274
556.008	289
556.221	271
556.433	281
556.646	277
556.859	273
557.071	266
557.284	284
557.496	259
557.709	246
557.921	268
558.134	254
558.346	264
558.559	254
558.771	264
558.984	265
559.196	252
559.409	264
559.621	280
559.833	241
560.046	265
560.258	266
560.47	257
560.683	245
560.895	262
561.107	258
561.32	252
561.532	253
561.744	253
561.956	261
562.168	249
562.381	259
562.593	249
562.805	256
563.017	260
563.229	257
563.441	266
563.653	277
563.865	261
564.077	268
564.289	258
564.501	270
564.713	263
564.925	276
565.137	258
565.349	293
565.561	280
565.773	283
565.985	312
566.197	304
566.408	325
566.62	354
566.832	360
567.044	384
567.255	361
567.467	374
567.679	406
567.891	418
568.102	401
568.314	406
568.526	373
568.737	340
568.949	318
569.161	304
569.372	310
569.584	287
569.795	276
570.007	276
570.218	266
570.43	281
570.641	250
570.853	258
571.064	260
571.276	269
571.487	269
571.698	254
571.91	246
572.121	231
572.333	232
572.544	227
572.755	224
572.966	219
573.178	218
573.389	228
573.6	211
573.811	221
574.023	229
574.234	228
574.445	216
574.656	224
574.867	214
575.078	227
575.289	208
575.501	209
575.712	214
575.923	208
576.134	210
576.345	209
576.556	227
576.767	209
576.978	215
577.188	211
577.399	218
577.61	201
577.821	200
578.032	201
578.243	221
578.454	196
578.665	216
578.875	210
579.086	193
579.297	195
579.508	188
579.718	203
579.929	214
580.14	181
580.35	204
580.561	188
580.772	190
580.982	189
581.193	198
581.403	201
581.614	182
581.825	182
582.035	175
582.246	194
582.456	177
582.667	196
582.877	191
583.087	201
583.298	191
583.508	180
583.719	171
583.929	192
584.139	174
584.35	184
584.56	200
584.77	186
584.981	197
585.191	192
585.401	196
585.611	213
585.821	184
586.032	188
586.242	174
586.452	180
586.662	186
586.872	186
587.082	183
587.292	188
587.502	193
587.713	176
587.923	196
588.133	201
588.343	184
588.553	189
588.762	184
588.972	192
589.182	165
589.392	184
589.602	189
589.812	206
590.022	205
590.232	207
590.441	189
590.651	194
590.861	191
591.071	199
591.281	205
591.49	186
591.7	177
591.91	190
592.119	201
592.329	199
592.539	201
592.748	205
592.958	194
593.167	213
593.377	207
593.587	200
593.796	217
594.006	204
594.215	228
594.424	205
594.634	198
594.843	198
595.053	215
595.262	208
595.472	201
595.681	190
595.89	186
596.1	186
596.309	178
596.518	182
596.727	172
596.937	173
597.146	173
597.355	174
597.564	192
597.774	164
597.983	159
598.192	169
598.401	180
598.61	180
598.819	176
599.028	157
599.237	168
599.446	162
599.655	179
599.864	176
600.073	166
600.282	172
600.491	162
600.7	166
600.909	167
601.118	170
601.327	169
601.536	177
601.745	162
601.953	170
602.162	178
602.371	168
602.58	161
602.789	172
602.997	162
603.206	153
603.415	149
603.623	154
603.832	158
604.041	169
604.249	160
604.458	152
604.666	153
604.875	135
605.084	161
605.292	181
605.501	173
605.709	156
605.918	174
606.126	149
606.334	169
606.543	169
606.751	160
606.96	155
607.168	154
607.376	171
607.585	164
607.793	140
608.001	164
608.21	161
608.418	175
608.626	160
608.834	155
609.043	148
609.251	163
609.459	164
609.667	164
609.875	143
610.083	155
610.291	138
610.499	160
610.707	155
610.916	153
611.124	160
611.332	164
611.54	139
611.748	145
611.955	142
612.163	140
612.371	169
612.579	160
612.787	154
612.995	152
613.203	153
613.411	150
613.618	136
613.826	144
614.034	160
614.242	145
614.449	158
614.657	157
614.865	150
615.072	147
615.28	138
615.488	158
615.695	156
615.903	154
616.111	168
616.318	132
616.526	152
616.733	147
616.941	156
617.148	157
617.356	161
617.563	150
617.771	148
617.978	153
618.185	154
618.393	138
618.6	162
618.807	144
619.015	144
619.222	149
619.429	154
619.637	148
619.844	161
620.051	149
620.258	165
620.466	151
620.673	154
620.88	142
621.087	130
621.294	150
621.501	157
621.708	143
621.915	136
622.122	137
622.329	131
622.536	141
622.743	144
622.95	144
623.157	156
623.364	154
623.571	152
623.778	145
623.985	138
624.192	144
624.399	146
624.606	129
624.812	137
625.019	136
625.226	147
625.433	142
625.639	140
625.846	135
626.053	131
626.259	143
626.466	130
626.673	131
626.879	119
627.086	148
627.293	146
627.499	133
627.706	136
627.912	137
628.119	124
628.325	132
628.532	128
628.738	137
628.945	132
629.151	142
629.357	131
629.564	134
629.77	146
629.976	129
630.183	136
630.389	139
630.595	148
630.802	127
631.008	142
631.214	130
631.42	139
631.627	124
631.833	128
632.039	136
632.245	147
632.451	133
632.657	148
632.863	117
633.069	126
633.275	126
633.481	136
633.688	120
633.893	132
634.099	130
634.305	143
634.511	124
634.717	132
634.923	115
635.129	132
635.335	125
635.541	134
635.747	124
635.952	120
636.158	136
636.364	133
636.57	127
636.775	131
636.981	147
637.187	112
637.392	122
637.598	123
637.804	115
638.009	132
638.215	109
638.421	102
638.626	124
638.832	124
639.037	116
639.243	140
639.448	143
639.654	142
639.859	136
640.065	118
640.27	117
640.475	119
640.681	138
640.886	109
641.091	117
641.297	127
641.502	135
641.707	119
641.913	131
642.118	124
642.323	129
642.528	117
642.733	129
642.939	115
643.144	130
643.349	128
643.554	125
643.759	130
643.964	132
644.169	116
644.374	112
644.579	120
644.784	115
644.989	137
645.194	133
645.399	121
645.604	122
645.809	114
646.014	125
646.219	106
646.423	117
646.628	132
646.833	124
647.038	120
647.243	131
647.447	118
647.652	122
647.857	136
648.062	146
648.266	125
648.471	118
648.676	129
648.88	115
649.085	131
649.289	122
649.494	112
649.698	117
649.903	125
650.107	128
650.312	124
650.516	115
650.721	107
650.925	102
651.13	119
651.334	112
651.539	125
651.743	122
651.947	110
652.152	105
652.356	113
652.56	123
652.764	116
652.969	109
653.173	107
653.377	116
653.581	112
653.785	96
653.99	118
654.194	102
654.398	100
654.602	113
654.806	122
655.01	91
655.214	122
655.418	123
655.622	107
655.826	113
656.03	114
656.234	116
656.438	108
656.642	101
656.846	108
657.049	96
657.253	106
657.457	106
657.661	117
657.865	98
658.068	92
658.272	105
658.476	98
658.68	82
658.883	78
659.087	92
659.291	94
659.494	90
659.698	90
659.901	99
660.105	98
660.309	80
660.512	88
660.716	83
660.919	90
661.123	92
661.326	84
661.53	96
661.733	93
661.936	75
662.14	79
662.343	89
662.546	79
662.75	90
662.953	88
663.156	93
663.36	98
663.563	77
663.766	76
663.969	78
664.173	74
664.376	81
664.579	78
664.782	76
664.985	92
665.188	102
665.391	76
665.594	86
665.797	77
666	54
666.203	82
666.406	84
666.609	82
666.812	94
667.015	87
667.218	80
667.421	88
667.624	61
667.827	90
668.03	90
668.232	93
668.435	96
668.638	85
668.841	78
669.043	77
669.246	99
669.449	82
669.651	79
669.854	90
670.057	85
670.259	87
670.462	84
670.665	77
670.867	74
671.07	83
671.272	93
671.475	68
671.677	78
671.88	77
672.082	83
672.284	80
672.487	84
672.689	93
672.892	72
