Data from Fe(NO3)3@0.025M.TitratingCurve.Agarose3%dH2O.NegLispCup.LampEnergy10.LIBS07252019_HRD10591_16-56-54-336.txt Node
Date: Thu Jul 25 16:56:54 EDT 2019
User: cochatt
Spectrometer: HR+D1059
Trigger mode: 1
Integration Time (sec): 1.000000E-1
Scans to average: 1
Electric dark correction enabled: true
Nonlinearity correction enabled: false
Boxcar width: 0
XAxis mode: Wavelengths
Number of Pixels in Spectrum: 2048
>>>>>Begin Spectral Data<<<<<
223.165	-1.81
223.4	-1.81
223.635	-1.81
223.869	-21.81
224.104	-20.81
224.338	-17.81
224.573	-2.81
224.808	-11.81
225.042	-10.81
225.277	-6.81
225.511	3.19
225.746	1.19
225.98	15.19
226.215	7.19
226.449	9.19
226.683	6.19
226.918	17.19
227.152	35.19
227.387	26.19
227.621	45.19
227.856	45.19
228.09	51.19
228.324	48.19
228.559	49.19
228.793	54.19
229.027	53.19
229.262	62.19
229.496	81.19
229.73	71.19
229.964	72.19
230.199	92.19
230.433	82.19
230.667	84.19
230.901	82.19
231.136	84.19
231.37	86.19
231.604	96.19
231.838	85.19
232.072	91.19
232.306	95.19
232.541	86.19
232.775	105.19
233.009	96.19
233.243	86.19
233.477	110.19
233.711	104.19
233.945	98.19
234.179	97.19
234.413	89.19
234.647	90.19
234.881	90.19
235.115	93.19
235.349	91.19
235.583	97.19
235.817	83.19
236.051	98.19
236.285	85.19
236.519	87.19
236.753	113.19
236.987	109.19
237.221	104.19
237.455	89.19
237.689	84.19
237.922	91.19
238.156	96.19
238.39	90.19
238.624	85.19
238.858	81.19
239.091	101.19
239.325	82.19
239.559	88.19
239.793	95.19
240.027	99.19
240.26	88.19
240.494	86.19
240.728	76.19
240.961	94.19
241.195	85.19
241.429	109.19
241.662	79.19
241.896	77.19
242.13	98.19
242.363	101.19
242.597	103.19
242.83	103.19
243.064	102.19
243.298	99.19
243.531	107.19
243.765	103.19
243.998	97.19
244.232	86.19
244.465	87.19
244.699	111.19
244.932	110.19
245.166	112.19
245.399	95.19
245.633	87.19
245.866	92.19
246.099	96.19
246.333	99.19
246.566	110.19
246.8	89.19
247.033	102.19
247.266	105.19
247.5	112.19
247.733	113.19
247.966	104.19
248.2	104.19
248.433	110.19
248.666	96.19
248.899	122.19
249.133	120.19
249.366	106.19
249.599	106.19
249.832	110.19
250.066	115.19
250.299	115.19
250.532	112.19
250.765	121.19
250.998	104.19
251.231	105.19
251.465	99.19
251.698	104.19
251.931	126.19
252.164	94.19
252.397	121.19
252.63	116.19
252.863	119.19
253.096	114.19
253.329	111.19
253.562	106.19
253.795	110.19
254.028	112.19
254.261	110.19
254.494	117.19
254.727	118.19
254.96	118.19
255.193	102.19
255.426	119.19
255.659	125.19
255.892	121.19
256.124	120.19
256.357	119.19
256.59	130.19
256.823	107.19
257.056	109.19
257.289	109.19
257.521	112.19
257.754	131.19
257.987	123.19
258.22	127.19
258.452	117.19
258.685	125.19
258.918	114.19
259.151	126.19
259.383	135.19
259.616	134.19
259.849	135.19
260.081	119.19
260.314	137.19
260.547	131.19
260.779	129.19
261.012	130.19
261.244	112.19
261.477	121.19
261.71	135.19
261.942	130.19
262.175	128.19
262.407	125.19
262.64	126.19
262.872	139.19
263.105	131.19
263.337	142.19
263.57	133.19
263.802	136.19
264.035	135.19
264.267	136.19
264.499	137.19
264.732	151.19
264.964	122.19
265.197	132.19
265.429	145.19
265.661	133.19
265.894	145.19
266.126	137.19
266.358	133.19
266.591	128.19
266.823	144.19
267.055	152.19
267.287	144.19
267.52	133.19
267.752	151.19
267.984	137.19
268.216	142.19
268.448	135.19
268.681	140.19
268.913	129.19
269.145	141.19
269.377	131.19
269.609	141.19
269.841	141.19
270.073	140.19
270.306	144.19
270.538	144.19
270.77	127.19
271.002	137.19
271.234	144.19
271.466	151.19
271.698	129.19
271.93	147.19
272.162	140.19
272.394	169.19
272.626	139.19
272.858	152.19
273.09	147.19
273.322	147.19
273.553	150.19
273.785	158.19
274.017	144.19
274.249	156.19
274.481	144.19
274.713	145.19
274.945	143.19
275.176	153.19
275.408	147.19
275.64	159.19
275.872	146.19
276.104	157.19
276.335	154.19
276.567	139.19
276.799	149.19
277.031	162.19
277.262	155.19
277.494	160.19
277.726	171.19
277.957	159.19
278.189	169.19
278.421	160.19
278.652	162.19
278.884	144.19
279.115	151.19
279.347	155.19
279.579	158.19
279.81	153.19
280.042	156.19
280.273	172.19
280.505	158.19
280.736	156.19
280.968	164.19
281.199	164.19
281.431	167.19
281.662	156.19
281.894	182.19
282.125	171.19
282.356	156.19
282.588	174.19
282.819	183.19
283.051	159.19
283.282	165.19
283.513	144.19
283.745	165.19
283.976	169.19
284.207	180.19
284.439	181.19
284.67	174.19
284.901	175.19
285.132	167.19
285.364	164.19
285.595	186.19
285.826	182.19
286.057	177.19
286.288	175.19
286.52	178.19
286.751	170.19
286.982	177.19
287.213	177.19
287.444	168.19
287.675	164.19
287.906	181.19
288.138	170.19
288.369	174.19
288.6	185.19
288.831	166.19
289.062	187.19
289.293	178.19
289.524	184.19
289.755	176.19
289.986	169.19
290.217	183.19
290.448	186.19
290.679	179.19
290.91	176.19
291.141	170.19
291.371	183.19
291.602	196.19
291.833	187.19
292.064	175.19
292.295	181.19
292.526	164.19
292.757	186.19
292.987	163.19
293.218	181.19
293.449	180.19
293.68	195.19
293.91	186.19
294.141	179.19
294.372	196.19
294.603	193.19
294.833	179.19
295.064	170.19
295.295	191.19
295.525	192.19
295.756	195.19
295.987	203.19
296.217	208.19
296.448	191.19
296.679	181.19
296.909	194.19
297.14	171.19
297.37	199.19
297.601	200.19
297.831	202.19
298.062	191.19
298.292	177.19
298.523	208.19
298.753	190.19
298.984	188.19
299.214	191.19
299.445	206.19
299.675	183.19
299.905	203.19
300.136	199.19
300.366	190.19
300.597	200.19
300.827	192.19
301.057	199.19
301.288	207.19
301.518	196.19
301.748	191.19
301.979	197.19
302.209	202.19
302.439	223.19
302.669	204.19
302.9	197.19
303.13	204.19
303.36	203.19
303.59	216.19
303.82	215.19
304.051	214.19
304.281	210.19
304.511	203.19
304.741	210.19
304.971	210.19
305.201	206.19
305.431	199.19
305.661	194.19
305.891	195.19
306.121	196.19
306.352	199.19
306.582	215.19
306.812	203.19
307.042	207.19
307.272	189.19
307.502	189.19
307.731	215.19
307.961	214.19
308.191	206.19
308.421	187.19
308.651	197.19
308.881	210.19
309.111	199.19
309.341	202.19
309.571	216.19
309.8	202.19
310.03	214.19
310.26	226.19
310.49	229.19
310.72	214.19
310.949	193.19
311.179	186.19
311.409	202.19
311.639	215.19
311.868	214.19
312.098	210.19
312.328	224.19
312.557	221.19
312.787	219.19
313.017	218.19
313.246	224.19
313.476	209.19
313.706	207.19
313.935	232.19
314.165	226.19
314.394	220.19
314.624	224.19
314.853	220.19
315.083	220.19
315.312	233.19
315.542	213.19
315.771	231.19
316.001	216.19
316.23	218.19
316.46	218.19
316.689	227.19
316.919	230.19
317.148	219.19
317.377	219.19
317.607	216.19
317.836	220.19
318.065	217.19
318.295	214.19
318.524	223.19
318.753	230.19
318.983	228.19
319.212	226.19
319.441	226.19
319.67	225.19
319.9	228.19
320.129	216.19
320.358	239.19
320.587	239.19
320.816	234.19
321.046	231.19
321.275	226.19
321.504	199.19
321.733	227.19
321.962	239.19
322.191	234.19
322.42	233.19
322.649	227.19
322.878	227.19
323.108	243.19
323.337	222.19
323.566	245.19
323.795	246.19
324.024	245.19
324.253	233.19
324.482	257.19
324.71	242.19
324.939	254.19
325.168	224.19
325.397	246.19
325.626	233.19
325.855	239.19
326.084	260.19
326.313	253.19
326.542	249.19
326.77	257.19
326.999	232.19
327.228	235.19
327.457	258.19
327.686	233.19
327.914	229.19
328.143	241.19
328.372	253.19
328.6	242.19
328.829	238.19
329.058	244.19
329.287	253.19
329.515	228.19
329.744	255.19
329.972	255.19
330.201	265.19
330.43	251.19
330.658	245.19
330.887	258.19
331.115	255.19
331.344	262.19
331.572	247.19
331.801	259.19
332.03	275.19
332.258	265.19
332.486	278.19
332.715	277.19
332.943	281.19
333.172	267.19
333.4	273.19
333.629	273.19
333.857	287.19
334.085	273.19
334.314	297.19
334.542	285.19
334.771	290.19
334.999	282.19
335.227	281.19
335.455	284.19
335.684	287.19
335.912	280.19
336.14	262.19
336.369	301.19
336.597	276.19
336.825	283.19
337.053	265.19
337.281	289.19
337.51	285.19
337.738	267.19
337.966	283.19
338.194	263.19
338.422	270.19
338.65	277.19
338.878	257.19
339.106	266.19
339.334	268.19
339.562	263.19
339.79	278.19
340.018	262.19
340.246	251.19
340.474	269.19
340.702	267.19
340.93	265.19
341.158	276.19
341.386	252.19
341.614	244.19
341.842	265.19
342.07	265.19
342.298	251.19
342.526	258.19
342.754	265.19
342.981	241.19
343.209	259.19
343.437	292.19
343.665	289.19
343.893	280.19
344.12	307.19
344.348	281.19
344.576	303.19
344.804	280.19
345.031	266.19
345.259	262.19
345.487	262.19
345.714	255.19
345.942	264.19
346.17	261.19
346.397	268.19
346.625	267.19
346.853	252.19
347.08	250.19
347.308	234.19
347.535	251.19
347.763	250.19
347.99	250.19
348.218	288.19
348.445	260.19
348.673	246.19
348.9	258.19
349.128	255.19
349.355	255.19
349.583	254.19
349.81	262.19
350.037	267.19
350.265	254.19
350.492	249.19
350.72	251.19
350.947	262.19
351.174	244.19
351.402	239.19
351.629	252.19
351.856	233.19
352.083	234.19
352.311	255.19
352.538	259.19
352.765	266.19
352.992	260.19
353.22	243.19
353.447	254.19
353.674	274.19
353.901	264.19
354.128	241.19
354.355	248.19
354.583	261.19
354.81	258.19
355.037	250.19
355.264	261.19
355.491	249.19
355.718	249.19
355.945	259.19
356.172	253.19
356.399	262.19
356.626	250.19
356.853	256.19
357.08	250.19
357.307	252.19
357.534	257.19
357.761	262.19
357.988	255.19
358.215	232.19
358.441	249.19
358.668	259.19
358.895	258.19
359.122	260.19
359.349	263.19
359.576	253.19
359.802	255.19
360.029	231.19
360.256	245.19
360.483	258.19
360.709	260.19
360.936	260.19
361.163	267.19
361.39	267.19
361.616	252.19
361.843	241.19
362.07	269.19
362.296	272.19
362.523	266.19
362.749	271.19
362.976	261.19
363.203	265.19
363.429	270.19
363.656	267.19
363.882	288.19
364.109	262.19
364.335	251.19
364.562	255.19
364.788	247.19
365.015	264.19
365.241	266.19
365.468	257.19
365.694	250.19
365.92	253.19
366.147	266.19
366.373	242.19
366.599	270.19
366.826	264.19
367.052	274.19
367.278	262.19
367.505	255.19
367.731	272.19
367.957	279.19
368.184	281.19
368.41	266.19
368.636	257.19
368.862	274.19
369.089	257.19
369.315	267.19
369.541	287.19
369.767	264.19
369.993	281.19
370.219	263.19
370.445	269.19
370.672	291.19
370.898	287.19
371.124	282.19
371.35	271.19
371.576	263.19
371.802	281.19
372.028	284.19
372.254	290.19
372.48	275.19
372.706	299.19
372.932	288.19
373.158	286.19
373.384	284.19
373.61	278.19
373.835	261.19
374.061	277.19
374.287	268.19
374.513	278.19
374.739	287.19
374.965	289.19
375.191	312.19
375.416	279.19
375.642	289.19
375.868	286.19
376.094	295.19
376.319	275.19
376.545	277.19
376.771	292.19
376.997	283.19
377.222	262.19
377.448	284.19
377.674	267.19
377.899	281.19
378.125	272.19
378.35	278.19
378.576	273.19
378.802	275.19
379.027	268.19
379.253	279.19
379.478	291.19
379.704	266.19
379.929	263.19
380.155	261.19
380.38	279.19
380.606	264.19
380.831	271.19
381.057	280.19
381.282	288.19
381.507	291.19
381.733	283.19
381.958	297.19
382.184	265.19
382.409	268.19
382.634	280.19
382.86	291.19
383.085	309.19
383.31	289.19
383.535	305.19
383.761	302.19
383.986	301.19
384.211	306.19
384.436	294.19
384.662	301.19
384.887	294.19
385.112	309.19
385.337	313.19
385.562	328.19
385.787	305.19
386.013	327.19
386.238	319.19
386.463	295.19
386.688	325.19
386.913	313.19
387.138	320.19
387.363	319.19
387.588	330.19
387.813	327.19
388.038	296.19
388.263	315.19
388.488	302.19
388.713	315.19
388.938	336.19
389.163	319.19
389.387	306.19
389.612	318.19
389.837	321.19
390.062	309.19
390.287	312.19
390.512	305.19
390.736	313.19
390.961	307.19
391.186	335.19
391.411	337.19
391.636	320.19
391.86	327.19
392.085	334.19
392.31	333.19
392.534	342.19
392.759	350.19
392.984	334.19
393.208	324.19
393.433	335.19
393.658	312.19
393.882	331.19
394.107	345.19
394.331	349.19
394.556	315.19
394.78	341.19
395.005	345.19
395.229	345.19
395.454	344.19
395.678	329.19
395.903	338.19
396.127	331.19
396.352	341.19
396.576	325.19
396.801	353.19
397.025	330.19
397.249	353.19
397.474	352.19
397.698	369.19
397.922	345.19
398.147	346.19
398.371	367.19
398.595	367.19
398.82	382.19
399.044	402.19
399.268	401.19
399.492	443.19
399.717	443.19
399.941	441.19
400.165	432.19
400.389	414.19
400.613	409.19
400.837	386.19
401.062	367.19
401.286	383.19
401.51	379.19
401.734	361.19
401.958	373.19
402.182	377.19
402.406	361.19
402.63	401.19
402.854	386.19
403.078	401.19
403.302	394.19
403.526	371.19
403.75	373.19
403.974	373.19
404.198	380.19
404.422	385.19
404.645	396.19
404.869	400.19
405.093	373.19
405.317	381.19
405.541	379.19
405.765	381.19
405.988	393.19
406.212	423.19
406.436	396.19
406.66	410.19
406.883	388.19
407.107	401.19
407.331	402.19
407.555	417.19
407.778	406.19
408.002	411.19
408.226	434.19
408.449	433.19
408.673	406.19
408.896	408.19
409.12	383.19
409.344	381.19
409.567	390.19
409.791	399.19
410.014	377.19
410.238	389.19
410.461	386.19
410.685	390.19
410.908	395.19
411.132	394.19
411.355	380.19
411.578	399.19
411.802	359.19
412.025	374.19
412.249	382.19
412.472	385.19
412.695	399.19
412.919	363.19
413.142	361.19
413.365	370.19
413.589	360.19
413.812	358.19
414.035	377.19
414.258	361.19
414.482	349.19
414.705	370.19
414.928	371.19
415.151	359.19
415.374	374.19
415.597	380.19
415.821	373.19
416.044	368.19
416.267	341.19
416.49	352.19
416.713	359.19
416.936	373.19
417.159	351.19
417.382	350.19
417.605	354.19
417.828	355.19
418.051	364.19
418.274	345.19
418.497	355.19
418.72	371.19
418.943	362.19
419.166	375.19
419.389	381.19
419.611	373.19
419.834	378.19
420.057	373.19
420.28	369.19
420.503	377.19
420.726	350.19
420.948	360.19
421.171	343.19
421.394	356.19
421.617	353.19
421.839	354.19
422.062	368.19
422.285	353.19
422.507	354.19
422.73	357.19
422.953	358.19
423.175	347.19
423.398	345.19
423.621	371.19
423.843	373.19
424.066	356.19
424.288	333.19
424.511	342.19
424.733	349.19
424.956	368.19
425.178	346.19
425.401	347.19
425.623	370.19
425.846	349.19
426.068	341.19
426.291	346.19
426.513	345.19
426.735	335.19
426.958	333.19
427.18	328.19
427.402	351.19
427.625	333.19
427.847	328.19
428.069	314.19
428.292	331.19
428.514	329.19
428.736	334.19
428.958	321.19
429.181	315.19
429.403	334.19
429.625	325.19
429.847	337.19
430.069	342.19
430.292	343.19
430.514	333.19
430.736	320.19
430.958	325.19
431.18	322.19
431.402	310.19
431.624	314.19
431.846	338.19
432.068	338.19
432.29	329.19
432.512	349.19
432.734	329.19
432.956	315.19
433.178	339.19
433.4	329.19
433.622	329.19
433.844	339.19
434.066	356.19
434.287	337.19
434.509	365.19
434.731	328.19
434.953	351.19
435.175	362.19
435.397	343.19
435.618	330.19
435.84	335.19
436.062	336.19
436.284	338.19
436.505	323.19
436.727	333.19
436.949	342.19
437.17	344.19
437.392	302.19
437.614	319.19
437.835	299.19
438.057	329.19
438.278	308.19
438.5	333.19
438.721	324.19
438.943	325.19
439.165	334.19
439.386	331.19
439.608	349.19
439.829	322.19
440.05	325.19
440.272	350.19
440.493	331.19
440.715	321.19
440.936	324.19
441.158	326.19
441.379	348.19
441.6	335.19
441.822	347.19
442.043	326.19
442.264	337.19
442.486	347.19
442.707	338.19
442.928	322.19
443.149	347.19
443.371	346.19
443.592	348.19
443.813	352.19
444.034	360.19
444.255	355.19
444.476	369.19
444.698	372.19
444.919	370.19
445.14	463.19
445.361	375.19
445.582	343.19
445.803	356.19
446.024	341.19
446.245	322.19
446.466	335.19
446.687	306.19
446.908	310.19
447.129	309.19
447.35	311.19
447.571	316.19
447.792	328.19
448.013	323.19
448.234	307.19
448.455	297.19
448.675	295.19
448.896	299.19
449.117	312.19
449.338	305.19
449.559	296.19
449.779	296.19
450	291.19
450.221	319.19
450.442	290.19
450.662	295.19
450.883	290.19
451.104	275.19
451.324	310.19
451.545	303.19
451.766	302.19
451.986	290.19
452.207	284.19
452.428	301.19
452.648	294.19
452.869	291.19
453.089	280.19
453.31	311.19
453.53	276.19
453.751	295.19
453.971	304.19
454.192	297.19
454.412	292.19
454.633	307.19
454.853	282.19
455.073	278.19
455.294	274.19
455.514	278.19
455.734	293.19
455.955	305.19
456.175	287.19
456.395	281.19
456.616	288.19
456.836	286.19
457.056	305.19
457.276	286.19
457.497	301.19
457.717	305.19
457.937	309.19
458.157	313.19
458.377	308.19
458.598	314.19
458.818	320.19
459.038	313.19
459.258	316.19
459.478	338.19
459.698	332.19
459.918	332.19
460.138	344.19
460.358	352.19
460.578	362.19
460.798	338.19
461.018	358.19
461.238	377.19
461.458	348.19
461.678	352.19
461.898	380.19
462.118	355.19
462.338	365.19
462.558	381.19
462.777	402.19
462.997	417.19
463.217	417.19
463.437	430.19
463.657	401.19
463.876	399.19
464.096	396.19
464.316	358.19
464.536	386.19
464.755	383.19
464.975	385.19
465.195	382.19
465.414	361.19
465.634	332.19
465.854	353.19
466.073	354.19
466.293	334.19
466.512	330.19
466.732	323.19
466.951	324.19
467.171	318.19
467.391	328.19
467.61	296.19
467.829	304.19
468.049	317.19
468.268	309.19
468.488	306.19
468.707	314.19
468.927	309.19
469.146	317.19
469.365	327.19
469.585	305.19
469.804	333.19
470.023	310.19
470.243	315.19
470.462	329.19
470.681	322.19
470.901	335.19
471.12	321.19
471.339	312.19
471.558	303.19
471.777	334.19
471.997	304.19
472.216	330.19
472.435	302.19
472.654	318.19
472.873	322.19
473.092	306.19
473.311	338.19
473.53	325.19
473.749	330.19
473.968	324.19
474.187	314.19
474.406	310.19
474.625	333.19
474.844	317.19
475.063	315.19
475.282	323.19
475.501	322.19
475.72	317.19
475.939	319.19
476.158	329.19
476.377	331.19
476.596	341.19
476.814	324.19
477.033	332.19
477.252	321.19
477.471	339.19
477.69	336.19
477.908	331.19
478.127	333.19
478.346	358.19
478.564	351.19
478.783	357.19
479.002	371.19
479.22	355.19
479.439	365.19
479.658	378.19
479.876	388.19
480.095	374.19
480.313	402.19
480.532	374.19
480.751	377.19
480.969	370.19
481.188	371.19
481.406	373.19
481.624	368.19
481.843	371.19
482.061	344.19
482.28	369.19
482.498	365.19
482.717	353.19
482.935	373.19
483.153	357.19
483.372	362.19
483.59	370.19
483.808	354.19
484.027	369.19
484.245	362.19
484.463	360.19
484.681	377.19
484.9	354.19
485.118	375.19
485.336	358.19
485.554	371.19
485.772	383.19
485.99	400.19
486.209	385.19
486.427	383.19
486.645	372.19
486.863	382.19
487.081	394.19
487.299	388.19
487.517	407.19
487.735	367.19
487.953	366.19
488.171	392.19
488.389	373.19
488.607	365.19
488.825	390.19
489.043	368.19
489.261	379.19
489.479	375.19
489.696	389.19
489.914	363.19
490.132	375.19
490.35	368.19
490.568	363.19
490.786	374.19
491.003	376.19
491.221	386.19
491.439	412.19
491.657	361.19
491.874	394.19
492.092	390.19
492.31	395.19
492.527	373.19
492.745	369.19
492.963	377.19
493.18	385.19
493.398	375.19
493.615	395.19
493.833	403.19
494.05	388.19
494.268	395.19
494.485	407.19
494.703	373.19
494.92	393.19
495.138	393.19
495.355	411.19
495.573	406.19
495.79	383.19
496.008	414.19
496.225	391.19
496.442	401.19
496.66	415.19
496.877	431.19
497.094	424.19
497.312	429.19
497.529	441.19
497.746	469.19
497.963	449.19
498.181	450.19
498.398	493.19
498.615	496.19
498.832	501.19
499.049	555.19
499.267	569.19
499.484	595.19
499.701	622.19
499.918	645.19
500.135	715.19
500.352	739.19
500.569	724.19
500.786	711.19
501.003	707.19
501.22	679.19
501.437	631.19
501.654	600.19
501.871	557.19
502.088	545.19
502.305	543.19
502.522	490.19
502.739	463.19
502.956	462.19
503.172	463.19
503.389	434.19
503.606	440.19
503.823	416.19
504.04	415.19
504.256	441.19
504.473	425.19
504.69	419.19
504.907	424.19
505.123	405.19
505.34	392.19
505.557	406.19
505.773	383.19
505.99	366.19
506.207	374.19
506.423	355.19
506.64	374.19
506.856	341.19
507.073	363.19
507.289	342.19
507.506	344.19
507.722	353.19
507.939	347.19
508.155	340.19
508.372	331.19
508.588	339.19
508.805	355.19
509.021	346.19
509.238	309.19
509.454	337.19
509.67	332.19
509.887	329.19
510.103	330.19
510.319	330.19
510.536	320.19
510.752	323.19
510.968	320.19
511.184	320.19
511.401	321.19
511.617	335.19
511.833	329.19
512.049	340.19
512.265	318.19
512.481	304.19
512.698	336.19
512.914	330.19
513.13	345.19
513.346	316.19
513.562	328.19
513.778	326.19
513.994	321.19
514.21	323.19
514.426	308.19
514.642	321.19
514.858	332.19
515.074	329.19
515.29	343.19
515.506	322.19
515.721	324.19
515.937	341.19
516.153	346.19
516.369	342.19
516.585	359.19
516.801	360.19
517.016	349.19
517.232	374.19
517.448	385.19
517.664	384.19
517.879	379.19
518.095	385.19
518.311	375.19
518.527	373.19
518.742	365.19
518.958	381.19
519.173	341.19
519.389	342.19
519.605	330.19
519.82	330.19
520.036	347.19
520.251	310.19
520.467	303.19
520.682	329.19
520.898	326.19
521.113	318.19
521.329	319.19
521.544	318.19
521.76	322.19
521.975	290.19
522.19	295.19
522.406	308.19
522.621	297.19
522.836	311.19
523.052	321.19
523.267	321.19
523.482	304.19
523.698	296.19
523.913	301.19
524.128	301.19
524.343	303.19
524.559	319.19
524.774	277.19
524.989	293.19
525.204	303.19
525.419	305.19
525.634	298.19
525.849	286.19
526.064	297.19
526.28	290.19
526.495	298.19
526.71	298.19
526.925	295.19
527.14	286.19
527.355	286.19
527.57	297.19
527.785	313.19
527.999	307.19
528.214	297.19
528.429	290.19
528.644	308.19
528.859	283.19
529.074	296.19
529.289	312.19
529.503	301.19
529.718	297.19
529.933	272.19
530.148	289.19
530.363	286.19
530.577	282.19
530.792	301.19
531.007	291.19
531.221	293.19
531.436	276.19
531.651	274.19
531.865	280.19
532.08	305.19
532.295	281.19
532.509	292.19
532.724	279.19
532.938	277.19
533.153	279.19
533.367	303.19
533.582	291.19
533.796	290.19
534.011	304.19
534.225	279.19
534.44	263.19
534.654	286.19
534.868	286.19
535.083	287.19
535.297	289.19
535.511	274.19
535.726	278.19
535.94	269.19
536.154	287.19
536.369	296.19
536.583	279.19
536.797	281.19
537.011	293.19
537.225	277.19
537.44	270.19
537.654	284.19
537.868	272.19
538.082	267.19
538.296	275.19
538.51	285.19
538.724	277.19
538.938	268.19
539.153	274.19
539.367	291.19
539.581	278.19
539.795	283.19
540.009	273.19
540.222	271.19
540.436	264.19
540.65	271.19
540.864	265.19
541.078	264.19
541.292	285.19
541.506	273.19
541.72	275.19
541.934	271.19
542.147	259.19
542.361	259.19
542.575	262.19
542.789	263.19
543.002	265.19
543.216	273.19
543.43	263.19
543.644	256.19
543.857	267.19
544.071	269.19
544.285	281.19
544.498	263.19
544.712	275.19
544.925	277.19
545.139	273.19
545.352	265.19
545.566	255.19
545.779	262.19
545.993	284.19
546.206	293.19
546.42	277.19
546.633	263.19
546.847	282.19
547.06	277.19
547.274	269.19
547.487	274.19
547.7	261.19
547.914	274.19
548.127	273.19
548.34	282.19
548.554	266.19
548.767	297.19
548.98	263.19
549.193	267.19
549.407	275.19
549.62	265.19
549.833	282.19
550.046	270.19
550.259	280.19
550.473	273.19
550.686	274.19
550.899	278.19
551.112	276.19
551.325	280.19
551.538	270.19
551.751	271.19
551.964	265.19
552.177	273.19
552.39	259.19
552.603	294.19
552.816	265.19
553.029	287.19
553.242	277.19
553.455	284.19
553.667	285.19
553.88	276.19
554.093	272.19
554.306	266.19
554.519	266.19
554.732	270.19
554.944	284.19
555.157	267.19
555.37	268.19
555.583	259.19
555.795	257.19
556.008	256.19
556.221	253.19
556.433	247.19
556.646	252.19
556.859	248.19
557.071	244.19
557.284	241.19
557.496	245.19
557.709	250.19
557.921	237.19
558.134	230.19
558.346	237.19
558.559	241.19
558.771	254.19
558.984	225.19
559.196	234.19
559.409	255.19
559.621	224.19
559.833	224.19
560.046	223.19
560.258	245.19
560.47	241.19
560.683	242.19
560.895	230.19
561.107	232.19
561.32	259.19
561.532	245.19
561.744	212.19
561.956	229.19
562.168	234.19
562.381	251.19
562.593	238.19
562.805	256.19
563.017	224.19
563.229	242.19
563.441	247.19
563.653	257.19
563.865	249.19
564.077	244.19
564.289	229.19
564.501	248.19
564.713	251.19
564.925	269.19
565.137	269.19
565.349	268.19
565.561	250.19
565.773	274.19
565.985	265.19
566.197	280.19
566.408	278.19
566.62	308.19
566.832	322.19
567.044	321.19
567.255	317.19
567.467	295.19
567.679	308.19
567.891	329.19
568.102	319.19
568.314	328.19
568.526	315.19
568.737	291.19
568.949	266.19
569.161	283.19
569.372	254.19
569.584	260.19
569.795	283.19
570.007	253.19
570.218	230.19
570.43	236.19
570.641	242.19
570.853	243.19
571.064	236.19
571.276	243.19
571.487	229.19
571.698	214.19
571.91	217.19
572.121	224.19
572.333	211.19
572.544	204.19
572.755	212.19
572.966	217.19
573.178	216.19
573.389	210.19
573.6	202.19
573.811	214.19
574.023	214.19
574.234	208.19
574.445	196.19
574.656	214.19
574.867	201.19
575.078	207.19
575.289	187.19
575.501	207.19
575.712	198.19
575.923	190.19
576.134	215.19
576.345	214.19
576.556	197.19
576.767	200.19
576.978	202.19
577.188	203.19
577.399	192.19
577.61	216.19
577.821	183.19
578.032	184.19
578.243	198.19
578.454	183.19
578.665	194.19
578.875	193.19
579.086	179.19
579.297	177.19
579.508	194.19
579.718	184.19
579.929	185.19
580.14	193.19
580.35	164.19
580.561	182.19
580.772	182.19
580.982	200.19
581.193	195.19
581.403	174.19
581.614	199.19
581.825	192.19
582.035	183.19
582.246	179.19
582.456	173.19
582.667	170.19
582.877	177.19
583.087	171.19
583.298	186.19
583.508	187.19
583.719	168.19
583.929	176.19
584.139	164.19
584.35	181.19
584.56	175.19
584.77	186.19
584.981	175.19
585.191	183.19
585.401	180.19
585.611	179.19
585.821	179.19
586.032	174.19
586.242	175.19
586.452	192.19
586.662	168.19
586.872	186.19
587.082	171.19
587.292	174.19
587.502	181.19
587.713	178.19
587.923	158.19
588.133	165.19
588.343	186.19
588.553	173.19
588.762	173.19
588.972	181.19
589.182	167.19
589.392	181.19
589.602	182.19
589.812	189.19
590.022	172.19
590.232	170.19
590.441	183.19
590.651	173.19
590.861	192.19
591.071	172.19
591.281	185.19
591.49	169.19
591.7	161.19
591.91	188.19
592.119	176.19
592.329	184.19
592.539	184.19
592.748	197.19
592.958	203.19
593.167	199.19
593.377	208.19
593.587	208.19
593.796	182.19
594.006	193.19
594.215	187.19
594.424	205.19
594.634	195.19
594.843	200.19
595.053	195.19
595.262	176.19
595.472	177.19
595.681	168.19
595.89	162.19
596.1	163.19
596.309	190.19
596.518	172.19
596.727	162.19
596.937	169.19
597.146	166.19
597.355	155.19
597.564	172.19
597.774	168.19
597.983	163.19
598.192	154.19
598.401	163.19
598.61	160.19
598.819	171.19
599.028	157.19
599.237	166.19
599.446	176.19
599.655	161.19
599.864	180.19
600.073	155.19
600.282	173.19
600.491	149.19
600.7	166.19
600.909	151.19
601.118	168.19
601.327	158.19
601.536	146.19
601.745	161.19
601.953	156.19
602.162	157.19
602.371	161.19
602.58	158.19
602.789	155.19
602.997	156.19
603.206	148.19
603.415	154.19
603.623	173.19
603.832	158.19
604.041	161.19
604.249	153.19
604.458	140.19
604.666	149.19
604.875	141.19
605.084	170.19
605.292	158.19
605.501	154.19
605.709	153.19
605.918	154.19
606.126	161.19
606.334	157.19
606.543	160.19
606.751	164.19
606.96	149.19
607.168	147.19
607.376	152.19
607.585	153.19
607.793	153.19
608.001	144.19
608.21	153.19
608.418	150.19
608.626	161.19
608.834	157.19
609.043	159.19
609.251	138.19
609.459	164.19
609.667	149.19
609.875	146.19
610.083	151.19
610.291	144.19
610.499	140.19
610.707	152.19
610.916	151.19
611.124	168.19
611.332	144.19
611.54	147.19
611.748	150.19
611.955	149.19
612.163	139.19
612.371	138.19
612.579	147.19
612.787	136.19
612.995	136.19
613.203	157.19
613.411	142.19
613.618	143.19
613.826	151.19
614.034	137.19
614.242	156.19
614.449	157.19
614.657	150.19
614.865	139.19
615.072	143.19
615.28	147.19
615.488	151.19
615.695	156.19
615.903	156.19
616.111	140.19
616.318	151.19
616.526	150.19
616.733	148.19
616.941	147.19
617.148	143.19
617.356	142.19
617.563	145.19
617.771	150.19
617.978	143.19
618.185	142.19
618.393	143.19
618.6	149.19
618.807	137.19
619.015	148.19
619.222	137.19
619.429	151.19
619.637	157.19
619.844	156.19
620.051	149.19
620.258	145.19
620.466	132.19
620.673	144.19
620.88	151.19
621.087	131.19
621.294	143.19
621.501	160.19
621.708	147.19
621.915	127.19
622.122	151.19
622.329	150.19
622.536	134.19
622.743	127.19
622.95	142.19
623.157	138.19
623.364	138.19
623.571	139.19
623.778	133.19
623.985	138.19
624.192	139.19
624.399	143.19
624.606	137.19
624.812	137.19
625.019	137.19
625.226	142.19
625.433	128.19
625.639	133.19
625.846	136.19
626.053	144.19
626.259	147.19
626.466	133.19
626.673	125.19
626.879	136.19
627.086	129.19
627.293	141.19
627.499	135.19
627.706	123.19
627.912	136.19
628.119	131.19
628.325	123.19
628.532	133.19
628.738	133.19
628.945	134.19
629.151	128.19
629.357	114.19
629.564	130.19
629.77	124.19
629.976	133.19
630.183	130.19
630.389	126.19
630.595	129.19
630.802	142.19
631.008	134.19
631.214	142.19
631.42	125.19
631.627	134.19
631.833	113.19
632.039	131.19
632.245	129.19
632.451	142.19
632.657	125.19
632.863	130.19
633.069	131.19
633.275	131.19
633.481	135.19
633.688	116.19
633.893	130.19
634.099	127.19
634.305	119.19
634.511	115.19
634.717	112.19
634.923	124.19
635.129	126.19
635.335	130.19
635.541	125.19
635.747	136.19
635.952	127.19
636.158	137.19
636.364	131.19
636.57	118.19
636.775	131.19
636.981	147.19
637.187	135.19
637.392	138.19
637.598	137.19
637.804	120.19
638.009	125.19
638.215	113.19
638.421	98.19
638.626	118.19
638.832	127.19
639.037	123.19
639.243	116.19
639.448	111.19
639.654	136.19
639.859	117.19
640.065	123.19
640.27	117.19
640.475	143.19
640.681	137.19
640.886	126.19
641.091	113.19
641.297	120.19
641.502	126.19
641.707	131.19
641.913	123.19
642.118	116.19
642.323	134.19
642.528	139.19
642.733	121.19
642.939	133.19
643.144	122.19
643.349	121.19
643.554	133.19
643.759	114.19
643.964	141.19
644.169	112.19
644.374	114.19
644.579	113.19
644.784	133.19
644.989	122.19
645.194	131.19
645.399	149.19
645.604	131.19
645.809	120.19
646.014	117.19
646.219	118.19
646.423	128.19
646.628	119.19
646.833	127.19
647.038	127.19
647.243	130.19
647.447	123.19
647.652	105.19
647.857	121.19
648.062	120.19
648.266	126.19
648.471	125.19
648.676	134.19
648.88	127.19
649.085	137.19
649.289	139.19
649.494	117.19
649.698	114.19
649.903	122.19
650.107	127.19
650.312	129.19
650.516	133.19
650.721	144.19
650.925	137.19
651.13	139.19
651.334	134.19
651.539	146.19
651.743	121.19
651.947	116.19
652.152	134.19
652.356	141.19
652.56	137.19
652.764	121.19
652.969	137.19
653.173	121.19
653.377	121.19
653.581	120.19
653.785	125.19
653.99	119.19
654.194	135.19
654.398	113.19
654.602	129.19
654.806	134.19
655.01	137.19
655.214	136.19
655.418	128.19
655.622	129.19
655.826	122.19
656.03	143.19
656.234	151.19
656.438	155.19
656.642	139.19
656.846	125.19
657.049	131.19
657.253	134.19
657.457	125.19
657.661	134.19
657.865	120.19
658.068	123.19
658.272	120.19
658.476	106.19
658.68	106.19
658.883	111.19
659.087	96.19
659.291	109.19
659.494	93.19
659.698	111.19
659.901	98.19
660.105	107.19
660.309	88.19
660.512	79.19
660.716	84.19
660.919	85.19
661.123	94.19
661.326	81.19
661.53	93.19
661.733	71.19
661.936	76.19
662.14	82.19
662.343	94.19
662.546	80.19
662.75	75.19
662.953	86.19
663.156	70.19
663.36	85.19
663.563	89.19
663.766	88.19
663.969	71.19
664.173	73.19
664.376	83.19
664.579	81.19
664.782	79.19
664.985	85.19
665.188	78.19
665.391	89.19
665.594	90.19
665.797	87.19
666	84.19
666.203	67.19
666.406	85.19
666.609	91.19
666.812	81.19
667.015	74.19
667.218	81.19
667.421	73.19
667.624	77.19
667.827	87.19
668.03	70.19
668.232	69.19
668.435	94.19
668.638	87.19
668.841	100.19
669.043	74.19
669.246	76.19
669.449	82.19
669.651	78.19
669.854	69.19
670.057	77.19
670.259	79.19
670.462	67.19
670.665	81.19
670.867	103.19
671.07	85.19
671.272	81.19
671.475	95.19
671.677	81.19
671.88	83.19
672.082	83.19
672.284	88.19
672.487	82.19
672.689	72.19
672.892	84.19
