Data from FlinnAP9092KCOPPER.07152019.LAMP.EN10.P1_HRD10591_14-45-29-668.txt Node
Date: Mon Jul 15 14:45:29 EDT 2019
User: cochatt
Spectrometer: HR+D1059
Trigger mode: 3
Integration Time (sec): 1.000000E-1
Scans to average: 1
Electric dark correction enabled: true
Nonlinearity correction enabled: false
Boxcar width: 0
XAxis mode: Wavelengths
Number of Pixels in Spectrum: 2048
>>>>>Begin Spectral Data<<<<<
223.165	-12
223.4	-12
223.635	-12
223.869	-21
224.104	-11
224.338	-19
224.573	-13
224.808	-23
225.042	-5
225.277	-9
225.511	-2
225.746	-6
225.98	8
226.215	27
226.449	23
226.683	19
226.918	28
227.152	16
227.387	28
227.621	48
227.856	44
228.09	60
228.324	35
228.559	72
228.793	92
229.027	164
229.262	190
229.496	206
229.73	253
229.964	315
230.199	250
230.433	199
230.667	206
230.901	186
231.136	192
231.37	170
231.604	179
231.838	184
232.072	175
232.306	197
232.541	169
232.775	186
233.009	185
233.243	196
233.477	188
233.711	177
233.945	186
234.179	202
234.413	184
234.647	191
234.881	183
235.115	202
235.349	213
235.583	180
235.817	197
236.051	232
236.285	214
236.519	208
236.753	240
236.987	270
237.221	346
237.455	502
237.689	395
237.922	268
238.156	259
238.39	229
238.624	219
238.858	208
239.091	231
239.325	227
239.559	235
239.793	235
240.027	235
240.26	288
240.494	318
240.728	327
240.961	314
241.195	260
241.429	260
241.662	252
241.896	243
242.13	246
242.363	240
242.597	245
242.83	262
243.064	251
243.298	255
243.531	263
243.765	260
243.998	258
244.232	261
244.465	259
244.699	288
244.932	286
245.166	264
245.399	288
245.633	274
245.866	275
246.099	302
246.333	274
246.566	300
246.8	298
247.033	302
247.266	314
247.5	321
247.733	361
247.966	357
248.2	341
248.433	355
248.666	338
248.899	367
249.133	425
249.366	438
249.599	407
249.832	363
250.066	347
250.299	370
250.532	368
250.765	399
250.998	468
251.231	504
251.465	434
251.698	438
251.931	403
252.164	382
252.397	403
252.63	408
252.863	428
253.096	442
253.329	494
253.562	492
253.795	440
254.028	439
254.261	427
254.494	470
254.727	543
254.96	639
255.193	583
255.426	506
255.659	458
255.892	443
256.124	410
256.357	406
256.59	414
256.823	426
257.056	405
257.289	408
257.521	425
257.754	411
257.987	419
258.22	436
258.452	442
258.685	425
258.918	419
259.151	439
259.383	452
259.616	455
259.849	485
260.081	492
260.314	564
260.547	571
260.779	548
261.012	492
261.244	501
261.477	447
261.71	466
261.942	490
262.175	511
262.407	502
262.64	438
262.872	445
263.105	436
263.337	450
263.57	474
263.802	442
264.035	442
264.267	460
264.499	447
264.732	440
264.964	451
265.197	477
265.429	452
265.661	468
265.894	450
266.126	449
266.358	478
266.591	482
266.823	506
267.055	501
267.287	504
267.52	499
267.752	509
267.984	500
268.216	513
268.448	504
268.681	508
268.913	540
269.145	613
269.377	635
269.609	613
269.841	612
270.073	628
270.306	676
270.538	740
270.77	733
271.002	684
271.234	642
271.466	682
271.698	737
271.93	722
272.162	725
272.394	734
272.626	691
272.858	640
273.09	627
273.322	578
273.553	593
273.785	578
274.017	561
274.249	586
274.481	601
274.713	588
274.945	608
275.176	570
275.408	580
275.64	581
275.872	571
276.104	566
276.335	604
276.567	633
276.799	660
277.031	685
277.262	755
277.494	778
277.726	670
277.957	662
278.189	627
278.421	608
278.652	619
278.884	601
279.115	621
279.347	594
279.579	608
279.81	594
280.042	590
280.273	600
280.505	592
280.736	609
280.968	619
281.199	577
281.431	614
281.662	623
281.894	612
282.125	621
282.356	650
282.588	708
282.819	707
283.051	639
283.282	604
283.513	626
283.745	607
283.976	654
284.207	671
284.439	643
284.67	634
284.901	636
285.132	627
285.364	639
285.595	622
285.826	642
286.057	644
286.288	658
286.52	658
286.751	636
286.982	646
287.213	650
287.444	644
287.675	664
287.906	674
288.138	709
288.369	716
288.6	719
288.831	699
289.062	705
289.293	684
289.524	687
289.755	665
289.986	683
290.217	660
290.448	648
290.679	679
290.91	643
291.141	674
291.371	675
291.602	692
291.833	684
292.064	655
292.295	683
292.526	669
292.757	668
292.987	647
293.218	669
293.449	700
293.68	682
293.91	696
294.141	664
294.372	646
294.603	700
294.833	700
295.064	680
295.295	692
295.525	665
295.756	707
295.987	707
296.217	755
296.448	762
296.679	716
296.909	695
297.14	698
297.37	723
297.601	708
297.831	715
298.062	728
298.292	720
298.523	738
298.753	732
298.984	721
299.214	728
299.445	718
299.675	733
299.905	741
300.136	755
300.366	727
300.597	735
300.827	746
301.057	762
301.288	800
301.518	781
301.748	764
301.979	808
302.209	759
302.439	808
302.669	761
302.9	750
303.13	771
303.36	771
303.59	731
303.82	789
304.051	780
304.281	770
304.511	758
304.741	786
304.971	730
305.201	736
305.431	719
305.661	755
305.891	743
306.121	743
306.352	750
306.582	803
306.812	744
307.042	739
307.272	763
307.502	771
307.731	738
307.961	739
308.191	751
308.421	725
308.651	767
308.881	764
309.111	773
309.341	782
309.571	780
309.8	798
310.03	825
310.26	862
310.49	834
310.72	857
310.949	916
311.179	934
311.409	860
311.639	839
311.868	831
312.098	856
312.328	852
312.557	891
312.787	950
313.017	938
313.246	929
313.476	867
313.706	878
313.935	864
314.165	906
314.394	918
314.624	922
314.853	892
315.083	884
315.312	843
315.542	852
315.771	831
316.001	820
316.23	830
316.46	817
316.689	816
316.919	829
317.148	876
317.377	899
317.607	875
317.836	868
318.065	846
318.295	829
318.524	833
318.753	818
318.983	831
319.212	830
319.441	846
319.67	858
319.9	822
320.129	821
320.358	808
320.587	826
320.816	838
321.046	859
321.275	885
321.504	886
321.733	867
321.962	876
322.191	907
322.42	922
322.649	945
322.878	954
323.108	957
323.337	1016
323.566	1078
323.795	1122
324.024	1244
324.253	1461
324.482	2214
324.71	3755
324.939	5877
325.168	5002
325.397	1986
325.626	1290
325.855	1100
326.084	1058
326.313	1059
326.542	1074
326.77	1174
326.999	1422
327.228	2047
327.457	3430
327.686	4453
327.914	2583
328.143	1508
328.372	1315
328.6	1234
328.829	1215
329.058	1304
329.287	1348
329.515	1232
329.744	1086
329.972	1038
330.201	1059
330.43	1089
330.658	1228
330.887	1432
331.115	1445
331.344	1204
331.572	1090
331.801	1101
332.03	1125
332.258	1102
332.486	1037
332.715	1067
332.943	1084
333.172	1102
333.4	1148
333.629	1134
333.857	1162
334.085	1152
334.314	1118
334.542	1076
334.771	1104
334.999	1117
335.227	1075
335.455	1100
335.684	1078
335.912	1048
336.14	1053
336.369	1042
336.597	1070
336.825	1083
337.053	1058
337.281	1015
337.51	1031
337.738	1022
337.966	1014
338.194	1061
338.422	1023
338.65	970
338.878	982
339.106	951
339.334	963
339.562	954
339.79	974
340.018	946
340.246	941
340.474	972
340.702	954
340.93	941
341.158	939
341.386	952
341.614	953
341.842	962
342.07	918
342.298	942
342.526	950
342.754	917
342.981	915
343.209	939
343.437	950
343.665	977
343.893	1016
344.12	1071
344.348	1050
344.576	993
344.804	998
345.031	1022
345.259	1045
345.487	988
345.714	990
345.942	961
346.17	914
346.397	927
346.625	907
346.853	899
347.08	899
347.308	915
347.535	937
347.763	950
347.99	944
348.218	957
348.445	971
348.673	1004
348.9	915
349.128	896
349.355	850
349.583	859
349.81	877
350.037	901
350.265	868
350.492	882
350.72	891
350.947	871
351.174	877
351.402	933
351.629	873
351.856	888
352.083	922
352.311	938
352.538	937
352.765	943
352.992	918
353.22	916
353.447	880
353.674	854
353.901	846
354.128	847
354.355	824
354.583	829
354.81	858
355.037	826
355.264	815
355.491	847
355.718	802
355.945	832
356.172	827
356.399	816
356.626	818
356.853	812
357.08	834
357.307	808
357.534	819
357.761	806
357.988	817
358.215	813
358.441	824
358.668	840
358.895	845
359.122	862
359.349	859
359.576	882
359.802	967
360.029	1019
360.256	1076
360.483	1051
360.709	930
360.936	872
361.163	896
361.39	908
361.616	922
361.843	884
362.07	892
362.296	911
362.523	899
362.749	884
362.976	860
363.203	873
363.429	849
363.656	835
363.882	854
364.109	827
364.335	828
364.562	862
364.788	870
365.015	843
365.241	844
365.468	846
365.694	893
365.92	890
366.147	867
366.373	843
366.599	856
366.826	817
367.052	821
367.278	824
367.505	816
367.731	851
367.957	871
368.184	858
368.41	875
368.636	902
368.862	915
369.089	887
369.315	851
369.541	882
369.767	871
369.993	874
370.219	892
370.445	865
370.672	861
370.898	834
371.124	880
371.35	908
371.576	898
371.802	880
372.028	862
372.254	862
372.48	884
372.706	902
372.932	895
373.158	911
373.384	878
373.61	899
373.835	892
374.061	889
374.287	926
374.513	919
374.739	942
374.965	942
375.191	962
375.416	961
375.642	924
375.868	921
376.094	911
376.319	919
376.545	911
376.771	913
376.997	907
377.222	882
377.448	889
377.674	904
377.899	874
378.125	890
378.35	861
378.576	876
378.802	860
379.027	869
379.253	875
379.478	887
379.704	869
379.929	912
380.155	868
380.38	909
380.606	893
380.831	898
381.057	910
381.282	894
381.507	956
381.733	924
381.958	886
382.184	944
382.409	929
382.634	937
382.86	931
383.085	947
383.31	951
383.535	961
383.761	997
383.986	1001
384.211	1022
384.436	995
384.662	1034
384.887	1028
385.112	1050
385.337	1045
385.562	1042
385.787	1064
386.013	1072
386.238	1117
386.463	1069
386.688	1091
386.913	1042
387.138	1077
387.363	1059
387.588	1024
387.813	1050
388.038	1030
388.263	1050
388.488	1076
388.713	1040
388.938	1027
389.163	1078
389.387	1061
389.612	1082
389.837	1046
390.062	1064
390.287	1070
390.512	1038
390.736	1064
390.961	1079
391.186	1096
391.411	1113
391.636	1104
391.86	1135
392.085	1176
392.31	1162
392.534	1159
392.759	1144
392.984	1125
393.208	1126
393.433	1108
393.658	1109
393.882	1107
394.107	1118
394.331	1143
394.556	1118
394.78	1153
395.005	1141
395.229	1135
395.454	1170
395.678	1223
395.903	1172
396.127	1210
396.352	1230
396.576	1190
396.801	1125
397.025	1152
397.249	1167
397.474	1197
397.698	1221
397.922	1250
398.147	1261
398.371	1294
398.595	1240
398.82	1289
399.044	1371
399.268	1431
399.492	1611
399.717	1802
399.941	1863
400.165	1800
400.389	1741
400.613	1565
400.837	1423
401.062	1370
401.286	1375
401.51	1366
401.734	1308
401.958	1356
402.182	1384
402.406	1436
402.63	1449
402.854	1420
403.078	1423
403.302	1464
403.526	1522
403.75	1523
403.974	1543
404.198	1487
404.422	1565
404.645	1523
404.869	1517
405.093	1526
405.317	1608
405.541	1638
405.765	1542
405.988	1508
406.212	1580
406.436	1630
406.66	1651
406.883	1652
407.107	1700
407.331	1831
407.555	2001
407.778	2010
408.002	1818
408.226	1679
408.449	1620
408.673	1610
408.896	1662
409.12	1754
409.344	1682
409.567	1505
409.791	1508
410.014	1459
410.238	1453
410.461	1466
410.685	1509
410.908	1514
411.132	1597
411.355	1657
411.578	1617
411.802	1464
412.025	1411
412.249	1438
412.472	1442
412.695	1425
412.919	1366
413.142	1378
413.365	1377
413.589	1360
413.812	1361
414.035	1377
414.258	1362
414.482	1375
414.705	1390
414.928	1377
415.151	1375
415.374	1377
415.597	1424
415.821	1367
416.044	1402
416.267	1417
416.49	1379
416.713	1368
416.936	1389
417.159	1391
417.382	1407
417.605	1403
417.828	1465
418.051	1483
418.274	1466
418.497	1411
418.72	1465
418.943	1454
419.166	1511
419.389	1601
419.611	1562
419.834	1571
420.057	1534
420.28	1474
420.503	1444
420.726	1446
420.948	1503
421.171	1624
421.394	1685
421.617	1551
421.839	1507
422.062	1498
422.285	1518
422.507	1652
422.73	1859
422.953	1765
423.175	1581
423.398	1594
423.621	1607
423.843	1724
424.066	1660
424.288	1650
424.511	1660
424.733	1814
424.956	2080
425.178	1920
425.401	1961
425.623	1994
425.846	1686
426.068	1606
426.291	1541
426.513	1479
426.735	1532
426.958	1666
427.18	1873
427.402	2291
427.625	2461
427.847	2022
428.069	1681
428.292	1562
428.514	1450
428.736	1408
428.958	1413
429.181	1382
429.403	1383
429.625	1399
429.847	1511
430.069	1724
430.292	1686
430.514	1430
430.736	1410
430.958	1369
431.18	1370
431.402	1340
431.624	1308
431.846	1230
432.068	1199
432.29	1186
432.512	1255
432.734	1358
432.956	1384
433.178	1428
433.4	1464
433.622	1414
433.844	1393
434.066	1319
434.287	1288
434.509	1271
434.731	1290
434.953	1382
435.175	1477
435.397	1607
435.618	1535
435.84	1538
436.062	1827
436.284	2109
436.505	1708
436.727	1607
436.949	1507
437.17	1413
437.392	1387
437.614	1372
437.835	1433
438.057	1702
438.278	2008
438.5	1984
438.721	2248
438.943	2168
439.165	1676
439.386	1631
439.608	1658
439.829	1663
440.05	1795
440.272	2033
440.493	1810
440.715	1584
440.936	1557
441.158	1548
441.379	1580
441.6	1643
441.822	1727
442.043	1809
442.264	2078
442.486	2121
442.707	1779
442.928	1718
443.149	1774
443.371	1873
443.592	1933
443.813	2148
444.034	2345
444.255	1934
444.476	1802
444.698	1773
444.919	1850
445.14	1908
445.361	1886
445.582	1906
445.803	2149
446.024	2451
446.245	2430
446.466	2134
446.687	1830
446.908	1716
447.129	1588
447.35	1579
447.571	1535
447.792	1475
448.013	1512
448.234	1532
448.455	1672
448.675	1986
448.896	2378
449.117	1818
449.338	1736
449.559	2134
449.779	2407
450	1805
450.221	1550
450.442	1447
450.662	1414
450.883	1464
451.104	1468
451.324	1420
451.545	1377
451.766	1306
451.986	1274
452.207	1271
452.428	1242
452.648	1238
452.869	1248
453.089	1292
453.31	1236
453.53	1175
453.751	1150
453.971	1174
454.192	1188
454.412	1183
454.633	1190
454.853	1217
455.073	1217
455.294	1309
455.514	1556
455.734	1448
455.955	1198
456.175	1125
456.395	1101
456.616	1100
456.836	1062
457.056	1052
457.276	1036
457.497	1084
457.717	1090
457.937	1126
458.157	1103
458.377	1112
458.598	1131
458.818	1292
459.038	1553
459.258	1621
459.478	1282
459.698	1191
459.918	1198
460.138	1271
460.358	1342
460.578	1374
460.798	1396
461.018	1432
461.238	1402
461.458	1344
461.678	1344
461.898	1345
462.118	1358
462.338	1439
462.558	1474
462.777	1474
462.997	1520
463.217	1621
463.437	1630
463.657	1553
463.876	1499
464.096	1491
464.316	1519
464.536	1558
464.755	1530
464.975	1526
465.195	1638
465.414	1816
465.634	1550
465.854	1391
466.073	1332
466.293	1331
466.512	1333
466.732	1335
466.951	1349
467.171	1327
467.391	1365
467.61	1388
467.829	1392
468.049	1354
468.268	1356
468.488	1342
468.707	1310
468.927	1338
469.146	1339
469.365	1354
469.585	1338
469.804	1406
470.023	1462
470.243	1470
470.462	1482
470.681	1540
470.901	1492
471.12	1460
471.339	1437
471.558	1488
471.777	1398
471.997	1330
472.216	1258
472.435	1210
472.654	1122
472.873	1133
473.092	1188
473.311	1250
473.53	1231
473.749	1268
473.968	1360
474.187	1685
474.406	1674
474.625	1341
474.844	1352
475.063	1287
475.282	1260
475.501	1216
475.72	1252
475.939	1271
476.158	1292
476.377	1316
476.596	1276
476.814	1255
477.033	1226
477.252	1247
477.471	1347
477.69	1421
477.908	1428
478.127	1532
478.346	1504
478.564	1520
478.783	1519
479.002	1563
479.22	1567
479.439	1564
479.658	1570
479.876	1472
480.095	1475
480.313	1658
480.532	1583
480.751	1506
480.969	1415
481.188	1396
481.406	1358
481.624	1282
481.843	1252
482.061	1305
482.28	1351
482.498	1333
482.717	1320
482.935	1413
483.153	1480
483.372	1568
483.59	1518
483.808	1463
484.027	1406
484.245	1446
484.463	1470
484.681	1533
484.9	1503
485.118	1483
485.336	1470
485.554	1388
485.772	1344
485.99	1378
486.209	1406
486.427	1431
486.645	1508
486.863	1654
487.081	1628
487.299	1580
487.517	1564
487.735	1764
487.953	1866
488.171	1874
488.389	1785
488.607	1652
488.825	1567
489.043	1517
489.261	1550
489.479	1604
489.696	1652
489.914	1647
490.132	1689
490.35	1765
490.568	1879
490.786	1982
491.003	2086
491.221	2125
491.439	2202
491.657	2241
491.874	2332
492.092	2466
492.31	2542
492.527	2462
492.745	2350
492.963	2296
493.18	2237
493.398	2190
493.615	2244
493.833	2216
494.05	2180
494.268	2181
494.485	2170
494.703	2140
494.92	2154
495.138	2132
495.355	2166
495.573	2177
495.79	2170
496.008	2117
496.225	2063
496.442	2046
496.66	2053
496.877	2071
497.094	2061
497.312	2058
497.529	2084
497.746	2039
497.963	2000
498.181	2005
498.398	2000
498.615	2041
498.832	2104
499.049	2148
499.267	2291
499.484	2480
499.701	2652
499.918	2827
500.135	3130
500.352	3463
500.569	3470
500.786	3498
501.003	3365
501.22	3107
501.437	2989
501.654	2754
501.871	2659
502.088	2470
502.305	2305
502.522	2154
502.739	2135
502.956	2044
503.172	1947
503.389	1905
503.606	1846
503.823	1803
504.04	1793
504.256	1783
504.473	1802
504.69	1886
504.907	1822
505.123	1720
505.34	1733
505.557	1706
505.773	1713
505.99	1706
506.207	1684
506.423	1660
506.64	1638
506.856	1614
507.073	1582
507.289	1542
507.506	1580
507.722	1592
507.939	1598
508.155	1582
508.372	1474
508.588	1477
508.805	1451
509.021	1462
509.238	1534
509.454	1526
509.67	1455
509.887	1386
510.103	1322
510.319	1392
510.536	1544
510.752	2667
510.968	1897
511.184	1325
511.401	1295
511.617	1269
511.833	1252
512.049	1228
512.265	1255
512.481	1266
512.698	1267
512.914	1243
513.13	1251
513.346	1271
513.562	1228
513.778	1255
513.994	1263
514.21	1269
514.426	1330
514.642	1491
514.858	1508
515.074	1587
515.29	1979
515.506	3152
515.721	2328
515.937	1586
516.153	1448
516.369	1424
516.585	1388
516.801	1376
517.016	1435
517.232	1506
517.448	1521
517.664	1531
517.879	1538
518.095	1585
518.311	1534
518.527	1504
518.742	1459
518.958	1453
519.173	1441
519.389	1414
519.605	1438
519.82	1395
520.036	1430
520.251	1500
520.467	1542
520.682	1476
520.898	1429
521.113	1465
521.329	1572
521.544	1800
521.76	2430
521.975	4365
522.19	3771
522.406	1962
522.621	1498
522.836	1378
523.052	1304
523.267	1285
523.482	1260
523.698	1269
523.913	1301
524.128	1297
524.343	1275
524.559	1269
524.774	1291
524.989	1256
525.204	1275
525.419	1256
525.634	1209
525.849	1176
526.064	1125
526.28	1101
526.495	1055
526.71	1048
526.925	1002
527.14	999
527.355	1017
527.57	1033
527.785	1038
527.999	1052
528.214	1080
528.429	1178
528.644	1244
528.859	1312
529.074	1403
529.289	1513
529.503	1744
529.718	1515
529.933	1280
530.148	1159
530.363	1062
530.577	1015
530.792	991
531.007	996
531.221	1015
531.436	999
531.651	990
531.865	979
532.08	1021
532.295	1003
532.509	1023
532.724	1003
532.938	1032
533.153	1073
533.367	1130
533.582	1186
533.796	1206
534.011	1138
534.225	1066
534.44	995
534.654	1011
534.868	1038
535.083	1056
535.297	1054
535.511	1072
535.726	1092
535.94	1108
536.154	1064
536.369	983
536.583	944
536.797	945
537.011	956
537.225	951
537.44	962
537.654	997
537.868	987
538.082	967
538.296	1041
538.51	1059
538.724	1122
538.938	1186
539.153	1198
539.367	1208
539.581	1156
539.795	1048
540.009	1028
540.222	988
540.436	1071
540.65	1169
540.864	1263
541.078	1372
541.292	1448
541.506	1518
541.72	1605
541.934	1716
542.147	1808
542.361	1692
542.575	1508
542.789	1427
543.002	1325
543.216	1262
543.43	1252
543.644	1280
543.857	1392
544.071	1549
544.285	1568
544.498	1624
544.712	1627
544.925	1630
545.139	1583
545.352	1637
545.566	1644
545.779	1676
545.993	1668
546.206	1672
546.42	1729
546.633	1659
546.847	1692
547.06	1650
547.274	1702
547.487	1755
547.7	1776
547.914	1703
548.127	1715
548.34	1674
548.554	1637
548.767	1643
548.98	1641
549.193	1613
549.407	1654
549.62	1649
549.833	1626
550.046	1618
550.259	1616
550.473	1590
550.686	1573
550.899	1516
551.112	1510
551.325	1437
551.538	1382
551.751	1202
551.964	1182
552.177	1314
552.39	1454
552.603	1543
552.816	1610
553.029	1668
553.242	1661
553.455	1758
553.667	1731
553.88	1713
554.093	1663
554.306	1666
554.519	1607
554.732	1568
554.944	1512
555.157	1498
555.37	1482
555.583	1427
555.795	1411
556.008	1367
556.221	1309
556.433	1319
556.646	1327
556.859	1381
557.071	1330
557.284	1366
557.496	1376
557.709	1365
557.921	1378
558.134	1350
558.346	1339
558.559	1338
558.771	1320
558.984	1286
559.196	1242
559.409	1262
559.621	1199
559.833	1190
560.046	1195
560.258	1242
560.47	1242
560.683	1269
560.895	1243
561.107	1267
561.32	1231
561.532	1227
561.744	1238
561.956	1251
562.168	1194
562.381	1241
562.593	1215
562.805	1206
563.017	1238
563.229	1196
563.441	1204
563.653	1173
563.865	1157
564.077	1184
564.289	1200
564.501	1191
564.713	1192
564.925	1160
565.137	1210
565.349	1208
565.561	1198
565.773	1273
565.985	1278
566.197	1335
566.408	1385
566.62	1487
566.832	1539
567.044	1539
567.255	1498
567.467	1532
567.679	1530
567.891	1544
568.102	1548
568.314	1422
568.526	1287
568.737	1174
568.949	1098
569.161	976
569.372	957
569.584	881
569.795	848
570.007	873
570.218	937
570.43	900
570.641	876
570.853	922
571.064	940
571.276	999
571.487	981
571.698	954
571.91	924
572.121	914
572.333	891
572.544	824
572.755	787
572.966	735
573.178	683
573.389	693
573.6	727
573.811	673
574.023	661
574.234	668
574.445	724
574.656	700
574.867	736
575.078	762
575.289	783
575.501	757
575.712	728
575.923	723
576.134	740
576.345	772
576.556	786
576.767	794
576.978	771
577.188	753
577.399	726
577.61	698
577.821	702
578.032	703
578.243	800
578.454	1169
578.665	823
578.875	638
579.086	639
579.297	635
579.508	614
579.718	602
579.929	622
580.14	621
580.35	617
580.561	599
580.772	623
580.982	626
581.193	661
581.403	660
581.614	651
581.825	662
582.035	654
582.246	644
582.456	632
582.667	677
582.877	624
583.087	628
583.298	632
583.508	613
583.719	599
583.929	616
584.139	582
584.35	606
584.56	598
584.77	605
584.981	622
585.191	629
585.401	617
585.611	627
585.821	583
586.032	604
586.242	597
586.452	568
586.662	599
586.872	572
587.082	580
587.292	592
587.502	561
587.713	582
587.923	589
588.133	568
588.343	556
588.553	583
588.762	581
588.972	566
589.182	572
589.392	573
589.602	558
589.812	586
590.022	588
590.232	609
590.441	588
590.651	596
590.861	579
591.071	571
591.281	613
591.49	616
591.7	603
591.91	627
592.119	636
592.329	652
592.539	680
592.748	683
592.958	688
593.167	675
593.377	704
593.587	727
593.796	727
594.006	727
594.215	736
594.424	769
594.634	791
594.843	773
595.053	766
595.262	710
595.472	694
595.681	658
595.89	652
596.1	634
596.309	648
596.518	684
596.727	655
596.937	685
597.146	665
597.355	656
597.564	626
597.774	598
597.983	549
598.192	572
598.401	544
598.61	525
598.819	579
599.028	586
599.237	576
599.446	606
599.655	593
599.864	581
600.073	578
600.282	588
600.491	644
600.7	592
600.909	597
601.118	685
601.327	749
601.536	736
601.745	792
601.953	811
602.162	810
602.371	818
602.58	841
602.789	829
602.997	842
603.206	808
603.415	848
603.623	840
603.832	798
604.041	776
604.249	687
604.458	674
604.666	643
604.875	658
605.084	718
605.292	778
605.501	858
605.709	897
605.918	904
606.126	902
606.334	906
606.543	902
606.751	900
606.96	899
607.168	919
607.376	872
607.585	866
607.793	895
608.001	885
608.21	927
608.418	940
608.626	932
608.834	935
609.043	923
609.251	893
609.459	917
609.667	934
609.875	949
610.083	979
610.291	964
610.499	922
610.707	946
610.916	971
611.124	980
611.332	990
611.54	999
611.748	1011
611.955	1007
612.163	983
612.371	954
612.579	952
612.787	939
612.995	929
613.203	949
613.411	942
613.618	942
613.826	923
614.034	926
614.242	950
614.449	934
614.657	957
614.865	943
615.072	933
615.28	960
615.488	962
615.695	946
615.903	939
616.111	928
616.318	955
616.526	954
616.733	983
616.941	962
617.148	950
617.356	922
617.563	922
617.771	889
617.978	834
618.185	894
618.393	925
618.6	950
618.807	944
619.015	933
619.222	888
619.429	859
619.637	780
619.844	730
620.051	753
620.258	827
620.466	843
620.673	847
620.88	859
621.087	807
621.294	784
621.501	767
621.708	731
621.915	817
622.122	822
622.329	854
622.536	852
622.743	856
622.95	859
623.157	854
623.364	843
623.571	867
623.778	887
623.985	852
624.192	835
624.399	841
624.606	821
624.812	785
625.019	774
625.226	765
625.433	716
625.639	653
625.846	636
626.053	556
626.259	506
626.466	527
626.673	515
626.879	546
627.086	592
627.293	663
627.499	702
627.706	757
627.912	768
628.119	808
628.325	785
628.532	761
628.738	738
628.945	726
629.151	727
629.357	657
629.564	696
629.77	725
629.976	658
630.183	632
630.389	652
630.595	687
630.802	704
631.008	706
631.214	677
631.42	652
631.627	638
631.833	622
632.039	637
632.245	669
632.451	675
632.657	660
632.863	638
633.069	660
633.275	622
633.481	619
633.688	599
633.893	647
634.099	618
634.305	593
634.511	572
634.717	562
634.923	522
635.129	523
635.335	543
635.541	556
635.747	558
635.952	616
636.158	602
636.364	648
636.57	650
636.775	653
636.981	658
637.187	637
637.392	654
637.598	663
637.804	675
638.009	656
638.215	617
638.421	612
638.626	603
638.832	628
639.037	608
639.243	604
639.448	584
639.654	594
639.859	586
640.065	603
640.27	603
640.475	570
640.681	580
640.886	595
641.091	616
641.297	626
641.502	612
641.707	619
641.913	602
642.118	606
642.323	609
642.528	624
642.733	590
642.939	602
643.144	561
643.349	584
643.554	569
643.759	579
643.964	572
644.169	561
644.374	578
644.579	575
644.784	574
644.989	602
645.194	587
645.399	585
645.604	601
645.809	606
646.014	576
646.219	600
646.423	569
646.628	578
646.833	597
647.038	580
647.243	578
647.447	578
647.652	575
647.857	578
648.062	602
648.266	570
648.471	592
648.676	583
648.88	589
649.085	598
649.289	609
649.494	598
649.698	640
649.903	619
650.107	564
650.312	547
650.516	529
650.721	557
650.925	523
651.13	499
651.334	504
651.539	488
651.743	484
651.947	493
652.152	486
652.356	470
652.56	462
652.764	447
652.969	455
653.173	434
653.377	431
653.581	418
653.785	430
653.99	436
654.194	406
654.398	397
654.602	402
654.806	399
655.01	422
655.214	417
655.418	383
655.622	379
655.826	388
656.03	376
656.234	374
656.438	376
656.642	379
656.846	366
657.049	332
657.253	311
657.457	312
657.661	307
657.865	294
658.068	267
658.272	242
658.476	234
658.68	234
658.883	231
659.087	216
659.291	207
659.494	195
659.698	204
659.901	186
660.105	191
660.309	187
660.512	169
660.716	168
660.919	159
661.123	147
661.326	131
661.53	135
661.733	135
661.936	140
662.14	135
662.343	128
662.546	120
662.75	114
662.953	105
663.156	105
663.36	108
663.563	104
663.766	101
663.969	102
664.173	98
664.376	91
664.579	93
664.782	95
664.985	98
665.188	93
665.391	106
665.594	84
665.797	101
666	87
666.203	94
666.406	96
666.609	82
666.812	78
667.015	92
667.218	103
667.421	93
667.624	82
667.827	82
668.03	79
668.232	103
668.435	89
668.638	96
668.841	96
669.043	75
669.246	89
669.449	90
669.651	104
669.854	97
670.057	82
670.259	86
670.462	86
670.665	83
670.867	86
671.07	84
671.272	97
671.475	89
671.677	82
671.88	78
672.082	84
672.284	97
672.487	87
672.689	64
672.892	90
