Data from FlinnAP9092KCOPPER.07152019.QSWITCHSynchronous.EN10.20scans.P1_HRD10591_14-49-29-574.txt Node
Date: Mon Jul 15 14:49:29 EDT 2019
User: cochatt
Spectrometer: HR+D1059
Trigger mode: 5
Integration Time (sec): 1.000000E-1
Scans to average: 1
Electric dark correction enabled: true
Nonlinearity correction enabled: false
Boxcar width: 0
XAxis mode: Wavelengths
Number of Pixels in Spectrum: 2048
>>>>>Begin Spectral Data<<<<<
223.165	-37
223.4	-37
223.635	-37
223.869	-41
224.104	-47
224.338	0
224.573	-12
224.808	-14
225.042	9
225.277	-15
225.511	4
225.746	27
225.98	2
226.215	21
226.449	13
226.683	24
226.918	20
227.152	46
227.387	49
227.621	45
227.856	65
228.09	46
228.324	42
228.559	90
228.793	108
229.027	190
229.262	215
229.496	228
229.73	286
229.964	377
230.199	269
230.433	229
230.667	229
230.901	211
231.136	197
231.37	201
231.604	196
231.838	205
232.072	211
232.306	213
232.541	199
232.775	197
233.009	220
233.243	200
233.477	213
233.711	230
233.945	204
234.179	215
234.413	241
234.647	225
234.881	227
235.115	225
235.349	233
235.583	230
235.817	223
236.051	234
236.285	261
236.519	259
236.753	266
236.987	289
237.221	396
237.455	561
237.689	417
237.922	301
238.156	273
238.39	253
238.624	255
238.858	256
239.091	247
239.325	249
239.559	253
239.793	268
240.027	299
240.26	297
240.494	375
240.728	351
240.961	321
241.195	329
241.429	303
241.662	272
241.896	252
242.13	276
242.363	284
242.597	279
242.83	293
243.064	284
243.298	305
243.531	299
243.765	293
243.998	297
244.232	296
244.465	303
244.699	282
244.932	317
245.166	301
245.399	319
245.633	318
245.866	297
246.099	308
246.333	309
246.566	327
246.8	304
247.033	313
247.266	334
247.5	341
247.733	369
247.966	371
248.2	351
248.433	360
248.666	385
248.899	420
249.133	474
249.366	523
249.599	453
249.832	400
250.066	392
250.299	373
250.532	389
250.765	432
250.998	482
251.231	526
251.465	477
251.698	428
251.931	418
252.164	409
252.397	421
252.63	445
252.863	451
253.096	473
253.329	548
253.562	517
253.795	490
254.028	484
254.261	470
254.494	485
254.727	622
254.96	705
255.193	638
255.426	546
255.659	513
255.892	513
256.124	449
256.357	449
256.59	433
256.823	429
257.056	451
257.289	420
257.521	458
257.754	450
257.987	445
258.22	467
258.452	438
258.685	462
258.918	449
259.151	462
259.383	521
259.616	501
259.849	516
260.081	555
260.314	611
260.547	627
260.779	550
261.012	529
261.244	505
261.477	500
261.71	499
261.942	504
262.175	547
262.407	525
262.64	480
262.872	473
263.105	470
263.337	502
263.57	478
263.802	495
264.035	481
264.267	470
264.499	478
264.732	503
264.964	485
265.197	487
265.429	492
265.661	490
265.894	489
266.126	500
266.358	477
266.591	492
266.823	521
267.055	525
267.287	549
267.52	501
267.752	517
267.984	515
268.216	521
268.448	548
268.681	546
268.913	579
269.145	644
269.377	678
269.609	637
269.841	643
270.073	641
270.306	693
270.538	771
270.77	774
271.002	708
271.234	676
271.466	749
271.698	743
271.93	771
272.162	759
272.394	791
272.626	703
272.858	655
273.09	654
273.322	636
273.553	596
273.785	604
274.017	582
274.249	633
274.481	591
274.713	602
274.945	646
275.176	607
275.408	607
275.64	622
275.872	582
276.104	614
276.335	627
276.567	656
276.799	678
277.031	751
277.262	805
277.494	817
277.726	750
277.957	665
278.189	637
278.421	641
278.652	635
278.884	647
279.115	627
279.347	622
279.579	625
279.81	641
280.042	635
280.273	631
280.505	646
280.736	646
280.968	646
281.199	615
281.431	632
281.662	647
281.894	657
282.125	680
282.356	710
282.588	727
282.819	753
283.051	684
283.282	649
283.513	693
283.745	668
283.976	673
284.207	675
284.439	694
284.67	699
284.901	708
285.132	668
285.364	652
285.595	665
285.826	660
286.057	675
286.288	699
286.52	679
286.751	686
286.982	686
287.213	674
287.444	723
287.675	719
287.906	726
288.138	746
288.369	746
288.6	744
288.831	728
289.062	728
289.293	712
289.524	707
289.755	703
289.986	700
290.217	711
290.448	686
290.679	725
290.91	713
291.141	686
291.371	701
291.602	691
291.833	709
292.064	672
292.295	666
292.526	716
292.757	707
292.987	685
293.218	706
293.449	695
293.68	721
293.91	695
294.141	710
294.372	694
294.603	703
294.833	705
295.064	698
295.295	725
295.525	695
295.756	727
295.987	738
296.217	802
296.448	806
296.679	753
296.909	736
297.14	730
297.37	766
297.601	725
297.831	730
298.062	768
298.292	765
298.523	776
298.753	756
298.984	750
299.214	761
299.445	775
299.675	747
299.905	769
300.136	727
300.366	739
300.597	770
300.827	782
301.057	798
301.288	806
301.518	786
301.748	799
301.979	795
302.209	799
302.439	798
302.669	787
302.9	802
303.13	797
303.36	813
303.59	796
303.82	808
304.051	814
304.281	812
304.511	792
304.741	781
304.971	784
305.201	813
305.431	793
305.661	769
305.891	744
306.121	809
306.352	798
306.582	803
306.812	790
307.042	823
307.272	777
307.502	771
307.731	776
307.961	766
308.191	735
308.421	773
308.651	788
308.881	802
309.111	801
309.341	783
309.571	828
309.8	820
310.03	864
310.26	867
310.49	881
310.72	893
310.949	949
311.179	978
311.409	895
311.639	884
311.868	895
312.098	918
312.328	930
312.557	942
312.787	979
313.017	996
313.246	938
313.476	873
313.706	856
313.935	897
314.165	945
314.394	970
314.624	994
314.853	915
315.083	932
315.312	895
315.542	865
315.771	849
316.001	837
316.23	856
316.46	828
316.689	869
316.919	894
317.148	891
317.377	933
317.607	900
317.836	879
318.065	873
318.295	868
318.524	826
318.753	837
318.983	847
319.212	864
319.441	894
319.67	892
319.9	881
320.129	844
320.358	858
320.587	878
320.816	870
321.046	908
321.275	903
321.504	896
321.733	893
321.962	888
322.191	936
322.42	942
322.649	1031
322.878	1033
323.108	1059
323.337	1080
323.566	1145
323.795	1155
324.024	1290
324.253	1562
324.482	2290
324.71	3805
324.939	6045
325.168	5179
325.397	2170
325.626	1371
325.855	1154
326.084	1070
326.313	1094
326.542	1084
326.77	1251
326.999	1457
327.228	2082
327.457	3452
327.686	4619
327.914	2695
328.143	1579
328.372	1379
328.6	1284
328.829	1270
329.058	1329
329.287	1427
329.515	1319
329.744	1152
329.972	1085
330.201	1083
330.43	1146
330.658	1292
330.887	1484
331.115	1507
331.344	1231
331.572	1139
331.801	1172
332.03	1168
332.258	1130
332.486	1069
332.715	1126
332.943	1129
333.172	1119
333.4	1195
333.629	1191
333.857	1230
334.085	1218
334.314	1186
334.542	1150
334.771	1148
334.999	1142
335.227	1120
335.455	1143
335.684	1123
335.912	1097
336.14	1066
336.369	1077
336.597	1109
336.825	1126
337.053	1074
337.281	1040
337.51	1031
337.738	1059
337.966	1014
338.194	1061
338.422	1060
338.65	1043
338.878	1033
339.106	998
339.334	1031
339.562	991
339.79	982
340.018	979
340.246	981
340.474	1038
340.702	1040
340.93	1006
341.158	986
341.386	966
341.614	995
341.842	973
342.07	981
342.298	983
342.526	965
342.754	921
342.981	949
343.209	959
343.437	988
343.665	1054
343.893	1049
344.12	1103
344.348	1089
344.576	1053
344.804	1043
345.031	1041
345.259	1093
345.487	1067
345.714	984
345.942	943
346.17	951
346.397	946
346.625	937
346.853	912
347.08	925
347.308	961
347.535	977
347.763	977
347.99	993
348.218	987
348.445	982
348.673	978
348.9	966
349.128	964
349.355	925
349.583	913
349.81	909
350.037	909
350.265	883
350.492	887
350.72	879
350.947	889
351.174	953
351.402	966
351.629	949
351.856	955
352.083	961
352.311	1003
352.538	986
352.765	1021
352.992	975
353.22	911
353.447	925
353.674	912
353.901	882
354.128	882
354.355	854
354.583	871
354.81	870
355.037	862
355.264	854
355.491	849
355.718	833
355.945	853
356.172	877
356.399	823
356.626	835
356.853	836
357.08	835
357.307	849
357.534	855
357.761	853
357.988	858
358.215	876
358.441	836
358.668	851
358.895	880
359.122	893
359.349	884
359.576	925
359.802	979
360.029	1115
360.256	1137
360.483	1081
360.709	936
360.936	981
361.163	934
361.39	956
361.616	945
361.843	920
362.07	945
362.296	948
362.523	920
362.749	927
362.976	912
363.203	935
363.429	879
363.656	878
363.882	884
364.109	903
364.335	906
364.562	893
364.788	865
365.015	931
365.241	891
365.468	896
365.694	911
365.92	900
366.147	870
366.373	862
366.599	880
366.826	857
367.052	872
367.278	873
367.505	853
367.731	902
367.957	858
368.184	895
368.41	896
368.636	917
368.862	985
369.089	922
369.315	846
369.541	885
369.767	883
369.993	882
370.219	884
370.445	906
370.672	887
370.898	878
371.124	886
371.35	899
371.576	918
371.802	881
372.028	860
372.254	860
372.48	887
372.706	919
372.932	929
373.158	912
373.384	943
373.61	949
373.835	921
374.061	893
374.287	954
374.513	968
374.739	973
374.965	990
375.191	969
375.416	991
375.642	959
375.868	978
376.094	962
376.319	910
376.545	925
376.771	902
376.997	949
377.222	914
377.448	930
377.674	891
377.899	904
378.125	890
378.35	906
378.576	905
378.802	895
379.027	922
379.253	953
379.478	903
379.704	881
379.929	936
380.155	905
380.38	931
380.606	922
380.831	937
381.057	975
381.282	931
381.507	953
381.733	977
381.958	953
382.184	934
382.409	967
382.634	962
382.86	1018
383.085	989
383.31	996
383.535	1021
383.761	1042
383.986	1034
384.211	1025
384.436	1027
384.662	1055
384.887	1071
385.112	1056
385.337	1094
385.562	1101
385.787	1094
386.013	1162
386.238	1118
386.463	1131
386.688	1105
386.913	1091
387.138	1070
387.363	1091
387.588	1109
387.813	1091
388.038	1097
388.263	1074
388.488	1115
388.713	1118
388.938	1098
389.163	1118
389.387	1109
389.612	1065
389.837	1055
390.062	1078
390.287	1106
390.512	1074
390.736	1068
390.961	1110
391.186	1111
391.411	1139
391.636	1140
391.86	1169
392.085	1198
392.31	1215
392.534	1201
392.759	1195
392.984	1171
393.208	1151
393.433	1132
393.658	1146
393.882	1132
394.107	1173
394.331	1146
394.556	1179
394.78	1141
395.005	1161
395.229	1193
395.454	1214
395.678	1193
395.903	1240
396.127	1303
396.352	1248
396.576	1167
396.801	1162
397.025	1172
397.249	1187
397.474	1247
397.698	1243
397.922	1246
398.147	1305
398.371	1286
398.595	1333
398.82	1321
399.044	1411
399.268	1511
399.492	1653
399.717	1825
399.941	1882
400.165	1851
400.389	1810
400.613	1585
400.837	1429
401.062	1420
401.286	1388
401.51	1394
401.734	1363
401.958	1393
402.182	1401
402.406	1446
402.63	1477
402.854	1472
403.078	1469
403.302	1506
403.526	1508
403.75	1583
403.974	1560
404.198	1555
404.422	1596
404.645	1575
404.869	1541
405.093	1617
405.317	1593
405.541	1652
405.765	1587
405.988	1553
406.212	1570
406.436	1609
406.66	1683
406.883	1623
407.107	1743
407.331	1851
407.555	2047
407.778	2018
408.002	1837
408.226	1676
408.449	1643
408.673	1607
408.896	1708
409.12	1768
409.344	1700
409.567	1567
409.791	1561
410.014	1518
410.238	1499
410.461	1493
410.685	1499
410.908	1514
411.132	1666
411.355	1730
411.578	1625
411.802	1477
412.025	1466
412.249	1454
412.472	1444
412.695	1440
412.919	1390
413.142	1408
413.365	1385
413.589	1433
413.812	1431
414.035	1413
414.258	1378
414.482	1352
414.705	1401
414.928	1417
415.151	1381
415.374	1439
415.597	1373
415.821	1393
416.044	1417
416.267	1442
416.49	1409
416.713	1395
416.936	1413
417.159	1431
417.382	1425
417.605	1443
417.828	1521
418.051	1522
418.274	1550
418.497	1414
418.72	1445
418.943	1452
419.166	1537
419.389	1676
419.611	1574
419.834	1584
420.057	1577
420.28	1526
420.503	1486
420.726	1483
420.948	1541
421.171	1661
421.394	1756
421.617	1546
421.839	1567
422.062	1524
422.285	1541
422.507	1681
422.73	1905
422.953	1826
423.175	1623
423.398	1575
423.621	1622
423.843	1719
424.066	1739
424.288	1690
424.511	1713
424.733	1880
424.956	2104
425.178	2028
425.401	1985
425.623	1996
425.846	1695
426.068	1593
426.291	1583
426.513	1546
426.735	1581
426.958	1719
427.18	1931
427.402	2321
427.625	2515
427.847	2068
428.069	1739
428.292	1585
428.514	1483
428.736	1460
428.958	1453
429.181	1437
429.403	1436
429.625	1459
429.847	1541
430.069	1742
430.292	1699
430.514	1461
430.736	1457
430.958	1453
431.18	1366
431.402	1353
431.624	1297
431.846	1271
432.068	1211
432.29	1257
432.512	1337
432.734	1418
432.956	1448
433.178	1490
433.4	1510
433.622	1445
433.844	1404
434.066	1348
434.287	1273
434.509	1266
434.731	1326
434.953	1452
435.175	1541
435.397	1660
435.618	1551
435.84	1654
436.062	2009
436.284	2165
436.505	1769
436.727	1619
436.949	1526
437.17	1477
437.392	1427
437.614	1457
437.835	1443
438.057	1714
438.278	2010
438.5	2010
438.721	2332
438.943	2254
439.165	1768
439.386	1683
439.608	1723
439.829	1715
440.05	1840
440.272	2034
440.493	1818
440.715	1659
440.936	1589
441.158	1610
441.379	1582
441.6	1699
441.822	1757
442.043	1822
442.264	2075
442.486	2226
442.707	1836
442.928	1775
443.149	1825
443.371	1934
443.592	1975
443.813	2243
444.034	2441
444.255	1989
444.476	1788
444.698	1778
444.919	1856
445.14	3424
445.361	2478
445.582	1987
445.803	2177
446.024	2477
446.245	2489
446.466	2174
446.687	1861
446.908	1760
447.129	1646
447.35	1563
447.571	1564
447.792	1531
448.013	1506
448.234	1577
448.455	1692
448.675	2005
448.896	2332
449.117	1915
449.338	1765
449.559	2153
449.779	2475
450	1894
450.221	1605
450.442	1493
450.662	1463
450.883	1460
451.104	1533
451.324	1463
451.545	1396
451.766	1377
451.986	1287
452.207	1319
452.428	1260
452.648	1308
452.869	1283
453.089	1306
453.31	1291
453.53	1235
453.751	1168
453.971	1191
454.192	1208
454.412	1217
454.633	1217
454.853	1230
455.073	1203
455.294	1335
455.514	1557
455.734	1443
455.955	1242
456.175	1162
456.395	1120
456.616	1103
456.836	1101
457.056	1091
457.276	1062
457.497	1083
457.717	1095
457.937	1114
458.157	1119
458.377	1127
458.598	1201
458.818	1333
459.038	1615
459.258	1680
459.478	1346
459.698	1234
459.918	1259
460.138	1306
460.358	1371
460.578	1420
460.798	1405
461.018	1452
461.238	1411
461.458	1385
461.678	1365
461.898	1400
462.118	1417
462.338	1475
462.558	1489
462.777	1516
462.997	1583
463.217	1661
463.437	1681
463.657	1581
463.876	1494
464.096	1526
464.316	1481
464.536	1558
464.755	1573
464.975	1515
465.195	1693
465.414	1826
465.634	1569
465.854	1435
466.073	1373
466.293	1319
466.512	1344
466.732	1349
466.951	1343
467.171	1301
467.391	1367
467.61	1421
467.829	1423
468.049	1380
468.268	1336
468.488	1329
468.707	1313
468.927	1349
469.146	1321
469.365	1349
469.585	1396
469.804	1431
470.023	1461
470.243	1460
470.462	1486
470.681	1539
470.901	1513
471.12	1425
471.339	1453
471.558	1455
471.777	1428
471.997	1333
472.216	1288
472.435	1198
472.654	1123
472.873	1157
473.092	1176
473.311	1235
473.53	1259
473.749	1292
473.968	1425
474.187	1699
474.406	1719
474.625	1425
474.844	1332
475.063	1293
475.282	1270
475.501	1223
475.72	1303
475.939	1278
476.158	1316
476.377	1310
476.596	1243
476.814	1269
477.033	1234
477.252	1299
477.471	1330
477.69	1436
477.908	1445
478.127	1530
478.346	1527
478.564	1491
478.783	1514
479.002	1582
479.22	1573
479.439	1595
479.658	1595
479.876	1488
480.095	1487
480.313	1634
480.532	1614
480.751	1587
480.969	1481
481.188	1416
481.406	1372
481.624	1327
481.843	1275
482.061	1283
482.28	1377
482.498	1330
482.717	1351
482.935	1427
483.153	1537
483.372	1572
483.59	1573
483.808	1468
484.027	1430
484.245	1444
484.463	1507
484.681	1636
484.9	1516
485.118	1552
485.336	1551
485.554	1451
485.772	1409
485.99	1415
486.209	1486
486.427	1477
486.645	1518
486.863	1734
487.081	1692
487.299	1635
487.517	1665
487.735	1812
487.953	1932
488.171	1915
488.389	1821
488.607	1729
488.825	1619
489.043	1528
489.261	1635
489.479	1641
489.696	1665
489.914	1702
490.132	1749
490.35	1775
490.568	1887
490.786	1989
491.003	2059
491.221	2130
491.439	2178
491.657	2206
491.874	2370
492.092	2452
492.31	2481
492.527	2431
492.745	2351
492.963	2266
493.18	2276
493.398	2228
493.615	2255
493.833	2200
494.05	2175
494.268	2213
494.485	2198
494.703	2198
494.92	2191
495.138	2171
495.355	2173
495.573	2216
495.79	2142
496.008	2151
496.225	2147
496.442	2097
496.66	2091
496.877	2052
497.094	2137
497.312	2101
497.529	2110
497.746	2068
497.963	2070
498.181	2046
498.398	2052
498.615	2105
498.832	2113
499.049	2181
499.267	2359
499.484	2533
499.701	2676
499.918	2924
500.135	3137
500.352	3491
500.569	3477
500.786	3519
501.003	3355
501.22	3171
501.437	2986
501.654	2788
501.871	2679
502.088	2525
502.305	2345
502.522	2249
502.739	2173
502.956	2066
503.172	1963
503.389	1903
503.606	1886
503.823	1939
504.04	1889
504.256	1877
504.473	1829
504.69	1858
504.907	1901
505.123	1778
505.34	1777
505.557	1714
505.773	1697
505.99	1722
506.207	1715
506.423	1678
506.64	1654
506.856	1619
507.073	1637
507.289	1593
507.506	1601
507.722	1639
507.939	1637
508.155	1631
508.372	1539
508.588	1495
508.805	1468
509.021	1475
509.238	1560
509.454	1559
509.67	1470
509.887	1421
510.103	1421
510.319	1432
510.536	1643
510.752	2688
510.968	1981
511.184	1349
511.401	1304
511.617	1310
511.833	1274
512.049	1262
512.265	1291
512.481	1286
512.698	1282
512.914	1310
513.13	1337
513.346	1271
513.562	1287
513.778	1299
513.994	1335
514.21	1324
514.426	1405
514.642	1511
514.858	1569
515.074	1627
515.29	2084
515.506	3191
515.721	2388
515.937	1686
516.153	1464
516.369	1395
516.585	1460
516.801	1401
517.016	1454
517.232	1499
517.448	1573
517.664	1567
517.879	1609
518.095	1615
518.311	1524
518.527	1529
518.742	1504
518.958	1474
519.173	1469
519.389	1473
519.605	1440
519.82	1433
520.036	1503
520.251	1512
520.467	1565
520.682	1493
520.898	1452
521.113	1511
521.329	1645
521.544	1852
521.76	2476
521.975	4365
522.19	3812
522.406	2011
522.621	1521
522.836	1378
523.052	1327
523.267	1326
523.482	1302
523.698	1298
523.913	1333
524.128	1365
524.343	1297
524.559	1307
524.774	1316
524.989	1306
525.204	1291
525.419	1281
525.634	1226
525.849	1189
526.064	1171
526.28	1137
526.495	1090
526.71	1100
526.925	1027
527.14	1029
527.355	1034
527.57	1038
527.785	1049
527.999	1078
528.214	1118
528.429	1146
528.644	1241
528.859	1319
529.074	1378
529.289	1518
529.503	1743
529.718	1559
529.933	1294
530.148	1156
530.363	1130
530.577	1048
530.792	994
531.007	1005
531.221	1012
531.436	995
531.651	1028
531.865	1045
532.08	1014
532.295	1043
532.509	1044
532.724	1025
532.938	1070
533.153	1079
533.367	1151
533.582	1234
533.796	1184
534.011	1141
534.225	1083
534.44	1067
534.654	1037
534.868	1060
535.083	1070
535.297	1104
535.511	1134
535.726	1125
535.94	1122
536.154	1060
536.369	1025
536.583	965
536.797	1015
537.011	966
537.225	1019
537.44	977
537.654	1039
537.868	996
538.082	1023
538.296	1042
538.51	1071
538.724	1177
538.938	1189
539.153	1266
539.367	1259
539.581	1158
539.795	1085
540.009	1077
540.222	1069
540.436	1133
540.65	1209
540.864	1323
541.078	1450
541.292	1499
541.506	1557
541.72	1723
541.934	1809
542.147	1941
542.361	1823
542.575	1691
542.789	1626
543.002	1457
543.216	1486
543.43	1443
543.644	1530
543.857	1632
544.071	1708
544.285	1766
544.498	1749
544.712	1771
544.925	1753
545.139	1745
545.352	1751
545.566	1763
545.779	1736
545.993	1815
546.206	2011
546.42	2056
546.633	1812
546.847	1725
547.06	1669
547.274	1749
547.487	1781
547.7	1757
547.914	1712
548.127	1670
548.34	1642
548.554	1636
548.767	1654
548.98	1630
549.193	1659
549.407	1646
549.62	1669
549.833	1658
550.046	1606
550.259	1609
550.473	1573
550.686	1590
550.899	1546
551.112	1530
551.325	1445
551.538	1365
551.751	1231
551.964	1228
552.177	1356
552.39	1460
552.603	1548
552.816	1599
553.029	1604
553.242	1719
553.455	1708
553.667	1790
553.88	1714
554.093	1673
554.306	1643
554.519	1607
554.732	1542
554.944	1521
555.157	1500
555.37	1459
555.583	1451
555.795	1401
556.008	1317
556.221	1273
556.433	1338
556.646	1323
556.859	1289
557.071	1339
557.284	1310
557.496	1368
557.709	1352
557.921	1344
558.134	1309
558.346	1323
558.559	1336
558.771	1293
558.984	1239
559.196	1221
559.409	1211
559.621	1206
559.833	1175
560.046	1156
560.258	1221
560.47	1258
560.683	1213
560.895	1199
561.107	1219
561.32	1206
561.532	1210
561.744	1269
561.956	1251
562.168	1235
562.381	1227
562.593	1189
562.805	1226
563.017	1217
563.229	1197
563.441	1186
563.653	1189
563.865	1166
564.077	1163
564.289	1192
564.501	1218
564.713	1192
564.925	1179
565.137	1203
565.349	1218
565.561	1250
565.773	1240
565.985	1287
566.197	1310
566.408	1366
566.62	1446
566.832	1483
567.044	1527
567.255	1521
567.467	1484
567.679	1517
567.891	1567
568.102	1524
568.314	1424
568.526	1344
568.737	1197
568.949	1083
569.161	988
569.372	920
569.584	907
569.795	915
570.007	885
570.218	951
570.43	930
570.641	909
570.853	931
571.064	972
571.276	963
571.487	978
571.698	963
571.91	968
572.121	905
572.333	888
572.544	841
572.755	814
572.966	789
573.178	730
573.389	746
573.6	736
573.811	725
574.023	708
574.234	735
574.445	733
574.656	747
574.867	782
575.078	791
575.289	775
575.501	787
575.712	742
575.923	725
576.134	767
576.345	758
576.556	812
576.767	809
576.978	828
577.188	855
577.399	762
577.61	722
577.821	761
578.032	733
578.243	828
578.454	1203
578.665	882
578.875	680
579.086	683
579.297	690
579.508	683
579.718	684
579.929	664
580.14	676
580.35	669
580.561	713
580.772	699
580.982	713
581.193	686
581.403	699
581.614	701
581.825	716
582.035	685
582.246	715
582.456	701
582.667	702
582.877	699
583.087	670
583.298	698
583.508	700
583.719	676
583.929	709
584.139	681
584.35	671
584.56	679
584.77	671
584.981	662
585.191	674
585.401	668
585.611	686
585.821	653
586.032	651
586.242	627
586.452	635
586.662	635
586.872	625
587.082	634
587.292	659
587.502	689
587.713	686
587.923	695
588.133	667
588.343	646
588.553	650
588.762	661
588.972	633
589.182	651
589.392	627
589.602	635
589.812	602
590.022	670
590.232	616
590.441	639
590.651	647
590.861	625
591.071	635
591.281	655
591.49	627
591.7	640
591.91	683
592.119	640
592.329	683
592.539	771
592.748	750
592.958	781
593.167	745
593.377	777
593.587	844
593.796	773
594.006	732
594.215	789
594.424	804
594.634	791
594.843	784
595.053	753
595.262	777
595.472	731
595.681	676
595.89	656
596.1	666
596.309	686
596.518	691
596.727	718
596.937	684
597.146	689
597.355	659
597.564	639
597.774	609
597.983	593
598.192	591
598.401	585
598.61	585
598.819	604
599.028	622
599.237	617
599.446	613
599.655	624
599.864	631
600.073	610
600.282	645
600.491	659
600.7	631
600.909	620
601.118	686
601.327	758
601.536	761
601.745	813
601.953	814
602.162	824
602.371	823
602.58	806
602.789	846
602.997	837
603.206	858
603.415	823
603.623	799
603.832	835
604.041	788
604.249	713
604.458	693
604.666	616
604.875	651
605.084	695
605.292	759
605.501	833
605.709	890
605.918	871
606.126	923
606.334	887
606.543	900
606.751	887
606.96	891
607.168	903
607.376	863
607.585	882
607.793	868
608.001	877
608.21	915
608.418	885
608.626	902
608.834	919
609.043	930
609.251	932
609.459	916
609.667	985
609.875	973
610.083	1011
610.291	975
610.499	976
610.707	1041
610.916	1089
611.124	1191
611.332	1289
611.54	1423
611.748	1369
611.955	1245
612.163	1169
612.371	1078
612.579	1033
612.787	1013
612.995	1042
613.203	1074
613.411	1030
613.618	962
613.826	975
614.034	968
614.242	991
614.449	980
614.657	995
614.865	998
615.072	1001
615.28	969
615.488	962
615.695	1002
615.903	953
616.111	948
616.318	994
616.526	924
616.733	993
616.941	939
617.148	963
617.356	934
617.563	883
617.771	893
617.978	857
618.185	897
618.393	903
618.6	907
618.807	928
619.015	927
619.222	891
619.429	854
619.637	816
619.844	757
620.051	787
620.258	834
620.466	843
620.673	850
620.88	821
621.087	826
621.294	803
621.501	750
621.708	765
621.915	832
622.122	862
622.329	871
622.536	878
622.743	853
622.95	860
623.157	841
623.364	857
623.571	870
623.778	859
623.985	865
624.192	837
624.399	825
624.606	862
624.812	791
625.019	759
625.226	738
625.433	758
625.639	685
625.846	633
626.053	596
626.259	561
626.466	552
626.673	531
626.879	545
627.086	627
627.293	669
627.499	724
627.706	738
627.912	798
628.119	791
628.325	798
628.532	771
628.738	731
628.945	712
629.151	710
629.357	704
629.564	693
629.77	725
629.976	674
630.183	635
630.389	627
630.595	677
630.802	710
631.008	732
631.214	727
631.42	707
631.627	701
631.833	635
632.039	648
632.245	646
632.451	660
632.657	666
632.863	645
633.069	641
633.275	659
633.481	590
633.688	616
633.893	645
634.099	607
634.305	619
634.511	592
634.717	584
634.923	523
635.129	495
635.335	550
635.541	545
635.747	554
635.952	585
636.158	641
636.364	678
636.57	635
636.775	656
636.981	641
637.187	648
637.392	653
637.598	641
637.804	631
638.009	632
638.215	619
638.421	625
638.626	619
638.832	653
639.037	603
639.243	603
639.448	570
639.654	606
639.859	589
640.065	576
640.27	642
640.475	592
640.681	583
640.886	600
641.091	600
641.297	640
641.502	597
641.707	613
641.913	619
642.118	612
642.323	606
642.528	643
642.733	644
642.939	618
643.144	585
643.349	568
643.554	602
643.759	594
643.964	581
644.169	597
644.374	572
644.579	579
644.784	577
644.989	585
645.194	579
645.399	615
645.604	554
645.809	585
646.014	566
646.219	577
646.423	591
646.628	578
646.833	610
647.038	596
647.243	627
647.447	595
647.652	595
647.857	574
648.062	597
648.266	604
648.471	592
648.676	603
648.88	580
649.085	579
649.289	568
649.494	589
649.698	646
649.903	615
650.107	555
650.312	563
650.516	548
650.721	531
650.925	537
651.13	507
651.334	504
651.539	497
651.743	488
651.947	503
652.152	500
652.356	474
652.56	462
652.764	431
652.969	456
653.173	445
653.377	437
653.581	450
653.785	449
653.99	422
654.194	412
654.398	426
654.602	390
654.806	411
655.01	441
655.214	418
655.418	379
655.622	390
655.826	386
656.03	369
656.234	373
656.438	380
656.642	398
656.846	382
657.049	355
657.253	342
657.457	320
657.661	310
657.865	309
658.068	297
658.272	275
658.476	265
658.68	256
658.883	221
659.087	243
659.291	234
659.494	231
659.698	197
659.901	211
660.105	202
660.309	193
660.512	180
660.716	186
660.919	173
661.123	203
661.326	166
661.53	174
661.733	175
661.936	176
662.14	138
662.343	146
662.546	145
662.75	148
662.953	142
663.156	128
663.36	125
663.563	140
663.766	108
663.969	135
664.173	130
664.376	118
664.579	132
664.782	119
664.985	127
665.188	126
665.391	119
665.594	105
665.797	126
666	116
666.203	116
666.406	103
666.609	113
666.812	123
667.015	130
667.218	120
667.421	113
667.624	102
667.827	126
668.03	118
668.232	98
668.435	136
668.638	102
668.841	141
669.043	116
669.246	133
669.449	118
669.651	125
669.854	123
670.057	115
670.259	106
670.462	123
670.665	113
670.867	115
671.07	119
671.272	132
671.475	148
671.677	132
671.88	124
672.082	116
672.284	134
672.487	135
672.689	121
672.892	117
