Data from FlinnAP9092KCOPPER.07152019.QSWITCHSynchronous.EN10.20scans.P1_HRD10591_14-49-28-574.txt Node
Date: Mon Jul 15 14:49:28 EDT 2019
User: cochatt
Spectrometer: HR+D1059
Trigger mode: 5
Integration Time (sec): 1.000000E-1
Scans to average: 1
Electric dark correction enabled: true
Nonlinearity correction enabled: false
Boxcar width: 0
XAxis mode: Wavelengths
Number of Pixels in Spectrum: 2048
>>>>>Begin Spectral Data<<<<<
223.165	-42
223.4	-42
223.635	-42
223.869	-27
224.104	-47
224.338	5
224.573	0
224.808	-14
225.042	15
225.277	3
225.511	0
225.746	30
225.98	-1
226.215	1
226.449	9
226.683	16
226.918	12
227.152	40
227.387	37
227.621	35
227.856	69
228.09	36
228.324	50
228.559	81
228.793	93
229.027	199
229.262	206
229.496	215
229.73	287
229.964	362
230.199	257
230.433	232
230.667	245
230.901	207
231.136	200
231.37	191
231.604	199
231.838	191
232.072	201
232.306	210
232.541	204
232.775	216
233.009	189
233.243	192
233.477	213
233.711	206
233.945	220
234.179	217
234.413	236
234.647	215
234.881	221
235.115	225
235.349	202
235.583	221
235.817	223
236.051	242
236.285	245
236.519	233
236.753	244
236.987	295
237.221	382
237.455	541
237.689	413
237.922	299
238.156	251
238.39	243
238.624	241
238.858	246
239.091	243
239.325	237
239.559	251
239.793	266
240.027	277
240.26	304
240.494	367
240.728	323
240.961	314
241.195	308
241.429	299
241.662	284
241.896	248
242.13	263
242.363	258
242.597	275
242.83	291
243.064	293
243.298	289
243.531	264
243.765	291
243.998	299
244.232	275
244.465	298
244.699	286
244.932	306
245.166	303
245.399	323
245.633	319
245.866	293
246.099	297
246.333	313
246.566	284
246.8	293
247.033	322
247.266	311
247.5	337
247.733	349
247.966	375
248.2	363
248.433	355
248.666	359
248.899	386
249.133	451
249.366	479
249.599	443
249.832	393
250.066	400
250.299	369
250.532	397
250.765	421
250.998	465
251.231	504
251.465	463
251.698	417
251.931	418
252.164	422
252.397	398
252.63	427
252.863	442
253.096	452
253.329	532
253.562	517
253.795	494
254.028	471
254.261	463
254.494	473
254.727	578
254.96	680
255.193	628
255.426	523
255.659	452
255.892	479
256.124	447
256.357	451
256.59	436
256.823	419
257.056	434
257.289	440
257.521	443
257.754	416
257.987	470
258.22	453
258.452	436
258.685	439
258.918	435
259.151	430
259.383	497
259.616	477
259.849	490
260.081	529
260.314	587
260.547	594
260.779	529
261.012	492
261.244	479
261.477	516
261.71	475
261.942	480
262.175	521
262.407	540
262.64	483
262.872	489
263.105	456
263.337	505
263.57	489
263.802	467
264.035	468
264.267	464
264.499	454
264.732	492
264.964	504
265.197	479
265.429	465
265.661	485
265.894	460
266.126	479
266.358	495
266.591	489
266.823	522
267.055	519
267.287	505
267.52	499
267.752	516
267.984	514
268.216	503
268.448	556
268.681	545
268.913	565
269.145	621
269.377	676
269.609	615
269.841	605
270.073	608
270.306	691
270.538	781
270.77	747
271.002	691
271.234	679
271.466	679
271.698	720
271.93	746
272.162	758
272.394	762
272.626	667
272.858	653
273.09	636
273.322	599
273.553	596
273.785	593
274.017	581
274.249	626
274.481	588
274.713	588
274.945	613
275.176	589
275.408	613
275.64	617
275.872	590
276.104	621
276.335	621
276.567	638
276.799	626
277.031	720
277.262	776
277.494	800
277.726	700
277.957	675
278.189	631
278.421	643
278.652	607
278.884	626
279.115	641
279.347	623
279.579	617
279.81	595
280.042	620
280.273	619
280.505	597
280.736	604
280.968	619
281.199	641
281.431	639
281.662	643
281.894	640
282.125	616
282.356	688
282.588	726
282.819	748
283.051	672
283.282	623
283.513	666
283.745	679
283.976	656
284.207	675
284.439	675
284.67	681
284.901	631
285.132	643
285.364	650
285.595	667
285.826	631
286.057	701
286.288	657
286.52	664
286.751	672
286.982	660
287.213	668
287.444	679
287.675	677
287.906	733
288.138	719
288.369	723
288.6	724
288.831	724
289.062	727
289.293	697
289.524	679
289.755	683
289.986	689
290.217	698
290.448	670
290.679	668
290.91	709
291.141	669
291.371	708
291.602	689
291.833	690
292.064	692
292.295	681
292.526	708
292.757	684
292.987	669
293.218	697
293.449	715
293.68	719
293.91	695
294.141	684
294.372	703
294.603	691
294.833	713
295.064	707
295.295	707
295.525	687
295.756	723
295.987	721
296.217	777
296.448	783
296.679	751
296.909	709
297.14	721
297.37	763
297.601	717
297.831	733
298.062	739
298.292	767
298.523	785
298.753	772
298.984	754
299.214	746
299.445	777
299.675	741
299.905	751
300.136	740
300.366	728
300.597	769
300.827	793
301.057	777
301.288	774
301.518	769
301.748	792
301.979	779
302.209	812
302.439	804
302.669	795
302.9	769
303.13	765
303.36	772
303.59	804
303.82	790
304.051	811
304.281	801
304.511	825
304.741	787
304.971	767
305.201	773
305.431	792
305.661	782
305.891	759
306.121	786
306.352	780
306.582	787
306.812	764
307.042	760
307.272	771
307.502	758
307.731	795
307.961	772
308.191	759
308.421	745
308.651	755
308.881	769
309.111	771
309.341	782
309.571	773
309.8	855
310.03	842
310.26	851
310.49	852
310.72	892
310.949	939
311.179	950
311.409	869
311.639	839
311.868	874
312.098	885
312.328	868
312.557	919
312.787	968
313.017	973
313.246	923
313.476	859
313.706	868
313.935	876
314.165	907
314.394	925
314.624	924
314.853	912
315.083	885
315.312	870
315.542	837
315.771	851
316.001	863
316.23	857
316.46	821
316.689	846
316.919	871
317.148	913
317.377	917
317.607	892
317.836	880
318.065	866
318.295	838
318.524	836
318.753	843
318.983	827
319.212	872
319.441	868
319.67	871
319.9	832
320.129	851
320.358	870
320.587	856
320.816	868
321.046	859
321.275	904
321.504	855
321.733	862
321.962	895
322.191	897
322.42	941
322.649	979
322.878	1021
323.108	1019
323.337	1039
323.566	1074
323.795	1148
324.024	1253
324.253	1480
324.482	2209
324.71	3778
324.939	5948
325.168	5109
325.397	2033
325.626	1332
325.855	1145
326.084	1069
326.313	1083
326.542	1055
326.77	1231
326.999	1441
327.228	2041
327.457	3440
327.686	4481
327.914	2626
328.143	1521
328.372	1324
328.6	1291
328.829	1223
329.058	1295
329.287	1360
329.515	1235
329.744	1128
329.972	1068
330.201	1083
330.43	1137
330.658	1249
330.887	1444
331.115	1465
331.344	1199
331.572	1163
331.801	1124
332.03	1144
332.258	1124
332.486	1069
332.715	1066
332.943	1077
333.172	1099
333.4	1119
333.629	1186
333.857	1165
334.085	1174
334.314	1143
334.542	1140
334.771	1124
334.999	1093
335.227	1115
335.455	1113
335.684	1112
335.912	1090
336.14	1066
336.369	1043
336.597	1074
336.825	1100
337.053	1065
337.281	1027
337.51	1003
337.738	1036
337.966	1003
338.194	1032
338.422	1047
338.65	994
338.878	1007
339.106	971
339.334	1011
339.562	959
339.79	982
340.018	953
340.246	987
340.474	982
340.702	972
340.93	951
341.158	953
341.386	973
341.614	984
341.842	957
342.07	960
342.298	995
342.526	937
342.754	877
342.981	893
343.209	897
343.437	1000
343.665	987
343.893	1061
344.12	1109
344.348	1061
344.576	1024
344.804	1005
345.031	1029
345.259	1048
345.487	1013
345.714	993
345.942	939
346.17	950
346.397	931
346.625	915
346.853	894
347.08	888
347.308	937
347.535	935
347.763	963
347.99	974
348.218	960
348.445	969
348.673	974
348.9	920
349.128	952
349.355	874
349.583	891
349.81	871
350.037	881
350.265	910
350.492	869
350.72	846
350.947	898
351.174	920
351.402	939
351.629	932
351.856	895
352.083	899
352.311	941
352.538	968
352.765	947
352.992	941
353.22	917
353.447	923
353.674	904
353.901	887
354.128	874
354.355	844
354.583	868
354.81	855
355.037	861
355.264	853
355.491	833
355.718	819
355.945	829
356.172	839
356.399	867
356.626	833
356.853	851
357.08	856
357.307	856
357.534	822
357.761	842
357.988	855
358.215	863
358.441	822
358.668	861
358.895	859
359.122	857
359.349	867
359.576	925
359.802	936
360.029	1047
360.256	1120
360.483	1039
360.709	938
360.936	977
361.163	919
361.39	945
361.616	903
361.843	892
362.07	869
362.296	923
362.523	907
362.749	881
362.976	911
363.203	909
363.429	888
363.656	859
363.882	853
364.109	889
364.335	867
364.562	879
364.788	856
365.015	870
365.241	852
365.468	872
365.694	862
365.92	895
366.147	890
366.373	844
366.599	846
366.826	856
367.052	864
367.278	839
367.505	867
367.731	884
367.957	858
368.184	882
368.41	899
368.636	935
368.862	940
369.089	918
369.315	839
369.541	904
369.767	909
369.993	879
370.219	889
370.445	869
370.672	865
370.898	892
371.124	897
371.35	895
371.576	883
371.802	871
372.028	872
372.254	893
372.48	911
372.706	897
372.932	907
373.158	923
373.384	955
373.61	936
373.835	925
374.061	887
374.287	923
374.513	941
374.739	938
374.965	944
375.191	945
375.416	975
375.642	943
375.868	983
376.094	923
376.319	909
376.545	929
376.771	937
376.997	905
377.222	894
377.448	908
377.674	919
377.899	917
378.125	892
378.35	916
378.576	901
378.802	887
379.027	901
379.253	896
379.478	873
379.704	897
379.929	883
380.155	944
380.38	923
380.606	936
380.831	930
381.057	983
381.282	930
381.507	938
381.733	951
381.958	925
382.184	932
382.409	930
382.634	962
382.86	955
383.085	965
383.31	992
383.535	1043
383.761	987
383.986	1013
384.211	1033
384.436	1041
384.662	1049
384.887	1048
385.112	1012
385.337	1091
385.562	1067
385.787	1052
386.013	1169
386.238	1124
386.463	1109
386.688	1077
386.913	1047
387.138	1049
387.363	1097
387.588	1088
387.813	1075
388.038	1080
388.263	1061
388.488	1049
388.713	1115
388.938	1105
389.163	1064
389.387	1098
389.612	1063
389.837	1064
390.062	1119
390.287	1091
390.512	1059
390.736	1073
390.961	1085
391.186	1105
391.411	1136
391.636	1157
391.86	1127
392.085	1171
392.31	1213
392.534	1175
392.759	1153
392.984	1116
393.208	1111
393.433	1116
393.658	1121
393.882	1082
394.107	1125
394.331	1141
394.556	1153
394.78	1157
395.005	1176
395.229	1155
395.454	1198
395.678	1181
395.903	1208
396.127	1258
396.352	1225
396.576	1181
396.801	1159
397.025	1171
397.249	1187
397.474	1235
397.698	1206
397.922	1273
398.147	1269
398.371	1305
398.595	1300
398.82	1297
399.044	1395
399.268	1495
399.492	1701
399.717	1825
399.941	1876
400.165	1825
400.389	1767
400.613	1588
400.837	1432
401.062	1412
401.286	1370
401.51	1365
401.734	1372
401.958	1363
402.182	1417
402.406	1453
402.63	1486
402.854	1445
403.078	1446
403.302	1478
403.526	1522
403.75	1519
403.974	1515
404.198	1517
404.422	1570
404.645	1553
404.869	1514
405.093	1563
405.317	1581
405.541	1632
405.765	1547
405.988	1549
406.212	1586
406.436	1643
406.66	1692
406.883	1651
407.107	1669
407.331	1800
407.555	2031
407.778	2007
408.002	1830
408.226	1673
408.449	1646
408.673	1595
408.896	1663
409.12	1750
409.344	1675
409.567	1521
409.791	1555
410.014	1519
410.238	1472
410.461	1483
410.685	1496
410.908	1521
411.132	1640
411.355	1667
411.578	1625
411.802	1466
412.025	1435
412.249	1461
412.472	1438
412.695	1429
412.919	1422
413.142	1411
413.365	1396
413.589	1410
413.812	1407
414.035	1421
414.258	1410
414.482	1375
414.705	1393
414.928	1403
415.151	1399
415.374	1373
415.597	1411
415.821	1383
416.044	1402
416.267	1444
416.49	1391
416.713	1389
416.936	1373
417.159	1391
417.382	1388
417.605	1431
417.828	1496
418.051	1525
418.274	1465
418.497	1440
418.72	1460
418.943	1441
419.166	1517
419.389	1611
419.611	1575
419.834	1562
420.057	1559
420.28	1514
420.503	1447
420.726	1480
420.948	1512
421.171	1629
421.394	1753
421.617	1554
421.839	1497
422.062	1484
422.285	1527
422.507	1695
422.73	1896
422.953	1754
423.175	1589
423.398	1565
423.621	1602
423.843	1685
424.066	1676
424.288	1640
424.511	1728
424.733	1824
424.956	2054
425.178	1930
425.401	1943
425.623	2023
425.846	1674
426.068	1589
426.291	1542
426.513	1547
426.735	1598
426.958	1679
427.18	1900
427.402	2278
427.625	2459
427.847	2048
428.069	1704
428.292	1538
428.514	1455
428.736	1401
428.958	1437
429.181	1418
429.403	1388
429.625	1394
429.847	1503
430.069	1737
430.292	1716
430.514	1444
430.736	1443
430.958	1407
431.18	1344
431.402	1346
431.624	1314
431.846	1220
432.068	1208
432.29	1234
432.512	1301
432.734	1396
432.956	1377
433.178	1439
433.4	1477
433.622	1454
433.844	1362
434.066	1308
434.287	1272
434.509	1270
434.731	1321
434.953	1411
435.175	1513
435.397	1611
435.618	1566
435.84	1629
436.062	1977
436.284	2138
436.505	1722
436.727	1618
436.949	1478
437.17	1456
437.392	1409
437.614	1416
437.835	1462
438.057	1699
438.278	1985
438.5	1934
438.721	2296
438.943	2226
439.165	1724
439.386	1627
439.608	1693
439.829	1667
440.05	1762
440.272	1983
440.493	1779
440.715	1594
440.936	1555
441.158	1565
441.379	1612
441.6	1691
441.822	1692
442.043	1765
442.264	2065
442.486	2149
442.707	1795
442.928	1724
443.149	1797
443.371	1860
443.592	1885
443.813	2229
444.034	2393
444.255	1931
444.476	1816
444.698	1803
444.919	1810
445.14	3355
445.361	2505
445.582	1971
445.803	2130
446.024	2416
446.245	2411
446.466	2197
446.687	1831
446.908	1705
447.129	1610
447.35	1586
447.571	1545
447.792	1487
448.013	1495
448.234	1533
448.455	1659
448.675	2009
448.896	2335
449.117	1876
449.338	1735
449.559	2131
449.779	2454
450	1842
450.221	1556
450.442	1441
450.662	1386
450.883	1471
451.104	1487
451.324	1442
451.545	1339
451.766	1379
451.986	1276
452.207	1283
452.428	1283
452.648	1287
452.869	1267
453.089	1260
453.31	1255
453.53	1186
453.751	1148
453.971	1140
454.192	1196
454.412	1185
454.633	1174
454.853	1187
455.073	1216
455.294	1329
455.514	1549
455.734	1403
455.955	1221
456.175	1166
456.395	1103
456.616	1079
456.836	1075
457.056	1098
457.276	1036
457.497	1068
457.717	1099
457.937	1122
458.157	1112
458.377	1115
458.598	1182
458.818	1317
459.038	1581
459.258	1616
459.478	1306
459.698	1212
459.918	1229
460.138	1293
460.358	1332
460.578	1362
460.798	1368
461.018	1426
461.238	1348
461.458	1375
461.678	1346
461.898	1373
462.118	1388
462.338	1435
462.558	1471
462.777	1492
462.997	1564
463.217	1623
463.437	1625
463.657	1554
463.876	1512
464.096	1518
464.316	1526
464.536	1540
464.755	1531
464.975	1512
465.195	1625
465.414	1839
465.634	1526
465.854	1408
466.073	1322
466.293	1339
466.512	1309
466.732	1301
466.951	1327
467.171	1327
467.391	1343
467.61	1418
467.829	1395
468.049	1353
468.268	1324
468.488	1285
468.707	1325
468.927	1304
469.146	1333
469.365	1352
469.585	1351
469.804	1346
470.023	1420
470.243	1415
470.462	1449
470.681	1505
470.901	1476
471.12	1411
471.339	1440
471.558	1392
471.777	1396
471.997	1359
472.216	1254
472.435	1184
472.654	1114
472.873	1156
473.092	1173
473.311	1227
473.53	1223
473.749	1280
473.968	1429
474.187	1689
474.406	1680
474.625	1365
474.844	1318
475.063	1275
475.282	1250
475.501	1205
475.72	1275
475.939	1253
476.158	1260
476.377	1316
476.596	1250
476.814	1237
477.033	1222
477.252	1242
477.471	1309
477.69	1430
477.908	1467
478.127	1517
478.346	1499
478.564	1493
478.783	1501
479.002	1586
479.22	1561
479.439	1561
479.658	1555
479.876	1495
480.095	1506
480.313	1708
480.532	1614
480.751	1557
480.969	1451
481.188	1370
481.406	1331
481.624	1324
481.843	1277
482.061	1273
482.28	1352
482.498	1350
482.717	1315
482.935	1363
483.153	1491
483.372	1577
483.59	1562
483.808	1475
484.027	1434
484.245	1434
484.463	1468
484.681	1606
484.9	1485
485.118	1511
485.336	1476
485.554	1425
485.772	1395
485.99	1387
486.209	1431
486.427	1430
486.645	1537
486.863	1639
487.081	1620
487.299	1545
487.517	1607
487.735	1772
487.953	1927
488.171	1877
488.389	1759
488.607	1694
488.825	1611
489.043	1572
489.261	1596
489.479	1597
489.696	1629
489.914	1681
490.132	1678
490.35	1765
490.568	1860
490.786	1934
491.003	1996
491.221	2056
491.439	2166
491.657	2213
491.874	2293
492.092	2441
492.31	2490
492.527	2415
492.745	2291
492.963	2235
493.18	2191
493.398	2169
493.615	2243
493.833	2201
494.05	2160
494.268	2147
494.485	2148
494.703	2111
494.92	2141
495.138	2156
495.355	2143
495.573	2125
495.79	2145
496.008	2131
496.225	2081
496.442	2103
496.66	2079
496.877	2052
497.094	2089
497.312	2083
497.529	2077
497.746	2043
497.963	1959
498.181	2002
498.398	2006
498.615	2043
498.832	2134
499.049	2164
499.267	2327
499.484	2458
499.701	2671
499.918	2872
500.135	3062
500.352	3402
500.569	3436
500.786	3501
501.003	3393
501.22	3091
501.437	2948
501.654	2777
501.871	2628
502.088	2439
502.305	2282
502.522	2207
502.739	2049
502.956	1992
503.172	1932
503.389	1877
503.606	1836
503.823	1853
504.04	1818
504.256	1793
504.473	1793
504.69	1819
504.907	1875
505.123	1769
505.34	1731
505.557	1688
505.773	1708
505.99	1702
506.207	1660
506.423	1665
506.64	1629
506.856	1543
507.073	1589
507.289	1585
507.506	1572
507.722	1583
507.939	1641
508.155	1568
508.372	1493
508.588	1443
508.805	1458
509.021	1478
509.238	1513
509.454	1493
509.67	1415
509.887	1367
510.103	1347
510.319	1360
510.536	1593
510.752	2677
510.968	1903
511.184	1312
511.401	1283
511.617	1327
511.833	1282
512.049	1283
512.265	1282
512.481	1283
512.698	1255
512.914	1305
513.13	1279
513.346	1253
513.562	1249
513.778	1285
513.994	1298
514.21	1310
514.426	1368
514.642	1509
514.858	1511
515.074	1593
515.29	2003
515.506	3039
515.721	2295
515.937	1583
516.153	1480
516.369	1427
516.585	1401
516.801	1374
517.016	1444
517.232	1453
517.448	1521
517.664	1556
517.879	1569
518.095	1557
518.311	1561
518.527	1491
518.742	1467
518.958	1414
519.173	1436
519.389	1407
519.605	1380
519.82	1375
520.036	1457
520.251	1446
520.467	1531
520.682	1419
520.898	1441
521.113	1443
521.329	1525
521.544	1748
521.76	2327
521.975	4179
522.19	3740
522.406	1944
522.621	1452
522.836	1375
523.052	1314
523.267	1284
523.482	1273
523.698	1229
523.913	1287
524.128	1305
524.343	1296
524.559	1275
524.774	1271
524.989	1284
525.204	1272
525.419	1233
525.634	1224
525.849	1177
526.064	1150
526.28	1148
526.495	1064
526.71	1065
526.925	1003
527.14	1032
527.355	1037
527.57	1027
527.785	1060
527.999	1079
528.214	1095
528.429	1173
528.644	1210
528.859	1302
529.074	1374
529.289	1505
529.503	1667
529.718	1489
529.933	1259
530.148	1144
530.363	1126
530.577	1016
530.792	999
531.007	1023
531.221	1038
531.436	981
531.651	1039
531.865	1029
532.08	1015
532.295	1032
532.509	1021
532.724	1017
532.938	1027
533.153	1085
533.367	1141
533.582	1215
533.796	1187
534.011	1122
534.225	1045
534.44	1012
534.654	1068
534.868	1047
535.083	1077
535.297	1059
535.511	1090
535.726	1143
535.94	1081
536.154	1055
536.369	1005
536.583	961
536.797	980
537.011	972
537.225	967
537.44	958
537.654	1019
537.868	982
538.082	986
538.296	1036
538.51	1087
538.724	1138
538.938	1189
539.153	1249
539.367	1241
539.581	1160
539.795	1077
540.009	1045
540.222	1076
540.436	1133
540.65	1203
540.864	1254
541.078	1427
541.292	1495
541.506	1570
541.72	1695
541.934	1781
542.147	1875
542.361	1813
542.575	1748
542.789	1615
543.002	1481
543.216	1430
543.43	1419
543.644	1521
543.857	1599
544.071	1689
544.285	1761
544.498	1744
544.712	1735
544.925	1734
545.139	1759
545.352	1730
545.566	1709
545.779	1731
545.993	1749
546.206	1989
546.42	2036
546.633	1783
546.847	1711
547.06	1679
547.274	1726
547.487	1744
547.7	1708
547.914	1697
548.127	1648
548.34	1640
548.554	1656
548.767	1657
548.98	1650
549.193	1606
549.407	1637
549.62	1625
549.833	1635
550.046	1650
550.259	1623
550.473	1563
550.686	1584
550.899	1530
551.112	1475
551.325	1453
551.538	1355
551.751	1239
551.964	1219
552.177	1351
552.39	1462
552.603	1514
552.816	1622
553.029	1656
553.242	1704
553.455	1736
553.667	1751
553.88	1717
554.093	1611
554.306	1633
554.519	1585
554.732	1528
554.944	1479
555.157	1478
555.37	1474
555.583	1423
555.795	1403
556.008	1295
556.221	1254
556.433	1279
556.646	1319
556.859	1296
557.071	1330
557.284	1335
557.496	1345
557.709	1327
557.921	1317
558.134	1323
558.346	1320
558.559	1310
558.771	1252
558.984	1234
559.196	1228
559.409	1201
559.621	1185
559.833	1122
560.046	1164
560.258	1170
560.47	1213
560.683	1196
560.895	1189
561.107	1207
561.32	1203
561.532	1192
561.744	1226
561.956	1240
562.168	1211
562.381	1195
562.593	1195
562.805	1207
563.017	1184
563.229	1183
563.441	1165
563.653	1160
563.865	1146
564.077	1118
564.289	1158
564.501	1162
564.713	1172
564.925	1170
565.137	1183
565.349	1213
565.561	1228
565.773	1245
565.985	1241
566.197	1291
566.408	1383
566.62	1412
566.832	1495
567.044	1515
567.255	1474
567.467	1482
567.679	1499
567.891	1567
568.102	1491
568.314	1422
568.526	1303
568.737	1191
568.949	1066
569.161	972
569.372	931
569.584	927
569.795	881
570.007	885
570.218	954
570.43	927
570.641	871
570.853	937
571.064	985
571.276	958
571.487	975
571.698	971
571.91	919
572.121	892
572.333	891
572.544	822
572.755	805
572.966	762
573.178	725
573.389	733
573.6	699
573.811	700
574.023	692
574.234	699
574.445	714
574.656	748
574.867	775
575.078	787
575.289	773
575.501	800
575.712	725
575.923	727
576.134	757
576.345	757
576.556	812
576.767	805
576.978	786
577.188	841
577.399	763
577.61	700
577.821	718
578.032	717
578.243	808
578.454	1211
578.665	838
578.875	685
579.086	664
579.297	683
579.508	643
579.718	666
579.929	646
580.14	657
580.35	658
580.561	703
580.772	698
580.982	689
581.193	689
581.403	700
581.614	696
581.825	703
582.035	694
582.246	698
582.456	708
582.667	708
582.877	690
583.087	677
583.298	697
583.508	698
583.719	669
583.929	698
584.139	651
584.35	641
584.56	685
584.77	699
584.981	677
585.191	657
585.401	671
585.611	657
585.821	634
586.032	679
586.242	639
586.452	616
586.662	630
586.872	625
587.082	610
587.292	641
587.502	655
587.713	714
587.923	684
588.133	649
588.343	630
588.553	645
588.762	667
588.972	663
589.182	607
589.392	622
589.602	626
589.812	599
590.022	682
590.232	627
590.441	641
590.651	630
590.861	605
591.071	613
591.281	647
591.49	643
591.7	624
591.91	695
592.119	663
592.329	705
592.539	725
592.748	740
592.958	754
593.167	738
593.377	759
593.587	838
593.796	751
594.006	759
594.215	741
594.424	786
594.634	803
594.843	796
595.053	789
595.262	740
595.472	730
595.681	678
595.89	654
596.1	661
596.309	673
596.518	676
596.727	679
596.937	667
597.146	653
597.355	638
597.564	639
597.774	629
597.983	586
598.192	593
598.401	553
598.61	582
598.819	593
599.028	612
599.237	631
599.446	631
599.655	623
599.864	628
600.073	603
600.282	649
600.491	620
600.7	629
600.909	616
601.118	693
601.327	736
601.536	728
601.745	793
601.953	771
602.162	821
602.371	819
602.58	820
602.789	795
602.997	819
603.206	842
603.415	809
603.623	778
603.832	782
604.041	788
604.249	709
604.458	651
604.666	641
604.875	635
605.084	682
605.292	756
605.501	801
605.709	828
605.918	879
606.126	907
606.334	890
606.543	900
606.751	916
606.96	901
607.168	874
607.376	862
607.585	877
607.793	859
608.001	913
608.21	899
608.418	909
608.626	935
608.834	907
609.043	918
609.251	915
609.459	902
609.667	968
609.875	990
610.083	979
610.291	968
610.499	989
610.707	1011
610.916	1088
611.124	1213
611.332	1273
611.54	1398
611.748	1363
611.955	1258
612.163	1146
612.371	1082
612.579	1028
612.787	988
612.995	1038
613.203	1049
613.411	989
613.618	981
613.826	953
614.034	976
614.242	1015
614.449	972
614.657	1001
614.865	991
615.072	972
615.28	973
615.488	968
615.695	992
615.903	957
616.111	947
616.318	984
616.526	965
616.733	998
616.941	929
617.148	961
617.356	945
617.563	906
617.771	888
617.978	850
618.185	892
618.393	931
618.6	917
618.807	890
619.015	907
619.222	915
619.429	870
619.637	808
619.844	746
620.051	778
620.258	862
620.466	851
620.673	833
620.88	839
621.087	805
621.294	809
621.501	784
621.708	802
621.915	817
622.122	829
622.329	883
622.536	874
622.743	871
622.95	831
623.157	816
623.364	840
623.571	842
623.778	855
623.985	860
624.192	854
624.399	839
624.606	811
624.812	772
625.019	748
625.226	753
625.433	765
625.639	667
625.846	653
626.053	596
626.259	553
626.466	564
626.673	552
626.879	547
627.086	594
627.293	674
627.499	701
627.706	752
627.912	749
628.119	779
628.325	817
628.532	761
628.738	727
628.945	719
629.151	697
629.357	687
629.564	685
629.77	683
629.976	671
630.183	627
630.389	641
630.595	668
630.802	708
631.008	712
631.214	717
631.42	697
631.627	675
631.833	637
632.039	631
632.245	655
632.451	674
632.657	659
632.863	641
633.069	645
633.275	648
633.481	593
633.688	587
633.893	608
634.099	592
634.305	577
634.511	606
634.717	561
634.923	523
635.129	524
635.335	529
635.541	512
635.747	554
635.952	596
636.158	611
636.364	635
636.57	627
636.775	625
636.981	647
637.187	661
637.392	659
637.598	652
637.804	661
638.009	626
638.215	637
638.421	600
638.626	599
638.832	622
639.037	604
639.243	548
639.448	578
639.654	623
639.859	586
640.065	575
640.27	625
640.475	577
640.681	584
640.886	600
641.091	596
641.297	658
641.502	623
641.707	606
641.913	625
642.118	602
642.323	583
642.528	633
642.733	609
642.939	612
643.144	580
643.349	552
643.554	587
643.759	600
643.964	561
644.169	578
644.374	550
644.579	593
644.784	580
644.989	579
645.194	579
645.399	556
645.604	556
645.809	581
646.014	569
646.219	562
646.423	578
646.628	569
646.833	588
647.038	606
647.243	576
647.447	566
647.652	581
647.857	581
648.062	599
648.266	580
648.471	583
648.676	597
648.88	580
649.085	570
649.289	587
649.494	581
649.698	656
649.903	609
650.107	562
650.312	586
650.516	552
650.721	558
650.925	527
651.13	519
651.334	499
651.539	485
651.743	490
651.947	512
652.152	486
652.356	458
652.56	472
652.764	437
652.969	450
653.173	465
653.377	436
653.581	402
653.785	431
653.99	415
654.194	406
654.398	406
654.602	381
654.806	393
655.01	423
655.214	399
655.418	390
655.622	403
655.826	355
656.03	373
656.234	367
656.438	374
656.642	384
656.846	357
657.049	336
657.253	352
657.457	321
657.661	320
657.865	297
658.068	287
658.272	265
658.476	269
658.68	267
658.883	234
659.087	227
659.291	220
659.494	220
659.698	220
659.901	218
660.105	195
660.309	197
660.512	181
660.716	180
660.919	176
661.123	214
661.326	173
661.53	167
661.733	171
661.936	148
662.14	159
662.343	147
662.546	136
662.75	158
662.953	157
663.156	116
663.36	140
663.563	141
663.766	113
663.969	123
664.173	127
664.376	120
664.579	117
664.782	118
664.985	111
665.188	125
665.391	110
665.594	104
665.797	109
666	124
666.203	103
666.406	90
666.609	91
666.812	123
667.015	125
667.218	120
667.421	116
667.624	96
667.827	124
668.03	115
668.232	89
668.435	106
668.638	98
668.841	144
669.043	117
669.246	111
669.449	108
669.651	123
669.854	106
670.057	101
670.259	113
670.462	118
670.665	116
670.867	139
671.07	121
671.272	133
671.475	156
671.677	106
671.88	128
672.082	104
672.284	137
672.487	111
672.689	97
672.892	115
