Data from Ni(NO3)2Standard.Agarose3%.GreenCap.LampEnergy5.5.E.O_HRD10591_14-42-27-188.txt Node
Date: Mon Jul 22 14:42:27 EDT 2019
User: cochatt
Spectrometer: HR+D1059
Trigger mode: 1
Integration Time (sec): 1.000000E-1
Scans to average: 1
Electric dark correction enabled: true
Nonlinearity correction enabled: false
Boxcar width: 0
XAxis mode: Wavelengths
Number of Pixels in Spectrum: 2048
>>>>>Begin Spectral Data<<<<<
223.165	-23
223.4	-23
223.635	-23
223.869	-12
224.104	-25
224.338	-16
224.573	-11
224.808	-12
225.042	0
225.277	-11
225.511	9
225.746	7
225.98	-4
226.215	6
226.449	13
226.683	23
226.918	22
227.152	34
227.387	33
227.621	35
227.856	43
228.09	50
228.324	59
228.559	69
228.793	64
229.027	64
229.262	80
229.496	65
229.73	74
229.964	78
230.199	78
230.433	71
230.667	80
230.901	82
231.136	84
231.37	71
231.604	84
231.838	91
232.072	84
232.306	81
232.541	88
232.775	77
233.009	89
233.243	92
233.477	85
233.711	95
233.945	94
234.179	83
234.413	88
234.647	82
234.881	73
235.115	91
235.349	83
235.583	86
235.817	87
236.051	80
236.285	85
236.519	88
236.753	92
236.987	76
237.221	93
237.455	77
237.689	85
237.922	67
238.156	88
238.39	81
238.624	75
238.858	89
239.091	84
239.325	68
239.559	74
239.793	74
240.027	83
240.26	76
240.494	88
240.728	85
240.961	85
241.195	85
241.429	75
241.662	76
241.896	84
242.13	87
242.363	76
242.597	78
242.83	89
243.064	75
243.298	83
243.531	84
243.765	65
243.998	80
244.232	80
244.465	91
244.699	77
244.932	101
245.166	76
245.399	83
245.633	79
245.866	89
246.099	68
246.333	78
246.566	93
246.8	80
247.033	77
247.266	75
247.5	72
247.733	79
247.966	91
248.2	77
248.433	88
248.666	77
248.899	85
249.133	86
249.366	86
249.599	71
249.832	79
250.066	74
250.299	87
250.532	83
250.765	80
250.998	90
251.231	91
251.465	88
251.698	85
251.931	60
252.164	79
252.397	74
252.63	82
252.863	82
253.096	96
253.329	88
253.562	76
253.795	95
254.028	91
254.261	79
254.494	75
254.727	79
254.96	84
255.193	87
255.426	93
255.659	80
255.892	78
256.124	80
256.357	91
256.59	82
256.823	77
257.056	79
257.289	95
257.521	90
257.754	89
257.987	78
258.22	81
258.452	71
258.685	90
258.918	92
259.151	84
259.383	96
259.616	76
259.849	80
260.081	90
260.314	90
260.547	86
260.779	89
261.012	92
261.244	73
261.477	92
261.71	85
261.942	81
262.175	87
262.407	80
262.64	82
262.872	97
263.105	89
263.337	84
263.57	90
263.802	85
264.035	107
264.267	75
264.499	83
264.732	100
264.964	87
265.197	79
265.429	82
265.661	100
265.894	89
266.126	96
266.358	79
266.591	90
266.823	85
267.055	77
267.287	79
267.52	80
267.752	93
267.984	95
268.216	78
268.448	92
268.681	82
268.913	82
269.145	86
269.377	91
269.609	80
269.841	93
270.073	89
270.306	94
270.538	92
270.77	92
271.002	73
271.234	90
271.466	70
271.698	87
271.93	93
272.162	103
272.394	98
272.626	85
272.858	77
273.09	76
273.322	84
273.553	88
273.785	96
274.017	85
274.249	84
274.481	89
274.713	86
274.945	89
275.176	72
275.408	85
275.64	103
275.872	102
276.104	92
276.335	91
276.567	77
276.799	89
277.031	88
277.262	89
277.494	108
277.726	93
277.957	91
278.189	83
278.421	86
278.652	76
278.884	73
279.115	85
279.347	85
279.579	89
279.81	95
280.042	105
280.273	86
280.505	106
280.736	88
280.968	92
281.199	97
281.431	88
281.662	98
281.894	93
282.125	93
282.356	77
282.588	101
282.819	86
283.051	88
283.282	78
283.513	73
283.745	85
283.976	100
284.207	86
284.439	96
284.67	76
284.901	88
285.132	85
285.364	93
285.595	78
285.826	91
286.057	89
286.288	83
286.52	79
286.751	87
286.982	80
287.213	72
287.444	94
287.675	86
287.906	87
288.138	83
288.369	79
288.6	86
288.831	88
289.062	84
289.293	86
289.524	83
289.755	82
289.986	82
290.217	76
290.448	74
290.679	78
290.91	105
291.141	89
291.371	78
291.602	102
291.833	76
292.064	82
292.295	101
292.526	92
292.757	92
292.987	84
293.218	88
293.449	86
293.68	80
293.91	90
294.141	89
294.372	87
294.603	87
294.833	85
295.064	70
295.295	92
295.525	79
295.756	88
295.987	95
296.217	78
296.448	88
296.679	78
296.909	96
297.14	82
297.37	80
297.601	81
297.831	87
298.062	75
298.292	90
298.523	92
298.753	83
298.984	85
299.214	74
299.445	88
299.675	86
299.905	82
300.136	84
300.366	92
300.597	85
300.827	89
301.057	89
301.288	91
301.518	81
301.748	103
301.979	86
302.209	87
302.439	89
302.669	97
302.9	85
303.13	67
303.36	83
303.59	93
303.82	88
304.051	93
304.281	93
304.511	84
304.741	102
304.971	87
305.201	92
305.431	95
305.661	87
305.891	83
306.121	92
306.352	84
306.582	98
306.812	77
307.042	80
307.272	92
307.502	101
307.731	87
307.961	78
308.191	86
308.421	83
308.651	78
308.881	107
309.111	93
309.341	92
309.571	83
309.8	89
310.03	88
310.26	94
310.49	80
310.72	74
310.949	86
311.179	86
311.409	83
311.639	89
311.868	82
312.098	93
312.328	82
312.557	80
312.787	96
313.017	85
313.246	91
313.476	100
313.706	94
313.935	99
314.165	72
314.394	90
314.624	92
314.853	79
315.083	94
315.312	84
315.542	86
315.771	89
316.001	96
316.23	75
316.46	86
316.689	94
316.919	94
317.148	88
317.377	92
317.607	88
317.836	84
318.065	92
318.295	87
318.524	86
318.753	95
318.983	84
319.212	100
319.441	92
319.67	85
319.9	81
320.129	82
320.358	93
320.587	82
320.816	96
321.046	96
321.275	95
321.504	81
321.733	86
321.962	87
322.191	86
322.42	84
322.649	92
322.878	88
323.108	87
323.337	93
323.566	93
323.795	74
324.024	99
324.253	93
324.482	94
324.71	89
324.939	97
325.168	96
325.397	77
325.626	90
325.855	97
326.084	88
326.313	101
326.542	85
326.77	80
326.999	81
327.228	78
327.457	92
327.686	88
327.914	92
328.143	83
328.372	79
328.6	101
328.829	96
329.058	89
329.287	96
329.515	94
329.744	84
329.972	89
330.201	97
330.43	93
330.658	87
330.887	81
331.115	94
331.344	103
331.572	94
331.801	92
332.03	90
332.258	104
332.486	85
332.715	87
332.943	87
333.172	88
333.4	79
333.629	83
333.857	93
334.085	89
334.314	95
334.542	70
334.771	81
334.999	76
335.227	95
335.455	85
335.684	86
335.912	101
336.14	84
336.369	100
336.597	80
336.825	81
337.053	90
337.281	92
337.51	94
337.738	74
337.966	83
338.194	79
338.422	73
338.65	84
338.878	97
339.106	111
339.334	94
339.562	91
339.79	89
340.018	92
340.246	97
340.474	92
340.702	87
340.93	81
341.158	104
341.386	104
341.614	112
341.842	102
342.07	91
342.298	97
342.526	85
342.754	92
342.981	75
343.209	85
343.437	109
343.665	87
343.893	82
344.12	91
344.348	79
344.576	91
344.804	92
345.031	92
345.259	91
345.487	82
345.714	91
345.942	94
346.17	99
346.397	95
346.625	93
346.853	90
347.08	81
347.308	91
347.535	98
347.763	94
347.99	90
348.218	86
348.445	78
348.673	80
348.9	87
349.128	81
349.355	102
349.583	93
349.81	70
350.037	80
350.265	83
350.492	91
350.72	77
350.947	92
351.174	91
351.402	89
351.629	82
351.856	75
352.083	89
352.311	101
352.538	81
352.765	79
352.992	92
353.22	78
353.447	99
353.674	84
353.901	95
354.128	90
354.355	93
354.583	80
354.81	84
355.037	87
355.264	75
355.491	88
355.718	87
355.945	86
356.172	92
356.399	74
356.626	82
356.853	95
357.08	102
357.307	97
357.534	92
357.761	91
357.988	94
358.215	91
358.441	86
358.668	86
358.895	101
359.122	100
359.349	66
359.576	76
359.802	84
360.029	98
360.256	88
360.483	71
360.709	97
360.936	86
361.163	92
361.39	91
361.616	101
361.843	83
362.07	84
362.296	83
362.523	81
362.749	93
362.976	84
363.203	83
363.429	93
363.656	92
363.882	92
364.109	103
364.335	89
364.562	101
364.788	99
365.015	110
365.241	90
365.468	83
365.694	100
365.92	103
366.147	87
366.373	88
366.599	74
366.826	99
367.052	86
367.278	87
367.505	82
367.731	88
367.957	87
368.184	89
368.41	76
368.636	90
368.862	92
369.089	85
369.315	86
369.541	103
369.767	92
369.993	80
370.219	81
370.445	78
370.672	76
370.898	86
371.124	88
371.35	86
371.576	82
371.802	83
372.028	96
372.254	90
372.48	98
372.706	83
372.932	100
373.158	79
373.384	82
373.61	90
373.835	103
374.061	91
374.287	87
374.513	77
374.739	86
374.965	87
375.191	85
375.416	83
375.642	83
375.868	99
376.094	79
376.319	89
376.545	86
376.771	78
376.997	92
377.222	83
377.448	88
377.674	106
377.899	84
378.125	91
378.35	87
378.576	90
378.802	80
379.027	81
379.253	81
379.478	89
379.704	84
379.929	80
380.155	84
380.38	92
380.606	76
380.831	87
381.057	101
381.282	85
381.507	88
381.733	100
381.958	81
382.184	90
382.409	84
382.634	87
382.86	76
383.085	93
383.31	80
383.535	78
383.761	87
383.986	88
384.211	89
384.436	86
384.662	97
384.887	76
385.112	79
385.337	80
385.562	81
385.787	81
386.013	93
386.238	101
386.463	96
386.688	98
386.913	83
387.138	77
387.363	87
387.588	83
387.813	85
388.038	105
388.263	89
388.488	86
388.713	80
388.938	93
389.163	90
389.387	97
389.612	80
389.837	85
390.062	84
390.287	83
390.512	91
390.736	83
390.961	74
391.186	91
391.411	92
391.636	91
391.86	78
392.085	94
392.31	101
392.534	93
392.759	100
392.984	93
393.208	78
393.433	82
393.658	96
393.882	72
394.107	82
394.331	95
394.556	75
394.78	86
395.005	95
395.229	86
395.454	80
395.678	88
395.903	94
396.127	87
396.352	88
396.576	97
396.801	99
397.025	79
397.249	85
397.474	88
397.698	82
397.922	90
398.147	80
398.371	88
398.595	93
398.82	94
399.044	85
399.268	91
399.492	92
399.717	104
399.941	102
400.165	101
400.389	95
400.613	91
400.837	89
401.062	95
401.286	107
401.51	88
401.734	92
401.958	92
402.182	84
402.406	92
402.63	77
402.854	89
403.078	95
403.302	88
403.526	93
403.75	86
403.974	88
404.198	97
404.422	80
404.645	73
404.869	85
405.093	82
405.317	85
405.541	82
405.765	87
405.988	89
406.212	77
406.436	79
406.66	100
406.883	100
407.107	80
407.331	81
407.555	95
407.778	99
408.002	81
408.226	102
408.449	87
408.673	81
408.896	81
409.12	79
409.344	95
409.567	96
409.791	68
410.014	92
410.238	100
410.461	92
410.685	78
410.908	75
411.132	96
411.355	93
411.578	89
411.802	81
412.025	80
412.249	98
412.472	75
412.695	84
412.919	87
413.142	87
413.365	89
413.589	87
413.812	92
414.035	89
414.258	82
414.482	83
414.705	94
414.928	84
415.151	71
415.374	85
415.597	110
415.821	102
416.044	94
416.267	88
416.49	70
416.713	77
416.936	85
417.159	89
417.382	80
417.605	85
417.828	91
418.051	89
418.274	86
418.497	94
418.72	93
418.943	80
419.166	92
419.389	81
419.611	97
419.834	89
420.057	96
420.28	85
420.503	79
420.726	99
420.948	74
421.171	76
421.394	78
421.617	94
421.839	85
422.062	91
422.285	90
422.507	79
422.73	83
422.953	91
423.175	90
423.398	77
423.621	91
423.843	90
424.066	92
424.288	84
424.511	94
424.733	90
424.956	87
425.178	91
425.401	82
425.623	89
425.846	86
426.068	80
426.291	87
426.513	93
426.735	86
426.958	89
427.18	108
427.402	88
427.625	88
427.847	71
428.069	84
428.292	87
428.514	87
428.736	77
428.958	91
429.181	95
429.403	102
429.625	101
429.847	84
430.069	86
430.292	88
430.514	87
430.736	94
430.958	87
431.18	92
431.402	98
431.624	95
431.846	80
432.068	93
432.29	85
432.512	86
432.734	96
432.956	89
433.178	73
433.4	78
433.622	94
433.844	91
434.066	84
434.287	90
434.509	87
434.731	87
434.953	99
435.175	81
435.397	90
435.618	79
435.84	92
436.062	92
436.284	85
436.505	91
436.727	95
436.949	86
437.17	79
437.392	90
437.614	81
437.835	103
438.057	82
438.278	92
438.5	75
438.721	92
438.943	95
439.165	82
439.386	65
439.608	78
439.829	84
440.05	79
440.272	85
440.493	84
440.715	98
440.936	92
441.158	89
441.379	76
441.6	103
441.822	92
442.043	84
442.264	91
442.486	110
442.707	71
442.928	94
443.149	89
443.371	88
443.592	77
443.813	85
444.034	84
444.255	77
444.476	103
444.698	94
444.919	96
445.14	208
445.361	134
445.582	97
445.803	78
446.024	99
446.245	87
446.466	97
446.687	91
446.908	95
447.129	81
447.35	89
447.571	112
447.792	89
448.013	100
448.234	87
448.455	89
448.675	90
448.896	79
449.117	86
449.338	87
449.559	91
449.779	85
450	75
450.221	75
450.442	88
450.662	89
450.883	91
451.104	98
451.324	68
451.545	99
451.766	105
451.986	85
452.207	94
452.428	87
452.648	91
452.869	80
453.089	105
453.31	80
453.53	79
453.751	93
453.971	85
454.192	73
454.412	79
454.633	81
454.853	99
455.073	89
455.294	91
455.514	88
455.734	95
455.955	71
456.175	79
456.395	91
456.616	90
456.836	77
457.056	95
457.276	85
457.497	76
457.717	88
457.937	88
458.157	73
458.377	72
458.598	82
458.818	100
459.038	90
459.258	85
459.478	86
459.698	97
459.918	93
460.138	82
460.358	84
460.578	88
460.798	94
461.018	91
461.238	91
461.458	101
461.678	84
461.898	96
462.118	90
462.338	86
462.558	89
462.777	86
462.997	102
463.217	91
463.437	84
463.657	85
463.876	95
464.096	102
464.316	87
464.536	81
464.755	88
464.975	83
465.195	78
465.414	97
465.634	92
465.854	89
466.073	87
466.293	86
466.512	102
466.732	89
466.951	81
467.171	92
467.391	92
467.61	93
467.829	92
468.049	85
468.268	98
468.488	90
468.707	89
468.927	82
469.146	89
469.365	98
469.585	90
469.804	94
470.023	91
470.243	100
470.462	94
470.681	91
470.901	88
471.12	90
471.339	80
471.558	82
471.777	91
471.997	88
472.216	79
472.435	81
472.654	86
472.873	83
473.092	86
473.311	95
473.53	93
473.749	103
473.968	89
474.187	81
474.406	78
474.625	94
474.844	104
475.063	95
475.282	73
475.501	89
475.72	104
475.939	78
476.158	86
476.377	96
476.596	92
476.814	90
477.033	92
477.252	89
477.471	100
477.69	97
477.908	95
478.127	99
478.346	102
478.564	90
478.783	96
479.002	100
479.22	101
479.439	95
479.658	89
479.876	106
480.095	87
480.313	95
480.532	79
480.751	86
480.969	101
481.188	88
481.406	84
481.624	101
481.843	68
482.061	87
482.28	92
482.498	96
482.717	88
482.935	84
483.153	101
483.372	102
483.59	109
483.808	96
484.027	86
484.245	84
484.463	97
484.681	95
484.9	90
485.118	87
485.336	94
485.554	88
485.772	90
485.99	94
486.209	90
486.427	87
486.645	100
486.863	87
487.081	89
487.299	109
487.517	80
487.735	98
487.953	85
488.171	99
488.389	96
488.607	106
488.825	91
489.043	96
489.261	93
489.479	88
489.696	99
489.914	95
490.132	108
490.35	104
490.568	94
490.786	100
491.003	76
491.221	81
491.439	102
491.657	96
491.874	91
492.092	111
492.31	109
492.527	105
492.745	93
492.963	93
493.18	100
493.398	88
493.615	93
493.833	102
494.05	102
494.268	107
494.485	96
494.703	93
494.92	80
495.138	87
495.355	94
495.573	108
495.79	105
496.008	95
496.225	100
496.442	84
496.66	109
496.877	107
497.094	107
497.312	86
497.529	81
497.746	96
497.963	86
498.181	106
498.398	84
498.615	102
498.832	101
499.049	91
499.267	96
499.484	92
499.701	100
499.918	112
500.135	119
500.352	123
500.569	109
500.786	119
501.003	112
501.22	128
501.437	102
501.654	111
501.871	91
502.088	108
502.305	107
502.522	101
502.739	102
502.956	103
503.172	88
503.389	103
503.606	95
503.823	105
504.04	114
504.256	79
504.473	95
504.69	88
504.907	106
505.123	100
505.34	93
505.557	96
505.773	105
505.99	89
506.207	87
506.423	91
506.64	97
506.856	101
507.073	97
507.289	96
507.506	93
507.722	93
507.939	99
508.155	104
508.372	80
508.588	91
508.805	85
509.021	85
509.238	99
509.454	87
509.67	96
509.887	98
510.103	93
510.319	80
510.536	89
510.752	86
510.968	92
511.184	88
511.401	90
511.617	91
511.833	105
512.049	94
512.265	95
512.481	102
512.698	80
512.914	78
513.13	104
513.346	82
513.562	83
513.778	87
513.994	91
514.21	110
514.426	91
514.642	85
514.858	86
515.074	97
515.29	97
515.506	101
515.721	104
515.937	85
516.153	84
516.369	92
516.585	95
516.801	88
517.016	80
517.232	91
517.448	96
517.664	94
517.879	91
518.095	106
518.311	98
518.527	99
518.742	78
518.958	98
519.173	83
519.389	96
519.605	87
519.82	88
520.036	83
520.251	93
520.467	101
520.682	100
520.898	92
521.113	99
521.329	93
521.544	91
521.76	102
521.975	76
522.19	99
522.406	95
522.621	102
522.836	97
523.052	100
523.267	89
523.482	101
523.698	98
523.913	91
524.128	90
524.343	90
524.559	91
524.774	94
524.989	101
525.204	89
525.419	93
525.634	91
525.849	101
526.064	94
526.28	98
526.495	97
526.71	93
526.925	84
527.14	89
527.355	96
527.57	85
527.785	90
527.999	89
528.214	83
528.429	90
528.644	105
528.859	92
529.074	90
529.289	95
529.503	94
529.718	104
529.933	103
530.148	92
530.363	93
530.577	81
530.792	86
531.007	99
531.221	77
531.436	85
531.651	83
531.865	86
532.08	99
532.295	87
532.509	93
532.724	80
532.938	94
533.153	89
533.367	108
533.582	107
533.796	97
534.011	90
534.225	95
534.44	95
534.654	103
534.868	103
535.083	102
535.297	98
535.511	94
535.726	101
535.94	97
536.154	97
536.369	89
536.583	80
536.797	88
537.011	94
537.225	95
537.44	91
537.654	91
537.868	85
538.082	103
538.296	95
538.51	87
538.724	88
538.938	96
539.153	90
539.367	94
539.581	85
539.795	78
540.009	85
540.222	94
540.436	104
540.65	97
540.864	77
541.078	89
541.292	88
541.506	94
541.72	98
541.934	92
542.147	96
542.361	86
542.575	92
542.789	89
543.002	92
543.216	90
543.43	87
543.644	104
543.857	94
544.071	94
544.285	89
544.498	92
544.712	89
544.925	95
545.139	87
545.352	91
545.566	95
545.779	111
545.993	93
546.206	92
546.42	97
546.633	96
546.847	82
547.06	95
547.274	86
547.487	107
547.7	84
547.914	110
548.127	88
548.34	86
548.554	100
548.767	99
548.98	81
549.193	95
549.407	94
549.62	88
549.833	87
550.046	94
550.259	96
550.473	83
550.686	104
550.899	96
551.112	96
551.325	95
551.538	88
551.751	91
551.964	92
552.177	95
552.39	78
552.603	96
552.816	104
553.029	91
553.242	109
553.455	99
553.667	115
553.88	102
554.093	89
554.306	94
554.519	94
554.732	97
554.944	90
555.157	96
555.37	91
555.583	98
555.795	104
556.008	85
556.221	91
556.433	87
556.646	74
556.859	88
557.071	102
557.284	97
557.496	83
557.709	102
557.921	89
558.134	97
558.346	91
558.559	94
558.771	104
558.984	88
559.196	79
559.409	85
559.621	96
559.833	92
560.046	78
560.258	97
560.47	97
560.683	95
560.895	95
561.107	84
561.32	88
561.532	94
561.744	93
561.956	95
562.168	101
562.381	95
562.593	95
562.805	84
563.017	100
563.229	94
563.441	95
563.653	100
563.865	97
564.077	80
564.289	95
564.501	90
564.713	87
564.925	101
565.137	93
565.349	92
565.561	90
565.773	93
565.985	86
566.197	81
566.408	90
566.62	89
566.832	107
567.044	97
567.255	83
567.467	89
567.679	91
567.891	92
568.102	87
568.314	101
568.526	97
568.737	103
568.949	108
569.161	77
569.372	82
569.584	92
569.795	89
570.007	70
570.218	101
570.43	94
570.641	86
570.853	89
571.064	99
571.276	88
571.487	76
571.698	94
571.91	92
572.121	81
572.333	97
572.544	97
572.755	93
572.966	86
573.178	92
573.389	79
573.6	91
573.811	88
574.023	94
574.234	86
574.445	89
574.656	80
574.867	93
575.078	101
575.289	84
575.501	92
575.712	87
575.923	92
576.134	84
576.345	88
576.556	99
576.767	93
576.978	91
577.188	98
577.399	91
577.61	87
577.821	84
578.032	91
578.243	87
578.454	94
578.665	90
578.875	87
579.086	76
579.297	90
579.508	84
579.718	86
579.929	90
580.14	95
580.35	78
580.561	92
580.772	77
580.982	91
581.193	83
581.403	94
581.614	87
581.825	83
582.035	98
582.246	94
582.456	105
582.667	96
582.877	96
583.087	77
583.298	83
583.508	83
583.719	83
583.929	105
584.139	104
584.35	85
584.56	92
584.77	78
584.981	81
585.191	88
585.401	93
585.611	90
585.821	88
586.032	88
586.242	86
586.452	82
586.662	77
586.872	86
587.082	88
587.292	108
587.502	87
587.713	98
587.923	89
588.133	76
588.343	91
588.553	71
588.762	94
588.972	98
589.182	105
589.392	88
589.602	86
589.812	94
590.022	75
590.232	79
590.441	92
590.651	95
590.861	81
591.071	91
591.281	96
591.49	80
591.7	87
591.91	81
592.119	95
592.329	82
592.539	96
592.748	76
592.958	91
593.167	75
593.377	92
593.587	110
593.796	84
594.006	88
594.215	89
594.424	88
594.634	81
594.843	93
595.053	88
595.262	89
595.472	92
595.681	89
595.89	94
596.1	74
596.309	97
596.518	88
596.727	88
596.937	78
597.146	88
597.355	97
597.564	79
597.774	85
597.983	80
598.192	102
598.401	106
598.61	91
598.819	96
599.028	95
599.237	79
599.446	66
599.655	78
599.864	82
600.073	79
600.282	92
600.491	88
600.7	80
600.909	79
601.118	91
601.327	92
601.536	95
601.745	89
601.953	95
602.162	93
602.371	89
602.58	83
602.789	93
602.997	89
603.206	71
603.415	87
603.623	94
603.832	91
604.041	87
604.249	85
604.458	93
604.666	78
604.875	91
605.084	79
605.292	90
605.501	81
605.709	91
605.918	86
606.126	94
606.334	85
606.543	75
606.751	105
606.96	59
607.168	76
607.376	80
607.585	82
607.793	91
608.001	84
608.21	83
608.418	91
608.626	88
608.834	86
609.043	95
609.251	95
609.459	97
609.667	85
609.875	91
610.083	91
610.291	76
610.499	99
610.707	87
610.916	84
611.124	103
611.332	87
611.54	86
611.748	82
611.955	91
612.163	88
612.371	95
612.579	77
612.787	99
612.995	95
613.203	103
613.411	86
613.618	83
613.826	93
614.034	75
614.242	76
614.449	78
614.657	83
614.865	93
615.072	96
615.28	91
615.488	89
615.695	78
615.903	87
616.111	81
616.318	84
616.526	96
616.733	96
616.941	87
617.148	94
617.356	84
617.563	87
617.771	85
617.978	85
618.185	80
618.393	91
618.6	78
618.807	97
619.015	85
619.222	106
619.429	110
619.637	85
619.844	99
620.051	71
620.258	85
620.466	98
620.673	83
620.88	79
621.087	91
621.294	85
621.501	84
621.708	92
621.915	90
622.122	99
622.329	99
622.536	92
622.743	76
622.95	87
623.157	92
623.364	74
623.571	84
623.778	92
623.985	94
624.192	86
624.399	90
624.606	94
624.812	95
625.019	87
625.226	86
625.433	101
625.639	82
625.846	79
626.053	90
626.259	79
626.466	90
626.673	80
626.879	63
627.086	89
627.293	93
627.499	85
627.706	84
627.912	87
628.119	88
628.325	90
628.532	92
628.738	92
628.945	82
629.151	93
629.357	93
629.564	88
629.77	92
629.976	70
630.183	85
630.389	75
630.595	84
630.802	67
631.008	87
631.214	89
631.42	94
631.627	100
631.833	80
632.039	87
632.245	99
632.451	78
632.657	75
632.863	89
633.069	88
633.275	89
633.481	85
633.688	104
633.893	85
634.099	91
634.305	81
634.511	71
634.717	87
634.923	77
635.129	87
635.335	78
635.541	88
635.747	85
635.952	80
636.158	76
636.364	69
636.57	86
636.775	88
636.981	87
637.187	80
637.392	89
637.598	91
637.804	89
638.009	84
638.215	80
638.421	89
638.626	76
638.832	87
639.037	86
639.243	98
639.448	78
639.654	94
639.859	82
640.065	88
640.27	96
640.475	76
640.681	78
640.886	79
641.091	87
641.297	91
641.502	78
641.707	92
641.913	84
642.118	106
642.323	93
642.528	102
642.733	95
642.939	86
643.144	94
643.349	90
643.554	86
643.759	83
643.964	81
644.169	79
644.374	85
644.579	104
644.784	95
644.989	87
645.194	99
645.399	86
645.604	91
645.809	86
646.014	81
646.219	85
646.423	87
646.628	95
646.833	85
647.038	76
647.243	99
647.447	103
647.652	85
647.857	88
648.062	87
648.266	81
648.471	83
648.676	83
648.88	76
649.085	80
649.289	82
649.494	88
649.698	75
649.903	79
650.107	66
650.312	93
650.516	82
650.721	79
650.925	98
651.13	83
651.334	72
651.539	83
651.743	90
651.947	89
652.152	81
652.356	81
652.56	76
652.764	93
652.969	82
653.173	84
653.377	96
653.581	93
653.785	82
653.99	86
654.194	73
654.398	89
654.602	88
654.806	80
655.01	85
655.214	86
655.418	77
655.622	81
655.826	77
656.03	94
656.234	89
656.438	77
656.642	74
656.846	83
657.049	84
657.253	88
657.457	79
657.661	76
657.865	90
658.068	81
658.272	87
658.476	88
658.68	91
658.883	71
659.087	81
659.291	85
659.494	82
659.698	101
659.901	91
660.105	89
660.309	85
660.512	74
660.716	91
660.919	98
661.123	79
661.326	89
661.53	75
661.733	85
661.936	87
662.14	74
662.343	70
662.546	80
662.75	84
662.953	87
663.156	84
663.36	81
663.563	88
663.766	80
663.969	80
664.173	87
664.376	79
664.579	84
664.782	84
664.985	89
665.188	86
665.391	79
665.594	87
665.797	87
666	70
666.203	105
666.406	74
666.609	72
666.812	80
667.015	84
667.218	90
667.421	99
667.624	87
667.827	78
668.03	79
668.232	85
668.435	77
668.638	73
668.841	93
669.043	69
669.246	79
669.449	66
669.651	90
669.854	85
670.057	95
670.259	88
670.462	90
670.665	76
670.867	78
671.07	73
671.272	89
671.475	93
671.677	81
671.88	90
672.082	84
672.284	99
672.487	87
672.689	67
672.892	97
