Data from Ni(NO3)2Standard.Agarose3%.GreenCap.LampEnergy5.5.E.O_HRD10591_14-42-20-188.txt Node
Date: Mon Jul 22 14:42:20 EDT 2019
User: cochatt
Spectrometer: HR+D1059
Trigger mode: 1
Integration Time (sec): 1.000000E-1
Scans to average: 1
Electric dark correction enabled: true
Nonlinearity correction enabled: false
Boxcar width: 0
XAxis mode: Wavelengths
Number of Pixels in Spectrum: 2048
>>>>>Begin Spectral Data<<<<<
223.165	-14
223.4	-14
223.635	-14
223.869	-21
224.104	-20
224.338	-9
224.573	-22
224.808	-21
225.042	-12
225.277	-2
225.511	-3
225.746	11
225.98	13
226.215	7
226.449	22
226.683	15
226.918	26
227.152	30
227.387	27
227.621	33
227.856	39
228.09	37
228.324	58
228.559	54
228.793	55
229.027	54
229.262	76
229.496	62
229.73	73
229.964	75
230.199	66
230.433	79
230.667	79
230.901	76
231.136	85
231.37	76
231.604	76
231.838	89
232.072	90
232.306	93
232.541	98
232.775	85
233.009	75
233.243	78
233.477	85
233.711	88
233.945	91
234.179	83
234.413	94
234.647	94
234.881	81
235.115	77
235.349	70
235.583	84
235.817	83
236.051	77
236.285	90
236.519	77
236.753	82
236.987	96
237.221	80
237.455	83
237.689	72
237.922	75
238.156	79
238.39	77
238.624	78
238.858	81
239.091	78
239.325	75
239.559	67
239.793	75
240.027	73
240.26	85
240.494	70
240.728	70
240.961	80
241.195	73
241.429	83
241.662	84
241.896	87
242.13	71
242.363	75
242.597	78
242.83	76
243.064	96
243.298	78
243.531	83
243.765	90
243.998	76
244.232	88
244.465	86
244.699	79
244.932	59
245.166	84
245.399	86
245.633	71
245.866	80
246.099	84
246.333	86
246.566	68
246.8	74
247.033	79
247.266	86
247.5	87
247.733	84
247.966	79
248.2	89
248.433	88
248.666	78
248.899	73
249.133	78
249.366	80
249.599	80
249.832	75
250.066	83
250.299	83
250.532	79
250.765	76
250.998	75
251.231	73
251.465	81
251.698	91
251.931	79
252.164	77
252.397	81
252.63	82
252.863	87
253.096	77
253.329	87
253.562	78
253.795	81
254.028	74
254.261	82
254.494	85
254.727	82
254.96	91
255.193	77
255.426	90
255.659	87
255.892	87
256.124	77
256.357	83
256.59	73
256.823	80
257.056	83
257.289	89
257.521	86
257.754	92
257.987	76
258.22	85
258.452	89
258.685	91
258.918	78
259.151	82
259.383	87
259.616	82
259.849	79
260.081	102
260.314	78
260.547	84
260.779	86
261.012	64
261.244	81
261.477	86
261.71	81
261.942	81
262.175	94
262.407	78
262.64	81
262.872	84
263.105	82
263.337	81
263.57	91
263.802	85
264.035	89
264.267	80
264.499	95
264.732	80
264.964	89
265.197	77
265.429	83
265.661	86
265.894	99
266.126	84
266.358	74
266.591	85
266.823	90
267.055	86
267.287	84
267.52	80
267.752	88
267.984	83
268.216	71
268.448	72
268.681	86
268.913	103
269.145	86
269.377	92
269.609	78
269.841	90
270.073	72
270.306	82
270.538	90
270.77	71
271.002	88
271.234	87
271.466	99
271.698	85
271.93	90
272.162	84
272.394	98
272.626	84
272.858	88
273.09	86
273.322	89
273.553	87
273.785	98
274.017	92
274.249	98
274.481	91
274.713	78
274.945	83
275.176	83
275.408	84
275.64	87
275.872	84
276.104	91
276.335	99
276.567	99
276.799	74
277.031	89
277.262	77
277.494	89
277.726	102
277.957	96
278.189	101
278.421	95
278.652	93
278.884	95
279.115	100
279.347	88
279.579	91
279.81	85
280.042	99
280.273	86
280.505	85
280.736	80
280.968	80
281.199	95
281.431	75
281.662	83
281.894	94
282.125	93
282.356	91
282.588	98
282.819	82
283.051	85
283.282	78
283.513	81
283.745	84
283.976	90
284.207	84
284.439	81
284.67	95
284.901	94
285.132	80
285.364	86
285.595	88
285.826	86
286.057	96
286.288	86
286.52	104
286.751	87
286.982	112
287.213	79
287.444	85
287.675	80
287.906	78
288.138	99
288.369	88
288.6	87
288.831	84
289.062	80
289.293	77
289.524	78
289.755	92
289.986	82
290.217	90
290.448	87
290.679	92
290.91	87
291.141	92
291.371	72
291.602	83
291.833	72
292.064	79
292.295	98
292.526	97
292.757	97
292.987	91
293.218	99
293.449	76
293.68	105
293.91	99
294.141	94
294.372	73
294.603	85
294.833	89
295.064	86
295.295	91
295.525	72
295.756	89
295.987	78
296.217	98
296.448	104
296.679	77
296.909	75
297.14	84
297.37	95
297.601	84
297.831	89
298.062	85
298.292	80
298.523	78
298.753	93
298.984	87
299.214	96
299.445	87
299.675	97
299.905	84
300.136	90
300.366	111
300.597	88
300.827	86
301.057	83
301.288	88
301.518	90
301.748	91
301.979	92
302.209	96
302.439	99
302.669	77
302.9	94
303.13	85
303.36	90
303.59	79
303.82	87
304.051	86
304.281	90
304.511	86
304.741	76
304.971	94
305.201	89
305.431	93
305.661	94
305.891	89
306.121	75
306.352	80
306.582	82
306.812	80
307.042	100
307.272	80
307.502	92
307.731	94
307.961	90
308.191	82
308.421	74
308.651	98
308.881	88
309.111	95
309.341	71
309.571	77
309.8	90
310.03	89
310.26	91
310.49	91
310.72	83
310.949	84
311.179	95
311.409	101
311.639	79
311.868	95
312.098	79
312.328	97
312.557	98
312.787	85
313.017	87
313.246	102
313.476	88
313.706	93
313.935	99
314.165	91
314.394	98
314.624	95
314.853	92
315.083	80
315.312	118
315.542	110
315.771	94
316.001	81
316.23	89
316.46	91
316.689	88
316.919	80
317.148	101
317.377	103
317.607	87
317.836	90
318.065	83
318.295	92
318.524	91
318.753	94
318.983	96
319.212	88
319.441	88
319.67	86
319.9	77
320.129	85
320.358	92
320.587	89
320.816	95
321.046	90
321.275	101
321.504	91
321.733	88
321.962	71
322.191	92
322.42	91
322.649	84
322.878	92
323.108	90
323.337	86
323.566	83
323.795	86
324.024	87
324.253	96
324.482	88
324.71	90
324.939	99
325.168	78
325.397	91
325.626	98
325.855	96
326.084	84
326.313	90
326.542	88
326.77	90
326.999	88
327.228	70
327.457	81
327.686	93
327.914	87
328.143	101
328.372	91
328.6	91
328.829	90
329.058	86
329.287	81
329.515	94
329.744	96
329.972	101
330.201	86
330.43	82
330.658	86
330.887	85
331.115	92
331.344	100
331.572	86
331.801	75
332.03	85
332.258	88
332.486	94
332.715	97
332.943	86
333.172	75
333.4	89
333.629	98
333.857	75
334.085	74
334.314	87
334.542	94
334.771	90
334.999	84
335.227	82
335.455	91
335.684	95
335.912	91
336.14	92
336.369	88
336.597	94
336.825	88
337.053	97
337.281	86
337.51	93
337.738	91
337.966	85
338.194	90
338.422	77
338.65	92
338.878	83
339.106	80
339.334	91
339.562	80
339.79	81
340.018	90
340.246	93
340.474	90
340.702	93
340.93	98
341.158	79
341.386	84
341.614	84
341.842	83
342.07	101
342.298	106
342.526	80
342.754	85
342.981	90
343.209	86
343.437	97
343.665	107
343.893	94
344.12	79
344.348	85
344.576	94
344.804	98
345.031	92
345.259	85
345.487	91
345.714	95
345.942	82
346.17	92
346.397	92
346.625	92
346.853	79
347.08	108
347.308	99
347.535	97
347.763	104
347.99	83
348.218	77
348.445	87
348.673	93
348.9	93
349.128	95
349.355	90
349.583	72
349.81	79
350.037	78
350.265	92
350.492	93
350.72	89
350.947	83
351.174	93
351.402	97
351.629	99
351.856	95
352.083	99
352.311	82
352.538	86
352.765	92
352.992	85
353.22	97
353.447	90
353.674	103
353.901	86
354.128	79
354.355	79
354.583	82
354.81	75
355.037	90
355.264	91
355.491	100
355.718	94
355.945	80
356.172	81
356.399	64
356.626	101
356.853	83
357.08	86
357.307	100
357.534	99
357.761	85
357.988	86
358.215	95
358.441	95
358.668	75
358.895	80
359.122	89
359.349	76
359.576	90
359.802	95
360.029	72
360.256	84
360.483	81
360.709	90
360.936	97
361.163	106
361.39	80
361.616	84
361.843	83
362.07	77
362.296	117
362.523	94
362.749	91
362.976	93
363.203	111
363.429	84
363.656	88
363.882	86
364.109	82
364.335	84
364.562	80
364.788	68
365.015	98
365.241	90
365.468	88
365.694	78
365.92	91
366.147	80
366.373	88
366.599	79
366.826	89
367.052	96
367.278	96
367.505	89
367.731	98
367.957	94
368.184	86
368.41	78
368.636	70
368.862	85
369.089	87
369.315	93
369.541	79
369.767	90
369.993	82
370.219	78
370.445	80
370.672	87
370.898	91
371.124	91
371.35	82
371.576	90
371.802	95
372.028	101
372.254	84
372.48	76
372.706	87
372.932	96
373.158	80
373.384	94
373.61	97
373.835	86
374.061	85
374.287	86
374.513	94
374.739	85
374.965	84
375.191	92
375.416	95
375.642	85
375.868	95
376.094	100
376.319	84
376.545	85
376.771	76
376.997	89
377.222	86
377.448	88
377.674	81
377.899	92
378.125	98
378.35	96
378.576	100
378.802	86
379.027	100
379.253	92
379.478	88
379.704	84
379.929	78
380.155	83
380.38	78
380.606	74
380.831	74
381.057	97
381.282	84
381.507	74
381.733	76
381.958	87
382.184	85
382.409	85
382.634	80
382.86	84
383.085	83
383.31	98
383.535	97
383.761	88
383.986	93
384.211	91
384.436	87
384.662	90
384.887	87
385.112	86
385.337	91
385.562	95
385.787	83
386.013	109
386.238	103
386.463	90
386.688	86
386.913	84
387.138	82
387.363	78
387.588	82
387.813	86
388.038	89
388.263	88
388.488	84
388.713	82
388.938	94
389.163	99
389.387	101
389.612	98
389.837	77
390.062	95
390.287	83
390.512	74
390.736	82
390.961	82
391.186	79
391.411	82
391.636	103
391.86	90
392.085	101
392.31	94
392.534	94
392.759	80
392.984	75
393.208	76
393.433	89
393.658	86
393.882	83
394.107	80
394.331	94
394.556	86
394.78	72
395.005	84
395.229	86
395.454	85
395.678	84
395.903	89
396.127	93
396.352	99
396.576	78
396.801	92
397.025	90
397.249	85
397.474	95
397.698	100
397.922	91
398.147	92
398.371	81
398.595	72
398.82	87
399.044	87
399.268	88
399.492	100
399.717	89
399.941	82
400.165	78
400.389	81
400.613	90
400.837	88
401.062	86
401.286	96
401.51	78
401.734	88
401.958	103
402.182	84
402.406	95
402.63	83
402.854	94
403.078	90
403.302	79
403.526	80
403.75	105
403.974	84
404.198	86
404.422	82
404.645	73
404.869	89
405.093	99
405.317	88
405.541	98
405.765	92
405.988	80
406.212	85
406.436	93
406.66	94
406.883	72
407.107	90
407.331	90
407.555	91
407.778	95
408.002	99
408.226	76
408.449	89
408.673	85
408.896	81
409.12	79
409.344	80
409.567	95
409.791	97
410.014	78
410.238	79
410.461	85
410.685	83
410.908	83
411.132	105
411.355	80
411.578	95
411.802	92
412.025	61
412.249	93
412.472	83
412.695	89
412.919	94
413.142	88
413.365	91
413.589	93
413.812	76
414.035	100
414.258	81
414.482	90
414.705	86
414.928	98
415.151	78
415.374	91
415.597	89
415.821	106
416.044	86
416.267	86
416.49	75
416.713	91
416.936	86
417.159	96
417.382	93
417.605	85
417.828	89
418.051	89
418.274	91
418.497	94
418.72	89
418.943	88
419.166	92
419.389	98
419.611	97
419.834	74
420.057	101
420.28	94
420.503	90
420.726	90
420.948	86
421.171	89
421.394	102
421.617	110
421.839	80
422.062	93
422.285	77
422.507	77
422.73	93
422.953	101
423.175	71
423.398	101
423.621	83
423.843	80
424.066	94
424.288	93
424.511	88
424.733	75
424.956	86
425.178	90
425.401	90
425.623	95
425.846	87
426.068	86
426.291	100
426.513	90
426.735	94
426.958	77
427.18	95
427.402	89
427.625	91
427.847	91
428.069	90
428.292	83
428.514	85
428.736	85
428.958	80
429.181	92
429.403	84
429.625	96
429.847	96
430.069	93
430.292	99
430.514	92
430.736	75
430.958	89
431.18	86
431.402	92
431.624	91
431.846	96
432.068	91
432.29	83
432.512	101
432.734	87
432.956	84
433.178	94
433.4	82
433.622	98
433.844	79
434.066	82
434.287	76
434.509	87
434.731	94
434.953	73
435.175	83
435.397	95
435.618	78
435.84	89
436.062	99
436.284	91
436.505	90
436.727	85
436.949	107
437.17	87
437.392	83
437.614	84
437.835	85
438.057	91
438.278	101
438.5	105
438.721	92
438.943	84
439.165	88
439.386	83
439.608	92
439.829	101
440.05	103
440.272	90
440.493	88
440.715	85
440.936	91
441.158	76
441.379	83
441.6	80
441.822	101
442.043	94
442.264	85
442.486	81
442.707	89
442.928	92
443.149	88
443.371	105
443.592	83
443.813	80
444.034	93
444.255	105
444.476	99
444.698	90
444.919	98
445.14	199
445.361	165
445.582	109
445.803	75
446.024	90
446.245	88
446.466	83
446.687	90
446.908	96
447.129	81
447.35	109
447.571	99
447.792	85
448.013	92
448.234	98
448.455	104
448.675	106
448.896	85
449.117	92
449.338	89
449.559	83
449.779	93
450	84
450.221	77
450.442	88
450.662	91
450.883	84
451.104	93
451.324	85
451.545	88
451.766	68
451.986	98
452.207	91
452.428	82
452.648	87
452.869	95
453.089	80
453.31	94
453.53	95
453.751	82
453.971	82
454.192	99
454.412	96
454.633	88
454.853	85
455.073	92
455.294	90
455.514	97
455.734	90
455.955	93
456.175	90
456.395	80
456.616	105
456.836	97
457.056	79
457.276	94
457.497	82
457.717	77
457.937	81
458.157	87
458.377	78
458.598	77
458.818	90
459.038	88
459.258	79
459.478	90
459.698	88
459.918	82
460.138	92
460.358	86
460.578	93
460.798	94
461.018	77
461.238	100
461.458	95
461.678	91
461.898	109
462.118	87
462.338	84
462.558	80
462.777	78
462.997	93
463.217	96
463.437	108
463.657	98
463.876	96
464.096	82
464.316	91
464.536	82
464.755	95
464.975	83
465.195	95
465.414	86
465.634	81
465.854	87
466.073	99
466.293	94
466.512	103
466.732	84
466.951	102
467.171	78
467.391	90
467.61	102
467.829	100
468.049	89
468.268	82
468.488	89
468.707	103
468.927	99
469.146	88
469.365	101
469.585	94
469.804	73
470.023	81
470.243	84
470.462	83
470.681	91
470.901	90
471.12	90
471.339	87
471.558	108
471.777	90
471.997	79
472.216	101
472.435	94
472.654	88
472.873	84
473.092	79
473.311	89
473.53	95
473.749	87
473.968	99
474.187	93
474.406	88
474.625	96
474.844	104
475.063	92
475.282	62
475.501	77
475.72	88
475.939	87
476.158	78
476.377	92
476.596	96
476.814	103
477.033	86
477.252	94
477.471	96
477.69	81
477.908	106
478.127	91
478.346	97
478.564	88
478.783	107
479.002	91
479.22	93
479.439	91
479.658	89
479.876	99
480.095	82
480.313	93
480.532	94
480.751	107
480.969	103
481.188	87
481.406	90
481.624	86
481.843	85
482.061	89
482.28	88
482.498	84
482.717	101
482.935	90
483.153	95
483.372	84
483.59	103
483.808	88
484.027	92
484.245	91
484.463	86
484.681	101
484.9	91
485.118	101
485.336	85
485.554	117
485.772	99
485.99	109
486.209	92
486.427	93
486.645	90
486.863	92
487.081	95
487.299	82
487.517	97
487.735	104
487.953	100
488.171	112
488.389	102
488.607	78
488.825	92
489.043	100
489.261	100
489.479	99
489.696	94
489.914	102
490.132	83
490.35	106
490.568	96
490.786	86
491.003	100
491.221	83
491.439	101
491.657	98
491.874	90
492.092	111
492.31	108
492.527	103
492.745	90
492.963	114
493.18	110
493.398	92
493.615	94
493.833	110
494.05	101
494.268	87
494.485	96
494.703	77
494.92	90
495.138	98
495.355	112
495.573	100
495.79	92
496.008	100
496.225	106
496.442	96
496.66	91
496.877	100
497.094	105
497.312	99
497.529	92
497.746	110
497.963	93
498.181	111
498.398	89
498.615	105
498.832	102
499.049	100
499.267	102
499.484	97
499.701	115
499.918	117
500.135	119
500.352	110
500.569	111
500.786	108
501.003	115
501.22	100
501.437	105
501.654	107
501.871	100
502.088	98
502.305	106
502.522	110
502.739	98
502.956	84
503.172	96
503.389	101
503.606	108
503.823	89
504.04	92
504.256	91
504.473	93
504.69	95
504.907	115
505.123	97
505.34	95
505.557	99
505.773	87
505.99	86
506.207	89
506.423	95
506.64	95
506.856	92
507.073	94
507.289	86
507.506	94
507.722	103
507.939	87
508.155	83
508.372	83
508.588	94
508.805	88
509.021	87
509.238	97
509.454	120
509.67	88
509.887	101
510.103	86
510.319	91
510.536	93
510.752	88
510.968	90
511.184	91
511.401	87
511.617	83
511.833	82
512.049	94
512.265	90
512.481	99
512.698	84
512.914	84
513.13	77
513.346	79
513.562	95
513.778	79
513.994	86
514.21	95
514.426	95
514.642	98
514.858	98
515.074	91
515.29	88
515.506	94
515.721	111
515.937	95
516.153	92
516.369	93
516.585	104
516.801	93
517.016	86
517.232	108
517.448	103
517.664	98
517.879	109
518.095	97
518.311	93
518.527	77
518.742	95
518.958	95
519.173	100
519.389	102
519.605	87
519.82	94
520.036	90
520.251	93
520.467	91
520.682	98
520.898	92
521.113	94
521.329	92
521.544	99
521.76	98
521.975	87
522.19	98
522.406	113
522.621	103
522.836	100
523.052	84
523.267	79
523.482	95
523.698	82
523.913	101
524.128	95
524.343	108
524.559	84
524.774	93
524.989	102
525.204	98
525.419	107
525.634	95
525.849	103
526.064	109
526.28	89
526.495	84
526.71	94
526.925	83
527.14	91
527.355	91
527.57	89
527.785	91
527.999	93
528.214	90
528.429	90
528.644	87
528.859	103
529.074	105
529.289	95
529.503	105
529.718	85
529.933	94
530.148	100
530.363	96
530.577	93
530.792	98
531.007	93
531.221	91
531.436	81
531.651	95
531.865	89
532.08	77
532.295	105
532.509	79
532.724	90
532.938	79
533.153	105
533.367	89
533.582	102
533.796	78
534.011	87
534.225	90
534.44	113
534.654	100
534.868	98
535.083	76
535.297	91
535.511	85
535.726	97
535.94	96
536.154	90
536.369	87
536.583	89
536.797	93
537.011	81
537.225	74
537.44	78
537.654	86
537.868	96
538.082	86
538.296	88
538.51	88
538.724	95
538.938	84
539.153	105
539.367	74
539.581	98
539.795	90
540.009	92
540.222	87
540.436	96
540.65	91
540.864	87
541.078	80
541.292	95
541.506	85
541.72	105
541.934	84
542.147	78
542.361	90
542.575	84
542.789	93
543.002	81
543.216	92
543.43	100
543.644	94
543.857	81
544.071	98
544.285	101
544.498	88
544.712	85
544.925	90
545.139	93
545.352	88
545.566	93
545.779	94
545.993	103
546.206	102
546.42	83
546.633	75
546.847	84
547.06	99
547.274	100
547.487	97
547.7	96
547.914	92
548.127	88
548.34	84
548.554	85
548.767	96
548.98	99
549.193	95
549.407	87
549.62	95
549.833	91
550.046	88
550.259	102
550.473	102
550.686	97
550.899	93
551.112	114
551.325	86
551.538	81
551.751	85
551.964	85
552.177	85
552.39	96
552.603	89
552.816	88
553.029	93
553.242	99
553.455	93
553.667	104
553.88	96
554.093	99
554.306	98
554.519	93
554.732	97
554.944	94
555.157	90
555.37	105
555.583	92
555.795	106
556.008	98
556.221	93
556.433	95
556.646	89
556.859	99
557.071	99
557.284	94
557.496	110
557.709	98
557.921	88
558.134	90
558.346	84
558.559	97
558.771	82
558.984	89
559.196	98
559.409	101
559.621	94
559.833	93
560.046	108
560.258	93
560.47	102
560.683	79
560.895	88
561.107	90
561.32	96
561.532	93
561.744	89
561.956	98
562.168	92
562.381	85
562.593	80
562.805	78
563.017	82
563.229	80
563.441	82
563.653	89
563.865	103
564.077	78
564.289	96
564.501	87
564.713	90
564.925	92
565.137	95
565.349	97
565.561	85
565.773	102
565.985	90
566.197	98
566.408	88
566.62	85
566.832	97
567.044	95
567.255	85
567.467	95
567.679	92
567.891	88
568.102	97
568.314	97
568.526	90
568.737	101
568.949	94
569.161	95
569.372	92
569.584	96
569.795	89
570.007	80
570.218	89
570.43	94
570.641	92
570.853	103
571.064	91
571.276	83
571.487	93
571.698	87
571.91	101
572.121	92
572.333	115
572.544	78
572.755	93
572.966	92
573.178	88
573.389	95
573.6	88
573.811	89
574.023	90
574.234	94
574.445	86
574.656	83
574.867	80
575.078	91
575.289	79
575.501	84
575.712	99
575.923	92
576.134	96
576.345	88
576.556	98
576.767	92
576.978	94
577.188	98
577.399	94
577.61	86
577.821	96
578.032	100
578.243	93
578.454	86
578.665	103
578.875	74
579.086	83
579.297	93
579.508	86
579.718	84
579.929	83
580.14	101
580.35	95
580.561	80
580.772	96
580.982	95
581.193	96
581.403	106
581.614	99
581.825	83
582.035	93
582.246	85
582.456	102
582.667	78
582.877	86
583.087	93
583.298	77
583.508	89
583.719	90
583.929	77
584.139	86
584.35	83
584.56	98
584.77	92
584.981	101
585.191	90
585.401	91
585.611	74
585.821	83
586.032	98
586.242	106
586.452	107
586.662	93
586.872	92
587.082	99
587.292	91
587.502	86
587.713	72
587.923	79
588.133	87
588.343	86
588.553	92
588.762	101
588.972	86
589.182	94
589.392	93
589.602	83
589.812	98
590.022	99
590.232	87
590.441	93
590.651	82
590.861	86
591.071	92
591.281	94
591.49	86
591.7	86
591.91	88
592.119	96
592.329	96
592.539	89
592.748	99
592.958	92
593.167	103
593.377	97
593.587	90
593.796	103
594.006	102
594.215	93
594.424	84
594.634	77
594.843	75
595.053	86
595.262	80
595.472	74
595.681	93
595.89	87
596.1	93
596.309	101
596.518	81
596.727	79
596.937	92
597.146	83
597.355	70
597.564	73
597.774	96
597.983	75
598.192	91
598.401	92
598.61	81
598.819	90
599.028	80
599.237	83
599.446	78
599.655	88
599.864	83
600.073	89
600.282	88
600.491	82
600.7	82
600.909	81
601.118	90
601.327	90
601.536	91
601.745	86
601.953	98
602.162	91
602.371	101
602.58	95
602.789	91
602.997	99
603.206	93
603.415	76
603.623	90
603.832	85
604.041	74
604.249	77
604.458	87
604.666	90
604.875	77
605.084	86
605.292	96
605.501	82
605.709	89
605.918	79
606.126	76
606.334	96
606.543	98
606.751	93
606.96	71
607.168	81
607.376	84
607.585	92
607.793	77
608.001	79
608.21	83
608.418	66
608.626	79
608.834	79
609.043	99
609.251	87
609.459	85
609.667	100
609.875	95
610.083	85
610.291	84
610.499	95
610.707	90
610.916	91
611.124	102
611.332	89
611.54	88
611.748	90
611.955	101
612.163	82
612.371	88
612.579	82
612.787	79
612.995	89
613.203	97
613.411	88
613.618	92
613.826	69
614.034	92
614.242	100
614.449	91
614.657	90
614.865	96
615.072	93
615.28	93
615.488	75
615.695	84
615.903	86
616.111	86
616.318	91
616.526	86
616.733	93
616.941	79
617.148	79
617.356	85
617.563	92
617.771	87
617.978	87
618.185	84
618.393	90
618.6	84
618.807	86
619.015	84
619.222	78
619.429	89
619.637	92
619.844	85
620.051	91
620.258	96
620.466	78
620.673	80
620.88	81
621.087	78
621.294	90
621.501	75
621.708	88
621.915	89
622.122	83
622.329	89
622.536	94
622.743	100
622.95	82
623.157	88
623.364	86
623.571	97
623.778	84
623.985	92
624.192	87
624.399	86
624.606	98
624.812	81
625.019	86
625.226	83
625.433	81
625.639	83
625.846	80
626.053	100
626.259	97
626.466	94
626.673	79
626.879	92
627.086	89
627.293	87
627.499	100
627.706	84
627.912	93
628.119	78
628.325	83
628.532	86
628.738	102
628.945	78
629.151	80
629.357	95
629.564	86
629.77	85
629.976	89
630.183	82
630.389	97
630.595	95
630.802	84
631.008	73
631.214	87
631.42	102
631.627	81
631.833	83
632.039	86
632.245	81
632.451	90
632.657	97
632.863	107
633.069	78
633.275	96
633.481	100
633.688	87
633.893	84
634.099	93
634.305	91
634.511	92
634.717	90
634.923	101
635.129	82
635.335	97
635.541	86
635.747	84
635.952	87
636.158	90
636.364	85
636.57	83
636.775	93
636.981	91
637.187	91
637.392	102
637.598	99
637.804	81
638.009	87
638.215	82
638.421	84
638.626	94
638.832	78
639.037	85
639.243	78
639.448	91
639.654	95
639.859	82
640.065	78
640.27	101
640.475	79
640.681	84
640.886	81
641.091	80
641.297	84
641.502	77
641.707	76
641.913	90
642.118	89
642.323	85
642.528	91
642.733	80
642.939	90
643.144	78
643.349	79
643.554	84
643.759	81
643.964	93
644.169	80
644.374	80
644.579	79
644.784	80
644.989	75
645.194	87
645.399	80
645.604	95
645.809	103
646.014	80
646.219	71
646.423	80
646.628	68
646.833	62
647.038	74
647.243	81
647.447	91
647.652	90
647.857	100
648.062	96
648.266	83
648.471	75
648.676	76
648.88	91
649.085	92
649.289	80
649.494	88
649.698	86
649.903	88
650.107	86
650.312	81
650.516	87
650.721	75
650.925	86
651.13	84
651.334	80
651.539	84
651.743	90
651.947	84
652.152	87
652.356	93
652.56	99
652.764	88
652.969	88
653.173	102
653.377	85
653.581	93
653.785	93
653.99	79
654.194	70
654.398	88
654.602	88
654.806	91
655.01	96
655.214	99
655.418	95
655.622	86
655.826	84
656.03	90
656.234	94
656.438	89
656.642	90
656.846	87
657.049	98
657.253	83
657.457	81
657.661	88
657.865	85
658.068	71
658.272	80
658.476	84
658.68	107
658.883	91
659.087	84
659.291	85
659.494	98
659.698	90
659.901	86
660.105	79
660.309	90
660.512	91
660.716	90
660.919	84
661.123	97
661.326	95
661.53	84
661.733	88
661.936	79
662.14	81
662.343	92
662.546	78
662.75	79
662.953	77
663.156	91
663.36	82
663.563	85
663.766	79
663.969	94
664.173	81
664.376	86
664.579	81
664.782	79
664.985	81
665.188	81
665.391	86
665.594	71
665.797	89
666	84
666.203	86
666.406	82
666.609	82
666.812	81
667.015	79
667.218	80
667.421	90
667.624	78
667.827	90
668.03	82
668.232	91
668.435	97
668.638	78
668.841	96
669.043	95
669.246	78
669.449	94
669.651	79
669.854	70
670.057	98
670.259	73
670.462	79
670.665	95
670.867	95
671.07	71
671.272	96
671.475	86
671.677	83
671.88	86
672.082	86
672.284	89
672.487	78
672.689	95
672.892	89
