Data from Ni(NO3)2Standard.Agarose3%.GreenCap.LampEnergy5.5.E.O_HRD10591_14-40-16-188.txt Node
Date: Mon Jul 22 14:40:16 EDT 2019
User: cochatt
Spectrometer: HR+D1059
Trigger mode: 1
Integration Time (sec): 1.000000E-1
Scans to average: 1
Electric dark correction enabled: true
Nonlinearity correction enabled: false
Boxcar width: 0
XAxis mode: Wavelengths
Number of Pixels in Spectrum: 2048
>>>>>Begin Spectral Data<<<<<
223.165	-2
223.4	-2
223.635	-2
223.869	-23
224.104	-17
224.338	-19
224.573	-25
224.808	-21
225.042	-13
225.277	3
225.511	6
225.746	7
225.98	8
226.215	4
226.449	12
226.683	25
226.918	27
227.152	28
227.387	35
227.621	27
227.856	51
228.09	51
228.324	61
228.559	46
228.793	60
229.027	72
229.262	70
229.496	63
229.73	75
229.964	76
230.199	83
230.433	81
230.667	84
230.901	84
231.136	74
231.37	90
231.604	84
231.838	84
232.072	83
232.306	91
232.541	77
232.775	85
233.009	73
233.243	82
233.477	70
233.711	83
233.945	107
234.179	93
234.413	86
234.647	83
234.881	89
235.115	79
235.349	84
235.583	75
235.817	86
236.051	88
236.285	85
236.519	67
236.753	85
236.987	75
237.221	95
237.455	72
237.689	77
237.922	84
238.156	81
238.39	67
238.624	69
238.858	83
239.091	73
239.325	84
239.559	77
239.793	78
240.027	83
240.26	76
240.494	74
240.728	76
240.961	92
241.195	75
241.429	70
241.662	69
241.896	76
242.13	67
242.363	59
242.597	83
242.83	74
243.064	72
243.298	88
243.531	93
243.765	90
243.998	87
244.232	77
244.465	73
244.699	70
244.932	72
245.166	75
245.399	78
245.633	78
245.866	85
246.099	79
246.333	83
246.566	77
246.8	93
247.033	75
247.266	76
247.5	68
247.733	87
247.966	85
248.2	75
248.433	88
248.666	92
248.899	77
249.133	73
249.366	77
249.599	83
249.832	76
250.066	73
250.299	105
250.532	91
250.765	82
250.998	84
251.231	67
251.465	72
251.698	76
251.931	93
252.164	84
252.397	101
252.63	76
252.863	80
253.096	86
253.329	68
253.562	85
253.795	74
254.028	88
254.261	80
254.494	69
254.727	89
254.96	87
255.193	78
255.426	78
255.659	76
255.892	83
256.124	89
256.357	87
256.59	89
256.823	102
257.056	84
257.289	91
257.521	84
257.754	91
257.987	83
258.22	83
258.452	71
258.685	85
258.918	74
259.151	89
259.383	81
259.616	72
259.849	75
260.081	70
260.314	86
260.547	78
260.779	70
261.012	73
261.244	85
261.477	92
261.71	82
261.942	85
262.175	85
262.407	77
262.64	80
262.872	93
263.105	74
263.337	78
263.57	98
263.802	71
264.035	91
264.267	92
264.499	84
264.732	95
264.964	91
265.197	90
265.429	85
265.661	88
265.894	91
266.126	96
266.358	86
266.591	79
266.823	73
267.055	87
267.287	84
267.52	75
267.752	90
267.984	85
268.216	83
268.448	88
268.681	90
268.913	82
269.145	77
269.377	79
269.609	88
269.841	89
270.073	94
270.306	94
270.538	78
270.77	89
271.002	83
271.234	70
271.466	89
271.698	74
271.93	88
272.162	90
272.394	90
272.626	93
272.858	77
273.09	85
273.322	84
273.553	88
273.785	82
274.017	87
274.249	88
274.481	85
274.713	93
274.945	89
275.176	101
275.408	94
275.64	93
275.872	79
276.104	76
276.335	89
276.567	83
276.799	90
277.031	88
277.262	84
277.494	83
277.726	90
277.957	81
278.189	92
278.421	82
278.652	78
278.884	103
279.115	80
279.347	105
279.579	88
279.81	79
280.042	88
280.273	91
280.505	82
280.736	88
280.968	102
281.199	92
281.431	87
281.662	81
281.894	108
282.125	81
282.356	98
282.588	85
282.819	93
283.051	87
283.282	77
283.513	101
283.745	85
283.976	89
284.207	73
284.439	81
284.67	83
284.901	86
285.132	93
285.364	78
285.595	87
285.826	90
286.057	85
286.288	92
286.52	96
286.751	86
286.982	96
287.213	77
287.444	91
287.675	100
287.906	81
288.138	77
288.369	75
288.6	83
288.831	80
289.062	88
289.293	88
289.524	80
289.755	85
289.986	85
290.217	78
290.448	88
290.679	77
290.91	86
291.141	97
291.371	74
291.602	91
291.833	72
292.064	77
292.295	96
292.526	93
292.757	89
292.987	88
293.218	84
293.449	89
293.68	97
293.91	84
294.141	106
294.372	89
294.603	77
294.833	86
295.064	84
295.295	78
295.525	81
295.756	83
295.987	82
296.217	90
296.448	92
296.679	85
296.909	81
297.14	85
297.37	78
297.601	88
297.831	84
298.062	75
298.292	82
298.523	89
298.753	89
298.984	91
299.214	88
299.445	91
299.675	86
299.905	100
300.136	95
300.366	84
300.597	93
300.827	88
301.057	91
301.288	88
301.518	93
301.748	86
301.979	88
302.209	91
302.439	75
302.669	85
302.9	75
303.13	91
303.36	87
303.59	86
303.82	71
304.051	78
304.281	103
304.511	88
304.741	86
304.971	73
305.201	98
305.431	90
305.661	94
305.891	87
306.121	94
306.352	92
306.582	85
306.812	89
307.042	84
307.272	74
307.502	92
307.731	91
307.961	91
308.191	94
308.421	96
308.651	98
308.881	84
309.111	96
309.341	88
309.571	95
309.8	89
310.03	95
310.26	86
310.49	81
310.72	75
310.949	77
311.179	85
311.409	99
311.639	93
311.868	91
312.098	76
312.328	88
312.557	98
312.787	89
313.017	93
313.246	73
313.476	82
313.706	94
313.935	90
314.165	93
314.394	94
314.624	94
314.853	88
315.083	80
315.312	84
315.542	95
315.771	87
316.001	78
316.23	91
316.46	88
316.689	86
316.919	82
317.148	101
317.377	99
317.607	115
317.836	78
318.065	92
318.295	91
318.524	80
318.753	91
318.983	69
319.212	69
319.441	99
319.67	116
319.9	96
320.129	107
320.358	90
320.587	96
320.816	82
321.046	85
321.275	91
321.504	82
321.733	88
321.962	90
322.191	88
322.42	101
322.649	100
322.878	93
323.108	85
323.337	93
323.566	92
323.795	103
324.024	87
324.253	100
324.482	89
324.71	85
324.939	89
325.168	89
325.397	81
325.626	93
325.855	86
326.084	81
326.313	87
326.542	92
326.77	85
326.999	87
327.228	86
327.457	71
327.686	72
327.914	93
328.143	93
328.372	98
328.6	82
328.829	80
329.058	94
329.287	87
329.515	84
329.744	91
329.972	93
330.201	92
330.43	94
330.658	90
330.887	84
331.115	82
331.344	75
331.572	82
331.801	90
332.03	88
332.258	86
332.486	88
332.715	84
332.943	105
333.172	92
333.4	85
333.629	85
333.857	99
334.085	79
334.314	88
334.542	90
334.771	85
334.999	105
335.227	91
335.455	92
335.684	94
335.912	84
336.14	83
336.369	100
336.597	92
336.825	76
337.053	89
337.281	86
337.51	82
337.738	90
337.966	81
338.194	83
338.422	85
338.65	82
338.878	92
339.106	84
339.334	84
339.562	88
339.79	81
340.018	84
340.246	93
340.474	92
340.702	85
340.93	106
341.158	89
341.386	88
341.614	91
341.842	90
342.07	87
342.298	85
342.526	78
342.754	85
342.981	71
343.209	77
343.437	87
343.665	93
343.893	81
344.12	73
344.348	88
344.576	83
344.804	96
345.031	97
345.259	84
345.487	85
345.714	91
345.942	82
346.17	74
346.397	97
346.625	85
346.853	82
347.08	75
347.308	82
347.535	93
347.763	85
347.99	84
348.218	100
348.445	80
348.673	71
348.9	99
349.128	78
349.355	82
349.583	82
349.81	92
350.037	83
350.265	84
350.492	84
350.72	84
350.947	90
351.174	78
351.402	90
351.629	71
351.856	106
352.083	86
352.311	91
352.538	92
352.765	91
352.992	85
353.22	80
353.447	84
353.674	90
353.901	91
354.128	99
354.355	86
354.583	78
354.81	81
355.037	79
355.264	78
355.491	85
355.718	96
355.945	90
356.172	84
356.399	77
356.626	83
356.853	78
357.08	85
357.307	81
357.534	85
357.761	85
357.988	93
358.215	92
358.441	77
358.668	84
358.895	92
359.122	87
359.349	90
359.576	84
359.802	92
360.029	85
360.256	95
360.483	82
360.709	85
360.936	90
361.163	76
361.39	78
361.616	87
361.843	99
362.07	78
362.296	85
362.523	87
362.749	70
362.976	88
363.203	84
363.429	82
363.656	86
363.882	98
364.109	83
364.335	94
364.562	86
364.788	77
365.015	87
365.241	86
365.468	98
365.694	80
365.92	72
366.147	87
366.373	89
366.599	88
366.826	82
367.052	99
367.278	90
367.505	75
367.731	88
367.957	80
368.184	89
368.41	86
368.636	92
368.862	78
369.089	77
369.315	84
369.541	88
369.767	90
369.993	84
370.219	73
370.445	95
370.672	83
370.898	84
371.124	83
371.35	90
371.576	75
371.802	76
372.028	87
372.254	91
372.48	80
372.706	89
372.932	90
373.158	95
373.384	79
373.61	78
373.835	88
374.061	93
374.287	88
374.513	84
374.739	83
374.965	92
375.191	86
375.416	76
375.642	92
375.868	88
376.094	90
376.319	83
376.545	87
376.771	75
376.997	89
377.222	78
377.448	97
377.674	84
377.899	77
378.125	79
378.35	99
378.576	89
378.802	80
379.027	90
379.253	74
379.478	78
379.704	82
379.929	81
380.155	85
380.38	85
380.606	82
380.831	84
381.057	97
381.282	77
381.507	89
381.733	84
381.958	98
382.184	81
382.409	97
382.634	87
382.86	94
383.085	89
383.31	88
383.535	78
383.761	76
383.986	83
384.211	89
384.436	77
384.662	72
384.887	95
385.112	98
385.337	76
385.562	85
385.787	82
386.013	93
386.238	95
386.463	76
386.688	96
386.913	82
387.138	74
387.363	89
387.588	86
387.813	83
388.038	98
388.263	88
388.488	91
388.713	88
388.938	84
389.163	90
389.387	87
389.612	96
389.837	94
390.062	89
390.287	83
390.512	89
390.736	84
390.961	75
391.186	84
391.411	86
391.636	93
391.86	83
392.085	85
392.31	86
392.534	88
392.759	97
392.984	84
393.208	98
393.433	94
393.658	109
393.882	95
394.107	88
394.331	87
394.556	89
394.78	83
395.005	87
395.229	77
395.454	86
395.678	78
395.903	83
396.127	78
396.352	81
396.576	80
396.801	91
397.025	97
397.249	93
397.474	100
397.698	75
397.922	82
398.147	73
398.371	83
398.595	81
398.82	82
399.044	97
399.268	82
399.492	81
399.717	98
399.941	89
400.165	95
400.389	85
400.613	104
400.837	90
401.062	76
401.286	91
401.51	82
401.734	82
401.958	61
402.182	82
402.406	78
402.63	87
402.854	75
403.078	86
403.302	85
403.526	80
403.75	84
403.974	87
404.198	86
404.422	82
404.645	89
404.869	104
405.093	93
405.317	89
405.541	85
405.765	85
405.988	89
406.212	108
406.436	91
406.66	97
406.883	84
407.107	89
407.331	91
407.555	96
407.778	73
408.002	86
408.226	79
408.449	82
408.673	90
408.896	71
409.12	96
409.344	98
409.567	96
409.791	89
410.014	89
410.238	97
410.461	94
410.685	91
410.908	91
411.132	75
411.355	74
411.578	83
411.802	95
412.025	92
412.249	78
412.472	76
412.695	96
412.919	92
413.142	90
413.365	82
413.589	85
413.812	94
414.035	83
414.258	92
414.482	78
414.705	87
414.928	86
415.151	86
415.374	80
415.597	89
415.821	81
416.044	81
416.267	96
416.49	97
416.713	85
416.936	80
417.159	72
417.382	67
417.605	90
417.828	91
418.051	71
418.274	78
418.497	66
418.72	89
418.943	86
419.166	90
419.389	73
419.611	87
419.834	76
420.057	89
420.28	77
420.503	82
420.726	75
420.948	80
421.171	77
421.394	75
421.617	85
421.839	92
422.062	84
422.285	71
422.507	74
422.73	83
422.953	85
423.175	72
423.398	87
423.621	92
423.843	92
424.066	76
424.288	87
424.511	75
424.733	82
424.956	82
425.178	97
425.401	86
425.623	93
425.846	69
426.068	84
426.291	94
426.513	89
426.735	91
426.958	92
427.18	90
427.402	78
427.625	93
427.847	89
428.069	83
428.292	82
428.514	89
428.736	82
428.958	86
429.181	77
429.403	76
429.625	83
429.847	85
430.069	96
430.292	97
430.514	83
430.736	87
430.958	98
431.18	82
431.402	78
431.624	101
431.846	82
432.068	92
432.29	73
432.512	92
432.734	83
432.956	91
433.178	82
433.4	75
433.622	85
433.844	75
434.066	89
434.287	78
434.509	83
434.731	83
434.953	78
435.175	82
435.397	84
435.618	98
435.84	89
436.062	83
436.284	78
436.505	92
436.727	83
436.949	84
437.17	86
437.392	86
437.614	86
437.835	73
438.057	89
438.278	88
438.5	83
438.721	77
438.943	84
439.165	92
439.386	87
439.608	88
439.829	90
440.05	93
440.272	81
440.493	97
440.715	92
440.936	87
441.158	90
441.379	92
441.6	85
441.822	84
442.043	89
442.264	92
442.486	82
442.707	85
442.928	99
443.149	92
443.371	92
443.592	83
443.813	92
444.034	84
444.255	101
444.476	86
444.698	82
444.919	85
445.14	190
445.361	140
445.582	88
445.803	95
446.024	76
446.245	99
446.466	88
446.687	93
446.908	74
447.129	83
447.35	86
447.571	88
447.792	80
448.013	92
448.234	70
448.455	80
448.675	82
448.896	94
449.117	89
449.338	71
449.559	78
449.779	105
450	86
450.221	86
450.442	89
450.662	84
450.883	77
451.104	79
451.324	80
451.545	70
451.766	75
451.986	85
452.207	61
452.428	78
452.648	94
452.869	87
453.089	90
453.31	93
453.53	69
453.751	75
453.971	95
454.192	86
454.412	75
454.633	87
454.853	72
455.073	83
455.294	78
455.514	92
455.734	92
455.955	90
456.175	100
456.395	92
456.616	93
456.836	87
457.056	81
457.276	86
457.497	92
457.717	83
457.937	74
458.157	84
458.377	87
458.598	81
458.818	77
459.038	87
459.258	84
459.478	89
459.698	96
459.918	88
460.138	105
460.358	97
460.578	85
460.798	82
461.018	93
461.238	88
461.458	97
461.678	89
461.898	81
462.118	98
462.338	84
462.558	94
462.777	92
462.997	84
463.217	86
463.437	88
463.657	86
463.876	87
464.096	89
464.316	82
464.536	91
464.755	86
464.975	79
465.195	90
465.414	89
465.634	93
465.854	93
466.073	102
466.293	82
466.512	82
466.732	75
466.951	94
467.171	81
467.391	101
467.61	87
467.829	90
468.049	99
468.268	90
468.488	87
468.707	82
468.927	90
469.146	86
469.365	103
469.585	87
469.804	86
470.023	89
470.243	77
470.462	67
470.681	84
470.901	78
471.12	72
471.339	82
471.558	90
471.777	92
471.997	103
472.216	102
472.435	88
472.654	84
472.873	84
473.092	91
473.311	101
473.53	90
473.749	79
473.968	86
474.187	77
474.406	98
474.625	90
474.844	90
475.063	81
475.282	91
475.501	94
475.72	93
475.939	84
476.158	98
476.377	84
476.596	80
476.814	93
477.033	98
477.252	91
477.471	84
477.69	90
477.908	95
478.127	100
478.346	111
478.564	93
478.783	84
479.002	95
479.22	95
479.439	97
479.658	101
479.876	88
480.095	83
480.313	80
480.532	95
480.751	105
480.969	105
481.188	98
481.406	97
481.624	95
481.843	69
482.061	99
482.28	90
482.498	99
482.717	90
482.935	109
483.153	104
483.372	101
483.59	78
483.808	81
484.027	76
484.245	103
484.463	86
484.681	98
484.9	105
485.118	99
485.336	92
485.554	98
485.772	82
485.99	84
486.209	98
486.427	91
486.645	91
486.863	89
487.081	97
487.299	92
487.517	89
487.735	97
487.953	84
488.171	90
488.389	88
488.607	96
488.825	99
489.043	90
489.261	98
489.479	94
489.696	96
489.914	89
490.132	100
490.35	85
490.568	95
490.786	79
491.003	103
491.221	101
491.439	85
491.657	97
491.874	104
492.092	95
492.31	90
492.527	87
492.745	94
492.963	102
493.18	98
493.398	99
493.615	94
493.833	109
494.05	91
494.268	88
494.485	102
494.703	85
494.92	107
495.138	92
495.355	103
495.573	85
495.79	83
496.008	89
496.225	84
496.442	86
496.66	100
496.877	97
497.094	102
497.312	109
497.529	86
497.746	88
497.963	90
498.181	107
498.398	95
498.615	93
498.832	100
499.049	102
499.267	99
499.484	111
499.701	102
499.918	114
500.135	96
500.352	112
500.569	114
500.786	128
501.003	106
501.22	105
501.437	107
501.654	99
501.871	98
502.088	101
502.305	98
502.522	100
502.739	91
502.956	93
503.172	95
503.389	93
503.606	101
503.823	108
504.04	84
504.256	84
504.473	95
504.69	98
504.907	98
505.123	76
505.34	88
505.557	97
505.773	94
505.99	95
506.207	107
506.423	92
506.64	107
506.856	89
507.073	98
507.289	97
507.506	90
507.722	89
507.939	90
508.155	92
508.372	98
508.588	90
508.805	90
509.021	102
509.238	92
509.454	91
509.67	104
509.887	102
510.103	96
510.319	99
510.536	99
510.752	90
510.968	99
511.184	93
511.401	85
511.617	94
511.833	96
512.049	104
512.265	106
512.481	99
512.698	97
512.914	86
513.13	93
513.346	89
513.562	110
513.778	88
513.994	108
514.21	85
514.426	97
514.642	98
514.858	89
515.074	98
515.29	106
515.506	100
515.721	100
515.937	99
516.153	95
516.369	104
516.585	96
516.801	93
517.016	100
517.232	96
517.448	101
517.664	97
517.879	93
518.095	90
518.311	105
518.527	106
518.742	88
518.958	97
519.173	103
519.389	95
519.605	102
519.82	91
520.036	101
520.251	99
520.467	104
520.682	80
520.898	82
521.113	88
521.329	92
521.544	88
521.76	96
521.975	96
522.19	82
522.406	90
522.621	84
522.836	86
523.052	93
523.267	92
523.482	89
523.698	93
523.913	110
524.128	95
524.343	111
524.559	108
524.774	87
524.989	90
525.204	104
525.419	102
525.634	96
525.849	91
526.064	90
526.28	89
526.495	100
526.71	93
526.925	86
527.14	90
527.355	100
527.57	95
527.785	95
527.999	86
528.214	104
528.429	82
528.644	102
528.859	99
529.074	91
529.289	85
529.503	93
529.718	89
529.933	89
530.148	91
530.363	94
530.577	91
530.792	98
531.007	96
531.221	86
531.436	105
531.651	88
531.865	83
532.08	93
532.295	90
532.509	86
532.724	86
532.938	89
533.153	94
533.367	85
533.582	82
533.796	84
534.011	88
534.225	93
534.44	95
534.654	88
534.868	99
535.083	83
535.297	92
535.511	92
535.726	82
535.94	94
536.154	110
536.369	93
536.583	77
536.797	96
537.011	93
537.225	93
537.44	94
537.654	93
537.868	93
538.082	80
538.296	100
538.51	91
538.724	98
538.938	95
539.153	86
539.367	95
539.581	77
539.795	86
540.009	100
540.222	90
540.436	82
540.65	92
540.864	86
541.078	81
541.292	97
541.506	87
541.72	117
541.934	96
542.147	92
542.361	91
542.575	93
542.789	81
543.002	92
543.216	97
543.43	93
543.644	93
543.857	88
544.071	91
544.285	109
544.498	96
544.712	84
544.925	94
545.139	96
545.352	88
545.566	96
545.779	96
545.993	96
546.206	95
546.42	82
546.633	89
546.847	90
547.06	98
547.274	99
547.487	99
547.7	89
547.914	89
548.127	91
548.34	98
548.554	101
548.767	104
548.98	84
549.193	83
549.407	101
549.62	96
549.833	91
550.046	87
550.259	93
550.473	83
550.686	106
550.899	83
551.112	94
551.325	87
551.538	97
551.751	89
551.964	89
552.177	100
552.39	104
552.603	105
552.816	99
553.029	91
553.242	89
553.455	104
553.667	89
553.88	100
554.093	91
554.306	100
554.519	87
554.732	96
554.944	93
555.157	97
555.37	91
555.583	93
555.795	90
556.008	91
556.221	84
556.433	87
556.646	101
556.859	89
557.071	84
557.284	85
557.496	91
557.709	103
557.921	101
558.134	79
558.346	82
558.559	77
558.771	84
558.984	74
559.196	100
559.409	96
559.621	87
559.833	92
560.046	99
560.258	86
560.47	81
560.683	75
560.895	98
561.107	95
561.32	102
561.532	101
561.744	95
561.956	88
562.168	99
562.381	97
562.593	86
562.805	89
563.017	93
563.229	71
563.441	84
563.653	78
563.865	83
564.077	94
564.289	95
564.501	84
564.713	81
564.925	99
565.137	79
565.349	86
565.561	88
565.773	94
565.985	89
566.197	88
566.408	89
566.62	88
566.832	95
567.044	88
567.255	100
567.467	90
567.679	98
567.891	97
568.102	93
568.314	87
568.526	102
568.737	94
568.949	100
569.161	91
569.372	91
569.584	99
569.795	90
570.007	91
570.218	97
570.43	87
570.641	89
570.853	91
571.064	79
571.276	89
571.487	106
571.698	95
571.91	91
572.121	87
572.333	84
572.544	85
572.755	71
572.966	92
573.178	101
573.389	95
573.6	83
573.811	86
574.023	105
574.234	92
574.445	76
574.656	82
574.867	83
575.078	96
575.289	93
575.501	105
575.712	96
575.923	97
576.134	97
576.345	83
576.556	78
576.767	92
576.978	90
577.188	84
577.399	92
577.61	91
577.821	92
578.032	97
578.243	83
578.454	83
578.665	91
578.875	82
579.086	97
579.297	99
579.508	98
579.718	81
579.929	83
580.14	101
580.35	94
580.561	76
580.772	80
580.982	101
581.193	86
581.403	80
581.614	101
581.825	89
582.035	93
582.246	77
582.456	62
582.667	81
582.877	84
583.087	77
583.298	82
583.508	80
583.719	77
583.929	91
584.139	86
584.35	85
584.56	79
584.77	88
584.981	83
585.191	81
585.401	88
585.611	77
585.821	85
586.032	82
586.242	90
586.452	98
586.662	81
586.872	84
587.082	86
587.292	74
587.502	82
587.713	74
587.923	85
588.133	88
588.343	82
588.553	74
588.762	89
588.972	105
589.182	88
589.392	87
589.602	80
589.812	94
590.022	89
590.232	95
590.441	91
590.651	99
590.861	88
591.071	81
591.281	92
591.49	80
591.7	89
591.91	96
592.119	79
592.329	101
592.539	85
592.748	108
592.958	88
593.167	79
593.377	92
593.587	88
593.796	97
594.006	80
594.215	89
594.424	86
594.634	99
594.843	89
595.053	93
595.262	98
595.472	82
595.681	83
595.89	91
596.1	82
596.309	77
596.518	77
596.727	91
596.937	81
597.146	83
597.355	94
597.564	74
597.774	105
597.983	94
598.192	82
598.401	84
598.61	92
598.819	82
599.028	85
599.237	93
599.446	99
599.655	84
599.864	77
600.073	84
600.282	91
600.491	84
600.7	92
600.909	90
601.118	88
601.327	86
601.536	68
601.745	94
601.953	92
602.162	92
602.371	91
602.58	81
602.789	89
602.997	101
603.206	101
603.415	80
603.623	84
603.832	88
604.041	88
604.249	83
604.458	98
604.666	96
604.875	92
605.084	89
605.292	86
605.501	84
605.709	81
605.918	89
606.126	86
606.334	98
606.543	93
606.751	85
606.96	87
607.168	94
607.376	66
607.585	86
607.793	82
608.001	88
608.21	84
608.418	85
608.626	90
608.834	86
609.043	76
609.251	87
609.459	95
609.667	75
609.875	67
610.083	81
610.291	84
610.499	100
610.707	89
610.916	93
611.124	98
611.332	73
611.54	86
611.748	86
611.955	94
612.163	80
612.371	85
612.579	77
612.787	84
612.995	78
613.203	75
613.411	82
613.618	84
613.826	88
614.034	87
614.242	101
614.449	87
614.657	86
614.865	90
615.072	100
615.28	92
615.488	82
615.695	81
615.903	83
616.111	85
616.318	108
616.526	84
616.733	89
616.941	84
617.148	86
617.356	72
617.563	72
617.771	91
617.978	91
618.185	99
618.393	88
618.6	81
618.807	70
619.015	75
619.222	87
619.429	88
619.637	93
619.844	78
620.051	89
620.258	78
620.466	74
620.673	93
620.88	76
621.087	75
621.294	91
621.501	87
621.708	72
621.915	79
622.122	83
622.329	83
622.536	97
622.743	84
622.95	100
623.157	91
623.364	58
623.571	75
623.778	95
623.985	88
624.192	64
624.399	98
624.606	85
624.812	82
625.019	91
625.226	95
625.433	82
625.639	99
625.846	90
626.053	78
626.259	88
626.466	75
626.673	84
626.879	92
627.086	85
627.293	92
627.499	88
627.706	85
627.912	82
628.119	98
628.325	78
628.532	76
628.738	87
628.945	80
629.151	90
629.357	77
629.564	70
629.77	72
629.976	82
630.183	77
630.389	95
630.595	75
630.802	81
631.008	74
631.214	84
631.42	75
631.627	70
631.833	90
632.039	75
632.245	83
632.451	89
632.657	67
632.863	80
633.069	88
633.275	74
633.481	98
633.688	96
633.893	91
634.099	79
634.305	78
634.511	94
634.717	87
634.923	92
635.129	81
635.335	72
635.541	97
635.747	90
635.952	81
636.158	92
636.364	82
636.57	84
636.775	76
636.981	83
637.187	86
637.392	92
637.598	92
637.804	86
638.009	84
638.215	82
638.421	79
638.626	92
638.832	84
639.037	81
639.243	86
639.448	84
639.654	94
639.859	83
640.065	86
640.27	78
640.475	77
640.681	92
640.886	89
641.091	95
641.297	89
641.502	88
641.707	69
641.913	74
642.118	90
642.323	78
642.528	86
642.733	87
642.939	86
643.144	91
643.349	81
643.554	96
643.759	79
643.964	88
644.169	85
644.374	78
644.579	90
644.784	92
644.989	76
645.194	69
645.399	79
645.604	90
645.809	84
646.014	78
646.219	88
646.423	77
646.628	82
646.833	86
647.038	81
647.243	76
647.447	93
647.652	77
647.857	72
648.062	68
648.266	81
648.471	81
648.676	81
648.88	90
649.085	85
649.289	91
649.494	82
649.698	79
649.903	80
650.107	71
650.312	89
650.516	87
650.721	94
650.925	81
651.13	87
651.334	94
651.539	94
651.743	85
651.947	82
652.152	85
652.356	87
652.56	74
652.764	89
652.969	85
653.173	88
653.377	69
653.581	68
653.785	85
653.99	82
654.194	74
654.398	88
654.602	88
654.806	85
655.01	78
655.214	87
655.418	81
655.622	81
655.826	94
656.03	78
656.234	87
656.438	80
656.642	88
656.846	78
657.049	88
657.253	84
657.457	85
657.661	84
657.865	85
658.068	88
658.272	94
658.476	87
658.68	85
658.883	81
659.087	77
659.291	84
659.494	94
659.698	86
659.901	81
660.105	76
660.309	74
660.512	79
660.716	75
660.919	75
661.123	78
661.326	83
661.53	87
661.733	92
661.936	81
662.14	80
662.343	91
662.546	79
662.75	93
662.953	82
663.156	67
663.36	90
663.563	69
663.766	83
663.969	88
664.173	66
664.376	81
664.579	68
664.782	78
664.985	81
665.188	78
665.391	90
665.594	85
665.797	88
666	71
666.203	70
666.406	88
666.609	74
666.812	68
667.015	72
667.218	76
667.421	76
667.624	87
667.827	78
668.03	68
668.232	92
668.435	82
668.638	85
668.841	99
669.043	79
669.246	90
669.449	79
669.651	82
669.854	87
670.057	88
670.259	84
670.462	79
670.665	70
670.867	77
671.07	62
671.272	78
671.475	101
671.677	84
671.88	77
672.082	79
672.284	69
672.487	76
672.689	87
672.892	90
