Data from Ni(NO3)2@0.5M.TitratingCurve.Agarose3%dH2O.NegLispCup.LampEnergy10.LIBS07252019_HRD10591_17-59-58-564.txt Node
Date: Thu Jul 25 17:59:58 EDT 2019
User: cochatt
Spectrometer: HR+D1059
Trigger mode: 1
Integration Time (sec): 1.000000E-1
Scans to average: 1
Electric dark correction enabled: true
Nonlinearity correction enabled: false
Boxcar width: 0
XAxis mode: Wavelengths
Number of Pixels in Spectrum: 2048
>>>>>Begin Spectral Data<<<<<
223.165	-12
223.4	-12
223.635	-12
223.869	-23
224.104	-6
224.338	-20
224.573	-25
224.808	-26
225.042	-13
225.277	-12
225.511	-5
225.746	-1
225.98	12
226.215	22
226.449	28
226.683	21
226.918	25
227.152	35
227.387	47
227.621	45
227.856	40
228.09	49
228.324	42
228.559	61
228.793	68
229.027	130
229.262	160
229.496	146
229.73	153
229.964	191
230.199	206
230.433	209
230.667	198
230.901	202
231.136	178
231.37	197
231.604	194
231.838	214
232.072	222
232.306	207
232.541	174
232.775	188
233.009	188
233.243	185
233.477	189
233.711	172
233.945	205
234.179	204
234.413	205
234.647	215
234.881	205
235.115	205
235.349	186
235.583	183
235.817	174
236.051	174
236.285	173
236.519	191
236.753	184
236.987	192
237.221	203
237.455	194
237.689	192
237.922	217
238.156	217
238.39	187
238.624	208
238.858	200
239.091	210
239.325	216
239.559	229
239.793	252
240.027	242
240.26	218
240.494	230
240.728	221
240.961	220
241.195	226
241.429	232
241.662	242
241.896	269
242.13	267
242.363	242
242.597	236
242.83	225
243.064	237
243.298	248
243.531	248
243.765	262
243.998	262
244.232	289
244.465	263
244.699	268
244.932	276
245.166	262
245.399	267
245.633	270
245.866	283
246.099	270
246.333	283
246.566	261
246.8	260
247.033	272
247.266	270
247.5	271
247.733	279
247.966	286
248.2	290
248.433	295
248.666	300
248.899	301
249.133	294
249.366	287
249.599	312
249.832	293
250.066	304
250.299	318
250.532	319
250.765	327
250.998	318
251.231	353
251.465	364
251.698	350
251.931	349
252.164	340
252.397	320
252.63	344
252.863	356
253.096	327
253.329	347
253.562	356
253.795	331
254.028	354
254.261	361
254.494	360
254.727	348
254.96	368
255.193	360
255.426	361
255.659	375
255.892	387
256.124	348
256.357	374
256.59	376
256.823	388
257.056	388
257.289	373
257.521	373
257.754	385
257.987	377
258.22	386
258.452	407
258.685	398
258.918	406
259.151	406
259.383	402
259.616	415
259.849	411
260.081	397
260.314	413
260.547	407
260.779	413
261.012	432
261.244	435
261.477	426
261.71	433
261.942	425
262.175	445
262.407	425
262.64	426
262.872	440
263.105	448
263.337	462
263.57	455
263.802	439
264.035	438
264.267	428
264.499	452
264.732	436
264.964	449
265.197	455
265.429	444
265.661	456
265.894	454
266.126	477
266.358	462
266.591	449
266.823	470
267.055	453
267.287	481
267.52	471
267.752	479
267.984	485
268.216	472
268.448	472
268.681	470
268.913	490
269.145	481
269.377	489
269.609	494
269.841	498
270.073	486
270.306	495
270.538	475
270.77	508
271.002	520
271.234	487
271.466	490
271.698	511
271.93	528
272.162	520
272.394	522
272.626	540
272.858	516
273.09	540
273.322	515
273.553	538
273.785	521
274.017	547
274.249	509
274.481	546
274.713	537
274.945	513
275.176	544
275.408	535
275.64	547
275.872	539
276.104	563
276.335	576
276.567	567
276.799	545
277.031	564
277.262	572
277.494	560
277.726	571
277.957	590
278.189	561
278.421	587
278.652	554
278.884	594
279.115	566
279.347	587
279.579	586
279.81	572
280.042	593
280.273	595
280.505	589
280.736	585
280.968	560
281.199	592
281.431	603
281.662	622
281.894	637
282.125	604
282.356	596
282.588	631
282.819	601
283.051	592
283.282	600
283.513	611
283.745	613
283.976	618
284.207	633
284.439	606
284.67	630
284.901	644
285.132	655
285.364	639
285.595	636
285.826	620
286.057	657
286.288	652
286.52	664
286.751	659
286.982	666
287.213	672
287.444	662
287.675	656
287.906	653
288.138	646
288.369	666
288.6	645
288.831	650
289.062	671
289.293	679
289.524	668
289.755	666
289.986	682
290.217	663
290.448	670
290.679	678
290.91	679
291.141	686
291.371	700
291.602	698
291.833	674
292.064	686
292.295	692
292.526	660
292.757	671
292.987	667
293.218	655
293.449	671
293.68	688
293.91	698
294.141	666
294.372	664
294.603	696
294.833	692
295.064	678
295.295	689
295.525	700
295.756	685
295.987	674
296.217	697
296.448	708
296.679	705
296.909	699
297.14	701
297.37	720
297.601	724
297.831	734
298.062	709
298.292	719
298.523	715
298.753	749
298.984	729
299.214	748
299.445	743
299.675	731
299.905	744
300.136	756
300.366	790
300.597	823
300.827	748
301.057	748
301.288	751
301.518	783
301.748	765
301.979	777
302.209	765
302.439	782
302.669	785
302.9	769
303.13	785
303.36	774
303.59	783
303.82	785
304.051	800
304.281	757
304.511	780
304.741	824
304.971	815
305.201	818
305.431	805
305.661	779
305.891	800
306.121	772
306.352	805
306.582	787
306.812	773
307.042	774
307.272	773
307.502	790
307.731	782
307.961	792
308.191	779
308.421	753
308.651	799
308.881	775
309.111	781
309.341	772
309.571	797
309.8	815
310.03	831
310.26	845
310.49	863
310.72	815
310.949	817
311.179	818
311.409	797
311.639	802
311.868	806
312.098	831
312.328	832
312.557	833
312.787	836
313.017	846
313.246	842
313.476	852
313.706	871
313.935	866
314.165	847
314.394	842
314.624	823
314.853	858
315.083	834
315.312	858
315.542	862
315.771	855
316.001	832
316.23	856
316.46	881
316.689	863
316.919	832
317.148	884
317.377	865
317.607	847
317.836	881
318.065	864
318.295	844
318.524	871
318.753	870
318.983	858
319.212	867
319.441	880
319.67	866
319.9	848
320.129	869
320.358	874
320.587	859
320.816	865
321.046	893
321.275	874
321.504	870
321.733	872
321.962	907
322.191	851
322.42	900
322.649	897
322.878	896
323.108	905
323.337	929
323.566	939
323.795	946
324.024	879
324.253	898
324.482	929
324.71	916
324.939	946
325.168	941
325.397	952
325.626	924
325.855	929
326.084	944
326.313	954
326.542	932
326.77	948
326.999	956
327.228	926
327.457	960
327.686	950
327.914	979
328.143	982
328.372	968
328.6	958
328.829	968
329.058	965
329.287	977
329.515	944
329.744	980
329.972	978
330.201	980
330.43	976
330.658	985
330.887	1005
331.115	997
331.344	1002
331.572	1035
331.801	1054
332.03	1042
332.258	1042
332.486	1065
332.715	1049
332.943	1093
333.172	1063
333.4	1094
333.629	1143
333.857	1140
334.085	1158
334.314	1160
334.542	1160
334.771	1150
334.999	1151
335.227	1154
335.455	1141
335.684	1144
335.912	1165
336.14	1158
336.369	1130
336.597	1143
336.825	1185
337.053	1167
337.281	1148
337.51	1113
337.738	1130
337.966	1110
338.194	1140
338.422	1097
338.65	1055
338.878	1061
339.106	1104
339.334	1124
339.562	1098
339.79	1050
340.018	1042
340.246	1044
340.474	1044
340.702	1024
340.93	1043
341.158	1041
341.386	1080
341.614	1132
341.842	1096
342.07	1074
342.298	1057
342.526	1050
342.754	1046
342.981	1025
343.209	1092
343.437	1084
343.665	1138
343.893	1134
344.12	1158
344.348	1164
344.576	1123
344.804	1132
345.031	1088
345.259	1051
345.487	1049
345.714	1092
345.942	1092
346.17	1082
346.397	1078
346.625	1030
346.853	1013
347.08	998
347.308	1038
347.535	1009
347.763	1022
347.99	975
348.218	998
348.445	996
348.673	989
348.9	984
349.128	1010
349.355	1064
349.583	1024
349.81	1003
350.037	976
350.265	1010
350.492	1003
350.72	987
350.947	981
351.174	997
351.402	1048
351.629	1052
351.856	1054
352.083	992
352.311	1033
352.538	1042
352.765	1083
352.992	992
353.22	949
353.447	937
353.674	934
353.901	949
354.128	959
354.355	984
354.583	950
354.81	964
355.037	942
355.264	953
355.491	959
355.718	973
355.945	968
356.172	984
356.399	998
356.626	1001
356.853	1016
357.08	992
357.307	967
357.534	971
357.761	980
357.988	975
358.215	968
358.441	978
358.668	933
358.895	1004
359.122	963
359.349	957
359.576	982
359.802	964
360.029	959
360.256	990
360.483	997
360.709	1005
360.936	995
361.163	999
361.39	988
361.616	979
361.843	1022
362.07	1066
362.296	1045
362.523	975
362.749	980
362.976	986
363.203	998
363.429	969
363.656	1000
363.882	990
364.109	946
364.335	963
364.562	973
364.788	985
365.015	985
365.241	984
365.468	962
365.694	989
365.92	1007
366.147	982
366.373	1009
366.599	979
366.826	981
367.052	1007
367.278	996
367.505	1004
367.731	985
367.957	985
368.184	1000
368.41	1002
368.636	1031
368.862	1021
369.089	1000
369.315	987
369.541	1002
369.767	1030
369.993	1027
370.219	1016
370.445	985
370.672	1039
370.898	1008
371.124	1036
371.35	1066
371.576	1031
371.802	1066
372.028	1057
372.254	1027
372.48	1045
372.706	1039
372.932	1065
373.158	1073
373.384	1054
373.61	1048
373.835	1064
374.061	1047
374.287	1074
374.513	1092
374.739	1096
374.965	1081
375.191	1114
375.416	1108
375.642	1076
375.868	1081
376.094	1061
376.319	1078
376.545	1074
376.771	1074
376.997	1063
377.222	1053
377.448	1062
377.674	1053
377.899	1034
378.125	1048
378.35	1024
378.576	1062
378.802	1009
379.027	1039
379.253	1042
379.478	1038
379.704	1012
379.929	1037
380.155	1018
380.38	1017
380.606	1049
380.831	1054
381.057	1016
381.282	1058
381.507	1070
381.733	1048
381.958	1069
382.184	1056
382.409	1068
382.634	1043
382.86	1081
383.085	1088
383.31	1080
383.535	1100
383.761	1106
383.986	1133
384.211	1114
384.436	1137
384.662	1152
384.887	1178
385.112	1148
385.337	1152
385.562	1176
385.787	1178
386.013	1226
386.238	1210
386.463	1189
386.688	1180
386.913	1200
387.138	1180
387.363	1208
387.588	1178
387.813	1186
388.038	1208
388.263	1210
388.488	1216
388.713	1209
388.938	1224
389.163	1165
389.387	1210
389.612	1188
389.837	1207
390.062	1188
390.287	1200
390.512	1204
390.736	1191
390.961	1222
391.186	1235
391.411	1241
391.636	1230
391.86	1273
392.085	1292
392.31	1319
392.534	1276
392.759	1271
392.984	1291
393.208	1254
393.433	1258
393.658	1266
393.882	1272
394.107	1261
394.331	1245
394.556	1265
394.78	1264
395.005	1261
395.229	1241
395.454	1279
395.678	1303
395.903	1300
396.127	1299
396.352	1289
396.576	1281
396.801	1302
397.025	1311
397.249	1337
397.474	1328
397.698	1367
397.922	1345
398.147	1378
398.371	1377
398.595	1423
398.82	1446
399.044	1509
399.268	1568
399.492	1682
399.717	1717
399.941	1799
400.165	1710
400.389	1638
400.613	1569
400.837	1531
401.062	1476
401.286	1503
401.51	1441
401.734	1460
401.958	1448
402.182	1467
402.406	1429
402.63	1451
402.854	1414
403.078	1453
403.302	1472
403.526	1515
403.75	1534
403.974	1525
404.198	1488
404.422	1505
404.645	1508
404.869	1511
405.093	1496
405.317	1504
405.541	1550
405.765	1546
405.988	1540
406.212	1575
406.436	1534
406.66	1572
406.883	1577
407.107	1675
407.331	1664
407.555	1720
407.778	1737
408.002	1682
408.226	1652
408.449	1703
408.673	1644
408.896	1577
409.12	1604
409.344	1613
409.567	1579
409.791	1553
410.014	1580
410.238	1568
410.461	1547
410.685	1544
410.908	1543
411.132	1534
411.355	1527
411.578	1502
411.802	1483
412.025	1506
412.249	1489
412.472	1507
412.695	1468
412.919	1488
413.142	1456
413.365	1516
413.589	1470
413.812	1426
414.035	1444
414.258	1442
414.482	1451
414.705	1441
414.928	1447
415.151	1448
415.374	1439
415.597	1437
415.821	1426
416.044	1396
416.267	1420
416.49	1390
416.713	1397
416.936	1400
417.159	1358
417.382	1364
417.605	1350
417.828	1398
418.051	1390
418.274	1383
418.497	1399
418.72	1409
418.943	1397
419.166	1438
419.389	1541
419.611	1544
419.834	1478
420.057	1467
420.28	1388
420.503	1359
420.726	1374
420.948	1376
421.171	1371
421.394	1376
421.617	1397
421.839	1389
422.062	1389
422.285	1357
422.507	1402
422.73	1384
422.953	1364
423.175	1390
423.398	1392
423.621	1381
423.843	1425
424.066	1393
424.288	1378
424.511	1397
424.733	1418
424.956	1401
425.178	1412
425.401	1399
425.623	1392
425.846	1369
426.068	1354
426.291	1375
426.513	1373
426.735	1383
426.958	1368
427.18	1340
427.402	1346
427.625	1303
427.847	1290
428.069	1313
428.292	1311
428.514	1303
428.736	1287
428.958	1298
429.181	1298
429.403	1291
429.625	1319
429.847	1266
430.069	1289
430.292	1276
430.514	1261
430.736	1281
430.958	1291
431.18	1259
431.402	1325
431.624	1287
431.846	1310
432.068	1308
432.29	1329
432.512	1330
432.734	1339
432.956	1327
433.178	1337
433.4	1379
433.622	1334
433.844	1354
434.066	1355
434.287	1357
434.509	1388
434.731	1397
434.953	1395
435.175	1400
435.397	1456
435.618	1384
435.84	1349
436.062	1336
436.284	1352
436.505	1294
436.727	1309
436.949	1316
437.17	1302
437.392	1321
437.614	1291
437.835	1238
438.057	1253
438.278	1225
438.5	1267
438.721	1269
438.943	1307
439.165	1249
439.386	1296
439.608	1306
439.829	1244
440.05	1288
440.272	1306
440.493	1334
440.715	1348
440.936	1294
441.158	1342
441.379	1376
441.6	1402
441.822	1394
442.043	1396
442.264	1382
442.486	1384
442.707	1381
442.928	1358
443.149	1385
443.371	1434
443.592	1501
443.813	1460
444.034	1374
444.255	1438
444.476	1481
444.698	1486
444.919	1504
445.14	1621
445.361	1548
445.582	1448
445.803	1413
446.024	1378
446.245	1357
446.466	1354
446.687	1274
446.908	1299
447.129	1265
447.35	1260
447.571	1272
447.792	1205
448.013	1223
448.234	1230
448.455	1228
448.675	1192
448.896	1235
449.117	1212
449.338	1172
449.559	1201
449.779	1176
450	1172
450.221	1202
450.442	1178
450.662	1175
450.883	1198
451.104	1227
451.324	1186
451.545	1178
451.766	1179
451.986	1182
452.207	1164
452.428	1182
452.648	1137
452.869	1170
453.089	1172
453.31	1157
453.53	1143
453.751	1149
453.971	1124
454.192	1195
454.412	1169
454.633	1184
454.853	1128
455.073	1121
455.294	1123
455.514	1143
455.734	1187
455.955	1145
456.175	1167
456.395	1136
456.616	1134
456.836	1118
457.056	1145
457.276	1134
457.497	1158
457.717	1177
457.937	1170
458.157	1151
458.377	1144
458.598	1181
458.818	1209
459.038	1220
459.258	1273
459.478	1374
459.698	1470
459.918	1446
460.138	1386
460.358	1405
460.578	1416
460.798	1492
461.018	1492
461.238	1470
461.458	1434
461.678	1437
461.898	1421
462.118	1449
462.338	1513
462.558	1559
462.777	1572
462.997	1684
463.217	1701
463.437	1765
463.657	1697
463.876	1610
464.096	1584
464.316	1620
464.536	1580
464.755	1546
464.975	1491
465.195	1464
465.414	1411
465.634	1362
465.854	1334
466.073	1328
466.293	1276
466.512	1291
466.732	1272
466.951	1258
467.171	1284
467.391	1265
467.61	1228
467.829	1245
468.049	1257
468.268	1215
468.488	1213
468.707	1238
468.927	1230
469.146	1252
469.365	1237
469.585	1217
469.804	1220
470.023	1255
470.243	1236
470.462	1242
470.681	1259
470.901	1284
471.12	1280
471.339	1252
471.558	1257
471.777	1268
471.997	1241
472.216	1247
472.435	1223
472.654	1198
472.873	1226
473.092	1198
473.311	1211
473.53	1217
473.749	1208
473.968	1231
474.187	1231
474.406	1203
474.625	1239
474.844	1207
475.063	1249
475.282	1263
475.501	1216
475.72	1214
475.939	1240
476.158	1292
476.377	1256
476.596	1237
476.814	1321
477.033	1292
477.252	1330
477.471	1348
477.69	1387
477.908	1398
478.127	1382
478.346	1426
478.564	1434
478.783	1473
479.002	1507
479.22	1558
479.439	1505
479.658	1512
479.876	1498
480.095	1511
480.313	1513
480.532	1550
480.751	1517
480.969	1505
481.188	1507
481.406	1446
481.624	1450
481.843	1446
482.061	1470
482.28	1462
482.498	1461
482.717	1448
482.935	1470
483.153	1483
483.372	1501
483.59	1545
483.808	1501
484.027	1472
484.245	1472
484.463	1527
484.681	1485
484.9	1544
485.118	1535
485.336	1537
485.554	1526
485.772	1549
485.99	1548
486.209	1506
486.427	1513
486.645	1502
486.863	1546
487.081	1530
487.299	1529
487.517	1540
487.735	1553
487.953	1558
488.171	1560
488.389	1510
488.607	1532
488.825	1515
489.043	1531
489.261	1480
489.479	1498
489.696	1487
489.914	1503
490.132	1465
490.35	1513
490.568	1503
490.786	1529
491.003	1530
491.221	1500
491.439	1534
491.657	1548
491.874	1560
492.092	1563
492.31	1521
492.527	1557
492.745	1527
492.963	1516
493.18	1501
493.398	1558
493.615	1553
493.833	1558
494.05	1566
494.268	1552
494.485	1569
494.703	1559
494.92	1568
495.138	1579
495.355	1560
495.573	1563
495.79	1583
496.008	1611
496.225	1584
496.442	1618
496.66	1625
496.877	1639
497.094	1666
497.312	1671
497.529	1714
497.746	1743
497.963	1783
498.181	1822
498.398	1873
498.615	1976
498.832	2036
499.049	2170
499.267	2239
499.484	2342
499.701	2575
499.918	2644
500.135	2799
500.352	2970
500.569	2984
500.786	3017
501.003	2939
501.22	2782
501.437	2608
501.654	2434
501.871	2328
502.088	2173
502.305	2118
502.522	2084
502.739	2007
502.956	1886
503.172	1845
503.389	1792
503.606	1733
503.823	1736
504.04	1744
504.256	1683
504.473	1695
504.69	1626
504.907	1641
505.123	1558
505.34	1537
505.557	1496
505.773	1488
505.99	1459
506.207	1442
506.423	1424
506.64	1398
506.856	1377
507.073	1377
507.289	1367
507.506	1382
507.722	1365
507.939	1362
508.155	1310
508.372	1339
508.588	1267
508.805	1308
509.021	1273
509.238	1287
509.454	1243
509.67	1252
509.887	1260
510.103	1271
510.319	1238
510.536	1233
510.752	1219
510.968	1243
511.184	1234
511.401	1233
511.617	1229
511.833	1222
512.049	1222
512.265	1237
512.481	1220
512.698	1201
512.914	1213
513.13	1222
513.346	1230
513.562	1233
513.778	1206
513.994	1230
514.21	1225
514.426	1219
514.642	1234
514.858	1265
515.074	1250
515.29	1256
515.506	1250
515.721	1266
515.937	1264
516.153	1289
516.369	1327
516.585	1326
516.801	1361
517.016	1378
517.232	1373
517.448	1446
517.664	1465
517.879	1427
518.095	1449
518.311	1428
518.527	1422
518.742	1392
518.958	1332
519.173	1330
519.389	1304
519.605	1295
519.82	1252
520.036	1217
520.251	1208
520.467	1209
520.682	1183
520.898	1176
521.113	1192
521.329	1162
521.544	1160
521.76	1183
521.975	1182
522.19	1153
522.406	1146
522.621	1156
522.836	1114
523.052	1156
523.267	1089
523.482	1098
523.698	1084
523.913	1113
524.128	1119
524.343	1083
524.559	1097
524.774	1082
524.989	1108
525.204	1084
525.419	1110
525.634	1101
525.849	1108
526.064	1101
526.28	1055
526.495	1060
526.71	1067
526.925	1064
527.14	1058
527.355	1068
527.57	1052
527.785	1035
527.999	1068
528.214	1089
528.429	1059
528.644	1059
528.859	1024
529.074	1065
529.289	1064
529.503	1050
529.718	1065
529.933	1051
530.148	1048
530.363	1063
530.577	1047
530.792	1042
531.007	1068
531.221	1063
531.436	1017
531.651	1065
531.865	1023
532.08	1056
532.295	1018
532.509	1030
532.724	1021
532.938	1029
533.153	1021
533.367	1013
533.582	1022
533.796	993
534.011	1034
534.225	1041
534.44	1032
534.654	1025
534.868	1018
535.083	1035
535.297	1014
535.511	1012
535.726	1010
535.94	982
536.154	1006
536.369	993
536.583	958
536.797	971
537.011	960
537.225	982
537.44	972
537.654	974
537.868	991
538.082	973
538.296	957
538.51	957
538.724	951
538.938	978
539.153	937
539.367	964
539.581	957
539.795	934
540.009	956
540.222	934
540.436	933
540.65	926
540.864	934
541.078	960
541.292	932
541.506	943
541.72	925
541.934	951
542.147	985
542.361	954
542.575	958
542.789	933
543.002	950
543.216	965
543.43	923
543.644	924
543.857	966
544.071	936
544.285	945
544.498	952
544.712	953
544.925	953
545.139	924
545.352	935
545.566	923
545.779	961
545.993	943
546.206	971
546.42	956
546.633	961
546.847	942
547.06	951
547.274	957
547.487	922
547.7	922
547.914	944
548.127	943
548.34	946
548.554	970
548.767	951
548.98	939
549.193	957
549.407	929
549.62	947
549.833	948
550.046	933
550.259	944
550.473	945
550.686	968
550.899	938
551.112	918
551.325	920
551.538	941
551.751	952
551.964	939
552.177	954
552.39	918
552.603	922
552.816	980
553.029	956
553.242	979
553.455	954
553.667	968
553.88	970
554.093	922
554.306	921
554.519	893
554.732	896
554.944	924
555.157	876
555.37	877
555.583	860
555.795	872
556.008	842
556.221	845
556.433	842
556.646	819
556.859	838
557.071	816
557.284	812
557.496	793
557.709	826
557.921	816
558.134	796
558.346	792
558.559	798
558.771	815
558.984	788
559.196	789
559.409	814
559.621	805
559.833	789
560.046	789
560.258	798
560.47	772
560.683	794
560.895	810
561.107	783
561.32	783
561.532	760
561.744	784
561.956	791
562.168	769
562.381	801
562.593	772
562.805	790
563.017	793
563.229	799
563.441	791
563.653	830
563.865	814
564.077	814
564.289	805
564.501	826
564.713	814
564.925	817
565.137	864
565.349	851
565.561	903
565.773	898
565.985	932
566.197	966
566.408	1004
566.62	998
566.832	1030
567.044	1065
567.255	1098
567.467	1064
567.679	1118
567.891	1103
568.102	1102
568.314	1080
568.526	1016
568.737	975
568.949	949
569.161	900
569.372	864
569.584	864
569.795	842
570.007	819
570.218	792
570.43	781
570.641	780
570.853	728
571.064	759
571.276	754
571.487	782
571.698	725
571.91	682
572.121	706
572.333	697
572.544	711
572.755	657
572.966	678
573.178	666
573.389	654
573.6	653
573.811	650
574.023	636
574.234	647
574.445	635
574.656	639
574.867	634
575.078	614
575.289	628
575.501	636
575.712	600
575.923	584
576.134	629
576.345	582
576.556	586
576.767	619
576.978	613
577.188	591
577.399	598
577.61	574
577.821	594
578.032	590
578.243	576
578.454	577
578.665	587
578.875	579
579.086	569
579.297	586
579.508	553
579.718	552
579.929	570
580.14	549
580.35	557
580.561	574
580.772	558
580.982	560
581.193	562
581.403	567
581.614	548
581.825	543
582.035	553
582.246	548
582.456	548
582.667	542
582.877	535
583.087	529
583.298	523
583.508	547
583.719	555
583.929	537
584.139	545
584.35	505
584.56	528
584.77	511
584.981	533
585.191	521
585.401	522
585.611	500
585.821	533
586.032	528
586.242	516
586.452	520
586.662	533
586.872	514
587.082	516
587.292	508
587.502	525
587.713	498
587.923	502
588.133	513
588.343	486
588.553	472
588.762	490
588.972	541
589.182	571
589.392	550
589.602	490
589.812	542
590.022	510
590.232	514
590.441	505
590.651	510
590.861	501
591.071	512
591.281	526
591.49	529
591.7	520
591.91	530
592.119	509
592.329	529
592.539	551
592.748	570
592.958	548
593.167	549
593.377	547
593.587	568
593.796	569
594.006	580
594.215	555
594.424	556
594.634	578
594.843	547
595.053	556
595.262	526
595.472	517
595.681	534
595.89	512
596.1	494
596.309	497
596.518	496
596.727	491
596.937	471
597.146	469
597.355	465
597.564	450
597.774	442
597.983	453
598.192	446
598.401	430
598.61	432
598.819	441
599.028	421
599.237	421
599.446	421
599.655	439
599.864	419
600.073	424
600.282	414
600.491	421
600.7	423
600.909	417
601.118	416
601.327	423
601.536	421
601.745	432
601.953	408
602.162	401
602.371	409
602.58	412
602.789	403
602.997	406
603.206	396
603.415	412
603.623	415
603.832	386
604.041	396
604.249	404
604.458	392
604.666	397
604.875	417
605.084	390
605.292	406
605.501	401
605.709	414
605.918	385
606.126	386
606.334	389
606.543	394
606.751	388
606.96	374
607.168	394
607.376	384
607.585	390
607.793	368
608.001	380
608.21	382
608.418	378
608.626	372
608.834	370
609.043	375
609.251	364
609.459	392
609.667	368
609.875	392
610.083	385
610.291	391
610.499	377
610.707	338
610.916	360
611.124	361
611.332	380
611.54	362
611.748	360
611.955	372
612.163	360
612.371	369
612.579	367
612.787	367
612.995	370
613.203	385
613.411	361
613.618	366
613.826	381
614.034	364
614.242	347
614.449	357
614.657	351
614.865	361
615.072	371
615.28	364
615.488	346
615.695	366
615.903	357
616.111	370
616.318	365
616.526	374
616.733	351
616.941	367
617.148	360
617.356	349
617.563	353
617.771	387
617.978	356
618.185	350
618.393	352
618.6	350
618.807	346
619.015	357
619.222	346
619.429	351
619.637	337
619.844	342
620.051	340
620.258	330
620.466	337
620.673	316
620.88	328
621.087	336
621.294	320
621.501	316
621.708	335
621.915	341
622.122	339
622.329	345
622.536	349
622.743	333
622.95	325
623.157	315
623.364	326
623.571	329
623.778	336
623.985	323
624.192	338
624.399	310
624.606	327
624.812	330
625.019	314
625.226	315
625.433	313
625.639	303
625.846	323
626.053	305
626.259	312
626.466	315
626.673	329
626.879	321
627.086	304
627.293	318
627.499	304
627.706	324
627.912	302
628.119	289
628.325	318
628.532	309
628.738	293
628.945	300
629.151	301
629.357	293
629.564	285
629.77	297
629.976	293
630.183	286
630.389	300
630.595	308
630.802	300
631.008	314
631.214	301
631.42	297
631.627	300
631.833	298
632.039	283
632.245	288
632.451	293
632.657	270
632.863	278
633.069	284
633.275	283
633.481	281
633.688	286
633.893	265
634.099	281
634.305	270
634.511	270
634.717	265
634.923	262
635.129	285
635.335	276
635.541	272
635.747	290
635.952	259
636.158	283
636.364	280
636.57	271
636.775	266
636.981	296
637.187	280
637.392	268
637.598	267
637.804	287
638.009	268
638.215	264
638.421	263
638.626	264
638.832	274
639.037	246
639.243	259
639.448	246
639.654	278
639.859	261
640.065	256
640.27	254
640.475	265
640.681	253
640.886	285
641.091	263
641.297	281
641.502	261
641.707	264
641.913	252
642.118	255
642.323	261
642.528	241
642.733	254
642.939	261
643.144	248
643.349	267
643.554	264
643.759	253
643.964	254
644.169	237
644.374	271
644.579	266
644.784	277
644.989	260
645.194	279
645.399	271
645.604	260
645.809	272
646.014	273
646.219	278
646.423	275
646.628	263
646.833	275
647.038	265
647.243	285
647.447	266
647.652	279
647.857	279
648.062	268
648.266	279
648.471	281
648.676	275
648.88	278
649.085	275
649.289	280
649.494	285
649.698	271
649.903	277
650.107	271
650.312	294
650.516	247
650.721	265
650.925	254
651.13	256
651.334	256
651.539	273
651.743	280
651.947	273
652.152	278
652.356	252
652.56	248
652.764	261
652.969	266
653.173	255
653.377	263
653.581	264
653.785	256
653.99	248
654.194	270
654.398	256
654.602	268
654.806	269
655.01	259
655.214	251
655.418	271
655.622	265
655.826	303
656.03	294
656.234	294
656.438	328
656.642	319
656.846	309
657.049	284
657.253	252
657.457	234
657.661	230
657.865	212
658.068	210
658.272	198
658.476	167
658.68	164
658.883	186
659.087	150
659.291	166
659.494	147
659.698	161
659.901	157
660.105	152
660.309	139
660.512	132
660.716	128
660.919	130
661.123	112
661.326	103
661.53	106
661.733	108
661.936	101
662.14	105
662.343	91
662.546	100
662.75	101
662.953	97
663.156	97
663.36	100
663.563	95
663.766	71
663.969	91
664.173	90
664.376	100
664.579	87
664.782	87
664.985	91
665.188	77
665.391	77
665.594	87
665.797	99
666	88
666.203	92
666.406	84
666.609	91
666.812	98
667.015	105
667.218	97
667.421	82
667.624	75
667.827	92
668.03	95
668.232	80
668.435	79
668.638	89
668.841	102
669.043	100
669.246	76
669.449	89
669.651	79
669.854	82
670.057	89
670.259	79
670.462	91
670.665	79
670.867	95
671.07	78
671.272	103
671.475	97
671.677	97
671.88	92
672.082	74
672.284	79
672.487	80
672.689	79
672.892	77
