Data from Ni(NO3)2@0.5M.TitratingCurve.Agarose3%dH2O.NegLispCup.LampEnergy10.LIBS07252019_HRD10591_17-57-14-564.txt Node
Date: Thu Jul 25 17:57:14 EDT 2019
User: cochatt
Spectrometer: HR+D1059
Trigger mode: 1
Integration Time (sec): 1.000000E-1
Scans to average: 1
Electric dark correction enabled: true
Nonlinearity correction enabled: false
Boxcar width: 0
XAxis mode: Wavelengths
Number of Pixels in Spectrum: 2048
>>>>>Begin Spectral Data<<<<<
223.165	-10
223.4	-10
223.635	-10
223.869	-30
224.104	-13
224.338	-10
224.573	-7
224.808	-17
225.042	14
225.277	-14
225.511	-1
225.746	-8
225.98	-7
226.215	9
226.449	12
226.683	22
226.918	28
227.152	32
227.387	41
227.621	44
227.856	34
228.09	32
228.324	41
228.559	57
228.793	75
229.027	123
229.262	147
229.496	142
229.73	151
229.964	165
230.199	191
230.433	181
230.667	179
230.901	175
231.136	163
231.37	178
231.604	183
231.838	196
232.072	208
232.306	206
232.541	183
232.775	177
233.009	163
233.243	175
233.477	171
233.711	179
233.945	189
234.179	180
234.413	193
234.647	184
234.881	186
235.115	184
235.349	162
235.583	179
235.817	198
236.051	182
236.285	177
236.519	172
236.753	182
236.987	189
237.221	183
237.455	189
237.689	184
237.922	197
238.156	189
238.39	201
238.624	197
238.858	186
239.091	191
239.325	193
239.559	210
239.793	222
240.027	225
240.26	223
240.494	204
240.728	201
240.961	203
241.195	217
241.429	216
241.662	235
241.896	255
242.13	240
242.363	223
242.597	220
242.83	229
243.064	232
243.298	235
243.531	232
243.765	249
243.998	242
244.232	278
244.465	265
244.699	269
244.932	237
245.166	235
245.399	260
245.633	266
245.866	273
246.099	290
246.333	288
246.566	268
246.8	265
247.033	268
247.266	261
247.5	288
247.733	281
247.966	284
248.2	281
248.433	286
248.666	285
248.899	287
249.133	304
249.366	303
249.599	296
249.832	305
250.066	297
250.299	308
250.532	322
250.765	327
250.998	326
251.231	329
251.465	340
251.698	345
251.931	333
252.164	352
252.397	335
252.63	336
252.863	345
253.096	339
253.329	349
253.562	344
253.795	352
254.028	359
254.261	361
254.494	349
254.727	364
254.96	347
255.193	364
255.426	364
255.659	377
255.892	389
256.124	383
256.357	379
256.59	380
256.823	397
257.056	389
257.289	411
257.521	381
257.754	401
257.987	415
258.22	393
258.452	398
258.685	405
258.918	437
259.151	437
259.383	416
259.616	415
259.849	404
260.081	435
260.314	427
260.547	442
260.779	442
261.012	455
261.244	437
261.477	425
261.71	442
261.942	447
262.175	446
262.407	451
262.64	438
262.872	456
263.105	447
263.337	441
263.57	447
263.802	460
264.035	457
264.267	470
264.499	469
264.732	468
264.964	479
265.197	476
265.429	465
265.661	475
265.894	478
266.126	460
266.358	481
266.591	466
266.823	486
267.055	474
267.287	493
267.52	488
267.752	516
267.984	498
268.216	491
268.448	509
268.681	495
268.913	495
269.145	499
269.377	519
269.609	529
269.841	516
270.073	521
270.306	499
270.538	514
270.77	506
271.002	525
271.234	528
271.466	547
271.698	511
271.93	528
272.162	525
272.394	539
272.626	531
272.858	523
273.09	554
273.322	570
273.553	552
273.785	543
274.017	563
274.249	526
274.481	544
274.713	534
274.945	566
275.176	568
275.408	550
275.64	569
275.872	564
276.104	561
276.335	572
276.567	576
276.799	574
277.031	593
277.262	577
277.494	597
277.726	588
277.957	575
278.189	573
278.421	581
278.652	581
278.884	605
279.115	556
279.347	613
279.579	605
279.81	602
280.042	601
280.273	595
280.505	594
280.736	610
280.968	616
281.199	615
281.431	623
281.662	606
281.894	599
282.125	618
282.356	612
282.588	619
282.819	604
283.051	608
283.282	623
283.513	621
283.745	645
283.976	629
284.207	616
284.439	619
284.67	621
284.901	638
285.132	645
285.364	623
285.595	648
285.826	649
286.057	634
286.288	637
286.52	644
286.751	649
286.982	635
287.213	632
287.444	680
287.675	667
287.906	654
288.138	655
288.369	676
288.6	661
288.831	662
289.062	661
289.293	679
289.524	653
289.755	645
289.986	657
290.217	659
290.448	666
290.679	691
290.91	685
291.141	676
291.371	667
291.602	672
291.833	655
292.064	676
292.295	685
292.526	681
292.757	685
292.987	682
293.218	669
293.449	684
293.68	683
293.91	675
294.141	663
294.372	677
294.603	671
294.833	669
295.064	688
295.295	662
295.525	692
295.756	685
295.987	695
296.217	673
296.448	728
296.679	687
296.909	683
297.14	713
297.37	715
297.601	710
297.831	722
298.062	709
298.292	707
298.523	708
298.753	708
298.984	716
299.214	704
299.445	742
299.675	753
299.905	743
300.136	746
300.366	772
300.597	773
300.827	768
301.057	751
301.288	777
301.518	758
301.748	759
301.979	740
302.209	741
302.439	735
302.669	779
302.9	767
303.13	760
303.36	769
303.59	779
303.82	768
304.051	789
304.281	789
304.511	761
304.741	781
304.971	781
305.201	796
305.431	802
305.661	788
305.891	826
306.121	756
306.352	810
306.582	785
306.812	774
307.042	809
307.272	796
307.502	761
307.731	768
307.961	795
308.191	792
308.421	813
308.651	799
308.881	795
309.111	815
309.341	778
309.571	780
309.8	832
310.03	829
310.26	839
310.49	860
310.72	833
310.949	811
311.179	834
311.409	811
311.639	841
311.868	833
312.098	823
312.328	855
312.557	851
312.787	844
313.017	854
313.246	895
313.476	868
313.706	854
313.935	868
314.165	851
314.394	869
314.624	871
314.853	852
315.083	884
315.312	873
315.542	867
315.771	875
316.001	917
316.23	888
316.46	900
316.689	899
316.919	899
317.148	900
317.377	907
317.607	876
317.836	917
318.065	896
318.295	887
318.524	919
318.753	934
318.983	931
319.212	893
319.441	903
319.67	934
319.9	933
320.129	931
320.358	916
320.587	951
320.816	924
321.046	945
321.275	948
321.504	961
321.733	959
321.962	955
322.191	993
322.42	972
322.649	973
322.878	972
323.108	967
323.337	1000
323.566	974
323.795	997
324.024	1000
324.253	994
324.482	1011
324.71	1017
324.939	980
325.168	1010
325.397	989
325.626	1009
325.855	994
326.084	1035
326.313	1022
326.542	1034
326.77	1032
326.999	1056
327.228	1019
327.457	1010
327.686	1027
327.914	1053
328.143	1048
328.372	1038
328.6	1052
328.829	1020
329.058	1050
329.287	1039
329.515	1048
329.744	1041
329.972	1079
330.201	1065
330.43	1051
330.658	1071
330.887	1074
331.115	1082
331.344	1080
331.572	1083
331.801	1069
332.03	1107
332.258	1099
332.486	1077
332.715	1107
332.943	1104
333.172	1093
333.4	1126
333.629	1125
333.857	1119
334.085	1140
334.314	1139
334.542	1134
334.771	1187
334.999	1127
335.227	1170
335.455	1144
335.684	1157
335.912	1205
336.14	1177
336.369	1145
336.597	1190
336.825	1173
337.053	1201
337.281	1199
337.51	1195
337.738	1188
337.966	1183
338.194	1165
338.422	1156
338.65	1163
338.878	1156
339.106	1174
339.334	1159
339.562	1160
339.79	1140
340.018	1124
340.246	1133
340.474	1130
340.702	1122
340.93	1124
341.158	1141
341.386	1201
341.614	1160
341.842	1191
342.07	1121
342.298	1113
342.526	1166
342.754	1141
342.981	1147
343.209	1157
343.437	1136
343.665	1169
343.893	1185
344.12	1172
344.348	1149
344.576	1207
344.804	1197
345.031	1163
345.259	1148
345.487	1124
345.714	1154
345.942	1169
346.17	1183
346.397	1176
346.625	1152
346.853	1100
347.08	1114
347.308	1112
347.535	1109
347.763	1130
347.99	1091
348.218	1099
348.445	1081
348.673	1126
348.9	1131
349.128	1149
349.355	1143
349.583	1109
349.81	1107
350.037	1092
350.265	1111
350.492	1124
350.72	1101
350.947	1089
351.174	1115
351.402	1155
351.629	1157
351.856	1133
352.083	1115
352.311	1131
352.538	1153
352.765	1153
352.992	1100
353.22	1066
353.447	1087
353.674	1081
353.901	1074
354.128	1093
354.355	1112
354.583	1085
354.81	1051
355.037	1075
355.264	1072
355.491	1070
355.718	1064
355.945	1112
356.172	1100
356.399	1106
356.626	1127
356.853	1132
357.08	1085
357.307	1084
357.534	1071
357.761	1100
357.988	1115
358.215	1078
358.441	1092
358.668	1074
358.895	1080
359.122	1078
359.349	1099
359.576	1067
359.802	1077
360.029	1083
360.256	1107
360.483	1089
360.709	1089
360.936	1113
361.163	1083
361.39	1109
361.616	1109
361.843	1109
362.07	1163
362.296	1120
362.523	1095
362.749	1086
362.976	1071
363.203	1089
363.429	1089
363.656	1061
363.882	1094
364.109	1103
364.335	1079
364.562	1063
364.788	1085
365.015	1100
365.241	1100
365.468	1090
365.694	1081
365.92	1100
366.147	1083
366.373	1120
366.599	1104
366.826	1075
367.052	1104
367.278	1099
367.505	1080
367.731	1104
367.957	1098
368.184	1126
368.41	1124
368.636	1113
368.862	1124
369.089	1116
369.315	1100
369.541	1130
369.767	1144
369.993	1119
370.219	1102
370.445	1124
370.672	1108
370.898	1124
371.124	1114
371.35	1114
371.576	1115
371.802	1114
372.028	1129
372.254	1099
372.48	1117
372.706	1110
372.932	1116
373.158	1107
373.384	1121
373.61	1122
373.835	1145
374.061	1138
374.287	1098
374.513	1116
374.739	1092
374.965	1101
375.191	1123
375.416	1099
375.642	1110
375.868	1111
376.094	1079
376.319	1125
376.545	1123
376.771	1111
376.997	1091
377.222	1063
377.448	1086
377.674	1113
377.899	1108
378.125	1110
378.35	1077
378.576	1087
378.802	1067
379.027	1061
379.253	1078
379.478	1087
379.704	1082
379.929	1029
380.155	1069
380.38	1080
380.606	1095
380.831	1082
381.057	1103
381.282	1078
381.507	1073
381.733	1088
381.958	1085
382.184	1083
382.409	1119
382.634	1115
382.86	1078
383.085	1115
383.31	1110
383.535	1116
383.761	1110
383.986	1104
384.211	1136
384.436	1140
384.662	1133
384.887	1167
385.112	1127
385.337	1153
385.562	1123
385.787	1145
386.013	1179
386.238	1133
386.463	1149
386.688	1175
386.913	1152
387.138	1137
387.363	1161
387.588	1159
387.813	1173
388.038	1153
388.263	1167
388.488	1173
388.713	1181
388.938	1146
389.163	1122
389.387	1131
389.612	1137
389.837	1147
390.062	1160
390.287	1194
390.512	1151
390.736	1156
390.961	1195
391.186	1183
391.411	1184
391.636	1187
391.86	1205
392.085	1183
392.31	1191
392.534	1185
392.759	1184
392.984	1212
393.208	1190
393.433	1207
393.658	1171
393.882	1152
394.107	1177
394.331	1195
394.556	1160
394.78	1176
395.005	1179
395.229	1187
395.454	1210
395.678	1225
395.903	1168
396.127	1210
396.352	1209
396.576	1204
396.801	1194
397.025	1195
397.249	1234
397.474	1244
397.698	1244
397.922	1269
398.147	1234
398.371	1235
398.595	1256
398.82	1245
399.044	1255
399.268	1268
399.492	1306
399.717	1347
399.941	1372
400.165	1333
400.389	1331
400.613	1301
400.837	1278
401.062	1283
401.286	1285
401.51	1282
401.734	1241
401.958	1305
402.182	1256
402.406	1305
402.63	1256
402.854	1270
403.078	1283
403.302	1269
403.526	1258
403.75	1297
403.974	1307
404.198	1259
404.422	1259
404.645	1281
404.869	1285
405.093	1307
405.317	1281
405.541	1314
405.765	1300
405.988	1305
406.212	1312
406.436	1367
406.66	1331
406.883	1322
407.107	1357
407.331	1394
407.555	1403
407.778	1377
408.002	1343
408.226	1391
408.449	1406
408.673	1381
408.896	1402
409.12	1347
409.344	1338
409.567	1306
409.791	1314
410.014	1332
410.238	1314
410.461	1357
410.685	1356
410.908	1322
411.132	1322
411.355	1311
411.578	1383
411.802	1286
412.025	1328
412.249	1339
412.472	1320
412.695	1325
412.919	1282
413.142	1293
413.365	1276
413.589	1322
413.812	1314
414.035	1282
414.258	1303
414.482	1277
414.705	1308
414.928	1261
415.151	1291
415.374	1309
415.597	1291
415.821	1260
416.044	1243
416.267	1279
416.49	1267
416.713	1246
416.936	1247
417.159	1245
417.382	1220
417.605	1217
417.828	1236
418.051	1268
418.274	1213
418.497	1251
418.72	1247
418.943	1224
419.166	1270
419.389	1380
419.611	1356
419.834	1308
420.057	1261
420.28	1224
420.503	1206
420.726	1231
420.948	1213
421.171	1214
421.394	1229
421.617	1241
421.839	1266
422.062	1219
422.285	1227
422.507	1243
422.73	1221
422.953	1239
423.175	1235
423.398	1264
423.621	1224
423.843	1243
424.066	1236
424.288	1235
424.511	1239
424.733	1247
424.956	1242
425.178	1226
425.401	1236
425.623	1257
425.846	1207
426.068	1219
426.291	1211
426.513	1235
426.735	1237
426.958	1226
427.18	1229
427.402	1212
427.625	1224
427.847	1225
428.069	1247
428.292	1222
428.514	1224
428.736	1213
428.958	1215
429.181	1207
429.403	1208
429.625	1239
429.847	1265
430.069	1241
430.292	1222
430.514	1212
430.736	1249
430.958	1219
431.18	1204
431.402	1223
431.624	1237
431.846	1218
432.068	1227
432.29	1226
432.512	1192
432.734	1235
432.956	1258
433.178	1229
433.4	1249
433.622	1244
433.844	1298
434.066	1260
434.287	1254
434.509	1253
434.731	1254
434.953	1258
435.175	1267
435.397	1305
435.618	1251
435.84	1248
436.062	1236
436.284	1263
436.505	1235
436.727	1237
436.949	1229
437.17	1244
437.392	1226
437.614	1210
437.835	1178
438.057	1197
438.278	1197
438.5	1165
438.721	1243
438.943	1224
439.165	1204
439.386	1227
439.608	1234
439.829	1237
440.05	1226
440.272	1231
440.493	1253
440.715	1237
440.936	1250
441.158	1259
441.379	1229
441.6	1275
441.822	1270
442.043	1273
442.264	1258
442.486	1226
442.707	1212
442.928	1247
443.149	1269
443.371	1279
443.592	1327
443.813	1265
444.034	1254
444.255	1289
444.476	1259
444.698	1292
444.919	1258
445.14	1426
445.361	1321
445.582	1268
445.803	1275
446.024	1203
446.245	1252
446.466	1265
446.687	1193
446.908	1187
447.129	1190
447.35	1205
447.571	1161
447.792	1164
448.013	1193
448.234	1135
448.455	1183
448.675	1162
448.896	1156
449.117	1148
449.338	1175
449.559	1167
449.779	1132
450	1147
450.221	1132
450.442	1144
450.662	1151
450.883	1162
451.104	1160
451.324	1119
451.545	1143
451.766	1118
451.986	1132
452.207	1142
452.428	1127
452.648	1117
452.869	1110
453.089	1084
453.31	1121
453.53	1080
453.751	1085
453.971	1075
454.192	1132
454.412	1121
454.633	1118
454.853	1098
455.073	1096
455.294	1113
455.514	1132
455.734	1124
455.955	1168
456.175	1119
456.395	1078
456.616	1117
456.836	1072
457.056	1115
457.276	1077
457.497	1120
457.717	1126
457.937	1108
458.157	1121
458.377	1096
458.598	1080
458.818	1149
459.038	1144
459.258	1153
459.478	1197
459.698	1243
459.918	1269
460.138	1225
460.358	1232
460.578	1221
460.798	1260
461.018	1240
461.238	1257
461.458	1217
461.678	1196
461.898	1260
462.118	1259
462.338	1298
462.558	1267
462.777	1288
462.997	1301
463.217	1333
463.437	1398
463.657	1323
463.876	1315
464.096	1296
464.316	1268
464.536	1293
464.755	1283
464.975	1267
465.195	1274
465.414	1241
465.634	1222
465.854	1215
466.073	1221
466.293	1230
466.512	1158
466.732	1185
466.951	1196
467.171	1197
467.391	1177
467.61	1177
467.829	1211
468.049	1208
468.268	1161
468.488	1156
468.707	1139
468.927	1183
469.146	1184
469.365	1211
469.585	1209
469.804	1194
470.023	1191
470.243	1185
470.462	1211
470.681	1220
470.901	1192
471.12	1191
471.339	1194
471.558	1197
471.777	1227
471.997	1209
472.216	1132
472.435	1171
472.654	1191
472.873	1165
473.092	1166
473.311	1183
473.53	1184
473.749	1216
473.968	1188
474.187	1187
474.406	1205
474.625	1218
474.844	1207
475.063	1233
475.282	1259
475.501	1249
475.72	1244
475.939	1227
476.158	1224
476.377	1279
476.596	1294
476.814	1277
477.033	1271
477.252	1299
477.471	1306
477.69	1305
477.908	1341
478.127	1349
478.346	1357
478.564	1347
478.783	1373
479.002	1394
479.22	1431
479.439	1397
479.658	1431
479.876	1399
480.095	1374
480.313	1400
480.532	1411
480.751	1374
480.969	1389
481.188	1372
481.406	1384
481.624	1397
481.843	1391
482.061	1392
482.28	1413
482.498	1395
482.717	1418
482.935	1407
483.153	1436
483.372	1510
483.59	1492
483.808	1447
484.027	1435
484.245	1473
484.463	1435
484.681	1452
484.9	1475
485.118	1455
485.336	1447
485.554	1465
485.772	1443
485.99	1444
486.209	1440
486.427	1456
486.645	1442
486.863	1440
487.081	1459
487.299	1478
487.517	1457
487.735	1519
487.953	1517
488.171	1514
488.389	1497
488.607	1498
488.825	1469
489.043	1506
489.261	1455
489.479	1466
489.696	1474
489.914	1488
490.132	1491
490.35	1496
490.568	1530
490.786	1511
491.003	1507
491.221	1549
491.439	1509
491.657	1499
491.874	1574
492.092	1565
492.31	1541
492.527	1497
492.745	1528
492.963	1526
493.18	1508
493.398	1521
493.615	1554
493.833	1516
494.05	1541
494.268	1555
494.485	1564
494.703	1526
494.92	1555
495.138	1546
495.355	1550
495.573	1585
495.79	1579
496.008	1564
496.225	1551
496.442	1589
496.66	1603
496.877	1607
497.094	1627
497.312	1560
497.529	1603
497.746	1604
497.963	1651
498.181	1655
498.398	1684
498.615	1683
498.832	1691
499.049	1722
499.267	1812
499.484	1789
499.701	1796
499.918	1811
500.135	1883
500.352	1936
500.569	1903
500.786	1942
501.003	1941
501.22	1896
501.437	1842
501.654	1796
501.871	1834
502.088	1768
502.305	1740
502.522	1720
502.739	1689
502.956	1650
503.172	1615
503.389	1600
503.606	1605
503.823	1575
504.04	1552
504.256	1577
504.473	1524
504.69	1496
504.907	1492
505.123	1489
505.34	1474
505.557	1471
505.773	1460
505.99	1462
506.207	1439
506.423	1419
506.64	1384
506.856	1425
507.073	1388
507.289	1355
507.506	1354
507.722	1373
507.939	1363
508.155	1319
508.372	1352
508.588	1336
508.805	1311
509.021	1311
509.238	1325
509.454	1284
509.67	1312
509.887	1282
510.103	1288
510.319	1212
510.536	1271
510.752	1232
510.968	1252
511.184	1236
511.401	1256
511.617	1241
511.833	1250
512.049	1244
512.265	1260
512.481	1255
512.698	1213
512.914	1235
513.13	1236
513.346	1237
513.562	1252
513.778	1243
513.994	1239
514.21	1225
514.426	1249
514.642	1259
514.858	1258
515.074	1245
515.29	1266
515.506	1213
515.721	1243
515.937	1227
516.153	1256
516.369	1245
516.585	1250
516.801	1263
517.016	1297
517.232	1250
517.448	1256
517.664	1267
517.879	1268
518.095	1265
518.311	1281
518.527	1263
518.742	1243
518.958	1260
519.173	1226
519.389	1238
519.605	1267
519.82	1248
520.036	1211
520.251	1209
520.467	1234
520.682	1172
520.898	1179
521.113	1171
521.329	1176
521.544	1192
521.76	1144
521.975	1195
522.19	1158
522.406	1147
522.621	1147
522.836	1152
523.052	1167
523.267	1163
523.482	1129
523.698	1147
523.913	1187
524.128	1130
524.343	1154
524.559	1120
524.774	1140
524.989	1155
525.204	1137
525.419	1126
525.634	1136
525.849	1152
526.064	1121
526.28	1116
526.495	1113
526.71	1107
526.925	1109
527.14	1092
527.355	1091
527.57	1110
527.785	1089
527.999	1064
528.214	1106
528.429	1083
528.644	1095
528.859	1109
529.074	1091
529.289	1111
529.503	1145
529.718	1079
529.933	1106
530.148	1097
530.363	1095
530.577	1100
530.792	1068
531.007	1106
531.221	1065
531.436	1057
531.651	1052
531.865	1040
532.08	1078
532.295	1046
532.509	1024
532.724	1041
532.938	1062
533.153	1053
533.367	1035
533.582	1073
533.796	1058
534.011	1001
534.225	1023
534.44	1073
534.654	1036
534.868	1031
535.083	1047
535.297	1031
535.511	1028
535.726	1009
535.94	1035
536.154	1000
536.369	1021
536.583	1015
536.797	1000
537.011	993
537.225	1007
537.44	1009
537.654	984
537.868	971
538.082	967
538.296	1019
538.51	977
538.724	996
538.938	994
539.153	977
539.367	1013
539.581	973
539.795	1012
540.009	949
540.222	996
540.436	970
540.65	981
540.864	980
541.078	983
541.292	978
541.506	958
541.72	978
541.934	981
542.147	994
542.361	1000
542.575	980
542.789	971
543.002	935
543.216	933
543.43	958
543.644	969
543.857	965
544.071	983
544.285	965
544.498	947
544.712	961
544.925	968
545.139	959
545.352	953
545.566	956
545.779	935
545.993	953
546.206	951
546.42	957
546.633	944
546.847	934
547.06	953
547.274	901
547.487	977
547.7	909
547.914	961
548.127	941
548.34	947
548.554	950
548.767	929
548.98	949
549.193	915
549.407	956
549.62	919
549.833	928
550.046	926
550.259	921
550.473	918
550.686	922
550.899	938
551.112	905
551.325	914
551.538	907
551.751	905
551.964	893
552.177	872
552.39	909
552.603	909
552.816	907
553.029	910
553.242	927
553.455	900
553.667	927
553.88	913
554.093	861
554.306	889
554.519	867
554.732	899
554.944	890
555.157	868
555.37	858
555.583	865
555.795	853
556.008	860
556.221	859
556.433	847
556.646	844
556.859	849
557.071	832
557.284	824
557.496	809
557.709	837
557.921	829
558.134	797
558.346	819
558.559	811
558.771	826
558.984	821
559.196	801
559.409	791
559.621	782
559.833	755
560.046	810
560.258	830
560.47	780
560.683	804
560.895	807
561.107	789
561.32	789
561.532	804
561.744	821
561.956	799
562.168	771
562.381	782
562.593	783
562.805	786
563.017	785
563.229	761
563.441	788
563.653	790
563.865	772
564.077	795
564.289	785
564.501	815
564.713	779
564.925	795
565.137	806
565.349	786
565.561	800
565.773	820
565.985	806
566.197	822
566.408	819
566.62	830
566.832	823
567.044	843
567.255	795
567.467	804
567.679	820
567.891	856
568.102	788
568.314	778
568.526	786
568.737	781
568.949	751
569.161	737
569.372	758
569.584	727
569.795	720
570.007	716
570.218	701
570.43	716
570.641	707
570.853	706
571.064	687
571.276	718
571.487	711
571.698	691
571.91	673
572.121	679
572.333	660
572.544	656
572.755	656
572.966	649
573.178	613
573.389	637
573.6	616
573.811	633
574.023	627
574.234	619
574.445	610
574.656	626
574.867	585
575.078	618
575.289	611
575.501	599
575.712	603
575.923	589
576.134	593
576.345	577
576.556	587
576.767	593
576.978	607
577.188	594
577.399	586
577.61	597
577.821	571
578.032	594
578.243	595
578.454	588
578.665	583
578.875	572
579.086	557
579.297	555
579.508	538
579.718	578
579.929	584
580.14	550
580.35	539
580.561	565
580.772	543
580.982	545
581.193	521
581.403	535
581.614	572
581.825	539
582.035	529
582.246	526
582.456	533
582.667	536
582.877	534
583.087	537
583.298	516
583.508	524
583.719	504
583.929	518
584.139	502
584.35	517
584.56	507
584.77	539
584.981	499
585.191	516
585.401	484
585.611	517
585.821	519
586.032	497
586.242	518
586.452	511
586.662	532
586.872	505
587.082	497
587.292	499
587.502	497
587.713	478
587.923	483
588.133	493
588.343	498
588.553	495
588.762	502
588.972	511
589.182	509
589.392	520
589.602	519
589.812	529
590.022	484
590.232	476
590.441	493
590.651	493
590.861	472
591.071	476
591.281	473
591.49	491
591.7	483
591.91	485
592.119	496
592.329	491
592.539	471
592.748	476
592.958	495
593.167	476
593.377	489
593.587	474
593.796	467
594.006	470
594.215	452
594.424	491
594.634	478
594.843	474
595.053	470
595.262	473
595.472	469
595.681	427
595.89	456
596.1	455
596.309	435
596.518	434
596.727	456
596.937	445
597.146	449
597.355	431
597.564	444
597.774	435
597.983	419
598.192	435
598.401	427
598.61	409
598.819	435
599.028	414
599.237	420
599.446	422
599.655	419
599.864	418
600.073	424
600.282	423
600.491	412
600.7	392
600.909	399
601.118	427
601.327	411
601.536	425
601.745	407
601.953	405
602.162	410
602.371	413
602.58	377
602.789	380
602.997	376
603.206	392
603.415	409
603.623	392
603.832	408
604.041	391
604.249	369
604.458	404
604.666	385
604.875	373
605.084	385
605.292	371
605.501	393
605.709	364
605.918	385
606.126	387
606.334	380
606.543	379
606.751	380
606.96	378
607.168	385
607.376	360
607.585	364
607.793	363
608.001	381
608.21	372
608.418	391
608.626	381
608.834	371
609.043	358
609.251	359
609.459	362
609.667	372
609.875	358
610.083	375
610.291	377
610.499	382
610.707	371
610.916	355
611.124	348
611.332	364
611.54	355
611.748	354
611.955	369
612.163	365
612.371	371
612.579	362
612.787	359
612.995	361
613.203	338
613.411	377
613.618	352
613.826	369
614.034	379
614.242	363
614.449	351
614.657	352
614.865	333
615.072	344
615.28	349
615.488	358
615.695	356
615.903	323
616.111	347
616.318	332
616.526	360
616.733	342
616.941	336
617.148	359
617.356	350
617.563	346
617.771	341
617.978	331
618.185	331
618.393	338
618.6	340
618.807	345
619.015	343
619.222	341
619.429	330
619.637	338
619.844	331
620.051	332
620.258	323
620.466	322
620.673	298
620.88	323
621.087	304
621.294	327
621.501	317
621.708	315
621.915	320
622.122	316
622.329	335
622.536	333
622.743	309
622.95	311
623.157	327
623.364	340
623.571	303
623.778	321
623.985	316
624.192	300
624.399	303
624.606	309
624.812	318
625.019	308
625.226	296
625.433	292
625.639	298
625.846	304
626.053	284
626.259	287
626.466	297
626.673	300
626.879	309
627.086	303
627.293	285
627.499	300
627.706	288
627.912	300
628.119	293
628.325	292
628.532	295
628.738	282
628.945	273
629.151	282
629.357	268
629.564	282
629.77	267
629.976	284
630.183	266
630.389	276
630.595	281
630.802	270
631.008	280
631.214	269
631.42	280
631.627	252
631.833	273
632.039	271
632.245	275
632.451	272
632.657	272
632.863	270
633.069	272
633.275	273
633.481	280
633.688	272
633.893	276
634.099	258
634.305	277
634.511	268
634.717	260
634.923	269
635.129	241
635.335	275
635.541	274
635.747	281
635.952	263
636.158	281
636.364	259
636.57	271
636.775	260
636.981	243
637.187	272
637.392	258
637.598	251
637.804	252
638.009	268
638.215	253
638.421	246
638.626	262
638.832	257
639.037	249
639.243	233
639.448	265
639.654	251
639.859	240
640.065	260
640.27	237
640.475	261
640.681	268
640.886	244
641.091	253
641.297	236
641.502	228
641.707	235
641.913	255
642.118	246
642.323	257
642.528	232
642.733	253
642.939	251
643.144	245
643.349	259
643.554	249
643.759	237
643.964	246
644.169	257
644.374	247
644.579	236
644.784	245
644.989	248
645.194	245
645.399	247
645.604	245
645.809	239
646.014	243
646.219	246
646.423	229
646.628	246
646.833	265
647.038	233
647.243	251
647.447	254
647.652	252
647.857	250
648.062	259
648.266	235
648.471	236
648.676	251
648.88	249
649.085	258
649.289	249
649.494	255
649.698	260
649.903	228
650.107	254
650.312	246
650.516	243
650.721	241
650.925	237
651.13	245
651.334	234
651.539	233
651.743	242
651.947	253
652.152	231
652.356	226
652.56	240
652.764	230
652.969	225
653.173	233
653.377	224
653.581	233
653.785	221
653.99	214
654.194	226
654.398	231
654.602	223
654.806	215
655.01	223
655.214	232
655.418	211
655.622	203
655.826	223
656.03	229
656.234	208
656.438	227
656.642	209
656.846	209
657.049	227
657.253	197
657.457	193
657.661	189
657.865	186
658.068	178
658.272	162
658.476	148
658.68	142
658.883	156
659.087	155
659.291	136
659.494	114
659.698	129
659.901	127
660.105	119
660.309	121
660.512	98
660.716	115
660.919	110
661.123	116
661.326	103
661.53	89
661.733	104
661.936	87
662.14	89
662.343	96
662.546	72
662.75	100
662.953	100
663.156	92
663.36	97
663.563	99
663.766	79
663.969	84
664.173	80
664.376	85
664.579	91
664.782	83
664.985	73
665.188	89
665.391	73
665.594	75
665.797	69
666	83
666.203	90
666.406	82
666.609	83
666.812	77
667.015	74
667.218	81
667.421	77
667.624	73
667.827	84
668.03	81
668.232	76
668.435	90
668.638	71
668.841	77
669.043	80
669.246	93
669.449	68
669.651	85
669.854	86
670.057	83
670.259	77
670.462	81
670.665	83
670.867	85
671.07	78
671.272	77
671.475	81
671.677	73
671.88	80
672.082	87
672.284	83
672.487	80
672.689	72
672.892	85
