Data from Ni(NO3)2Standard.Agarose3%.GreenCap.LampEnergy5.5.E.O_HRD10591_14-42-02-188.txt Node
Date: Mon Jul 22 14:42:02 EDT 2019
User: cochatt
Spectrometer: HR+D1059
Trigger mode: 1
Integration Time (sec): 1.000000E-1
Scans to average: 1
Electric dark correction enabled: true
Nonlinearity correction enabled: false
Boxcar width: 0
XAxis mode: Wavelengths
Number of Pixels in Spectrum: 2048
>>>>>Begin Spectral Data<<<<<
223.165	-26
223.4	-26
223.635	-26
223.869	-7
224.104	-22
224.338	-7
224.573	-9
224.808	-13
225.042	-6
225.277	-4
225.511	-9
225.746	-6
225.98	7
226.215	20
226.449	14
226.683	11
226.918	22
227.152	35
227.387	31
227.621	49
227.856	31
228.09	41
228.324	63
228.559	47
228.793	62
229.027	63
229.262	68
229.496	73
229.73	77
229.964	73
230.199	76
230.433	81
230.667	79
230.901	86
231.136	86
231.37	74
231.604	79
231.838	98
232.072	89
232.306	91
232.541	73
232.775	82
233.009	85
233.243	87
233.477	80
233.711	89
233.945	84
234.179	77
234.413	80
234.647	83
234.881	77
235.115	80
235.349	76
235.583	81
235.817	91
236.051	95
236.285	98
236.519	82
236.753	70
236.987	80
237.221	87
237.455	87
237.689	80
237.922	80
238.156	70
238.39	94
238.624	79
238.858	90
239.091	81
239.325	57
239.559	80
239.793	93
240.027	83
240.26	72
240.494	75
240.728	83
240.961	92
241.195	80
241.429	82
241.662	89
241.896	103
242.13	68
242.363	81
242.597	74
242.83	74
243.064	79
243.298	84
243.531	79
243.765	79
243.998	79
244.232	75
244.465	87
244.699	74
244.932	79
245.166	90
245.399	88
245.633	78
245.866	79
246.099	78
246.333	90
246.566	79
246.8	72
247.033	80
247.266	91
247.5	85
247.733	78
247.966	83
248.2	76
248.433	82
248.666	83
248.899	75
249.133	85
249.366	77
249.599	97
249.832	83
250.066	84
250.299	80
250.532	81
250.765	85
250.998	89
251.231	86
251.465	92
251.698	89
251.931	96
252.164	78
252.397	90
252.63	84
252.863	86
253.096	83
253.329	90
253.562	90
253.795	93
254.028	82
254.261	80
254.494	86
254.727	83
254.96	95
255.193	89
255.426	73
255.659	82
255.892	83
256.124	98
256.357	96
256.59	85
256.823	88
257.056	80
257.289	84
257.521	88
257.754	78
257.987	82
258.22	79
258.452	74
258.685	89
258.918	80
259.151	87
259.383	89
259.616	84
259.849	86
260.081	88
260.314	96
260.547	98
260.779	82
261.012	92
261.244	97
261.477	91
261.71	79
261.942	88
262.175	101
262.407	83
262.64	74
262.872	87
263.105	71
263.337	82
263.57	94
263.802	85
264.035	90
264.267	75
264.499	75
264.732	80
264.964	87
265.197	92
265.429	99
265.661	84
265.894	79
266.126	88
266.358	92
266.591	93
266.823	85
267.055	94
267.287	83
267.52	85
267.752	88
267.984	88
268.216	73
268.448	82
268.681	75
268.913	96
269.145	94
269.377	84
269.609	94
269.841	97
270.073	81
270.306	88
270.538	91
270.77	90
271.002	87
271.234	82
271.466	95
271.698	74
271.93	85
272.162	90
272.394	101
272.626	102
272.858	74
273.09	79
273.322	98
273.553	84
273.785	67
274.017	85
274.249	93
274.481	80
274.713	89
274.945	91
275.176	92
275.408	77
275.64	88
275.872	85
276.104	84
276.335	88
276.567	103
276.799	89
277.031	85
277.262	94
277.494	80
277.726	83
277.957	99
278.189	82
278.421	91
278.652	77
278.884	88
279.115	84
279.347	75
279.579	90
279.81	75
280.042	91
280.273	75
280.505	98
280.736	94
280.968	86
281.199	78
281.431	91
281.662	92
281.894	84
282.125	82
282.356	81
282.588	74
282.819	91
283.051	88
283.282	83
283.513	100
283.745	100
283.976	79
284.207	76
284.439	96
284.67	94
284.901	77
285.132	96
285.364	78
285.595	85
285.826	108
286.057	89
286.288	101
286.52	92
286.751	86
286.982	90
287.213	89
287.444	105
287.675	88
287.906	106
288.138	88
288.369	93
288.6	94
288.831	94
289.062	104
289.293	95
289.524	86
289.755	90
289.986	69
290.217	85
290.448	88
290.679	91
290.91	109
291.141	71
291.371	71
291.602	100
291.833	88
292.064	79
292.295	91
292.526	96
292.757	99
292.987	99
293.218	97
293.449	87
293.68	89
293.91	90
294.141	78
294.372	81
294.603	97
294.833	104
295.064	108
295.295	81
295.525	95
295.756	97
295.987	88
296.217	82
296.448	85
296.679	93
296.909	107
297.14	86
297.37	94
297.601	79
297.831	89
298.062	82
298.292	83
298.523	103
298.753	116
298.984	88
299.214	76
299.445	89
299.675	76
299.905	94
300.136	86
300.366	79
300.597	91
300.827	86
301.057	93
301.288	78
301.518	81
301.748	94
301.979	83
302.209	83
302.439	107
302.669	101
302.9	91
303.13	92
303.36	91
303.59	83
303.82	88
304.051	98
304.281	93
304.511	107
304.741	108
304.971	81
305.201	104
305.431	93
305.661	89
305.891	82
306.121	75
306.352	102
306.582	90
306.812	85
307.042	86
307.272	83
307.502	89
307.731	86
307.961	91
308.191	93
308.421	93
308.651	90
308.881	95
309.111	104
309.341	93
309.571	95
309.8	91
310.03	98
310.26	88
310.49	101
310.72	92
310.949	68
311.179	91
311.409	93
311.639	88
311.868	93
312.098	79
312.328	83
312.557	78
312.787	80
313.017	91
313.246	95
313.476	94
313.706	95
313.935	98
314.165	83
314.394	93
314.624	91
314.853	93
315.083	90
315.312	89
315.542	92
315.771	87
316.001	82
316.23	91
316.46	84
316.689	90
316.919	92
317.148	94
317.377	88
317.607	97
317.836	110
318.065	101
318.295	100
318.524	91
318.753	86
318.983	84
319.212	99
319.441	102
319.67	80
319.9	92
320.129	94
320.358	92
320.587	97
320.816	82
321.046	89
321.275	97
321.504	92
321.733	90
321.962	89
322.191	93
322.42	95
322.649	84
322.878	83
323.108	94
323.337	94
323.566	90
323.795	89
324.024	99
324.253	81
324.482	81
324.71	95
324.939	100
325.168	102
325.397	91
325.626	80
325.855	93
326.084	83
326.313	95
326.542	88
326.77	82
326.999	94
327.228	93
327.457	95
327.686	102
327.914	102
328.143	104
328.372	83
328.6	87
328.829	88
329.058	90
329.287	91
329.515	96
329.744	103
329.972	84
330.201	87
330.43	110
330.658	101
330.887	102
331.115	99
331.344	99
331.572	94
331.801	97
332.03	86
332.258	91
332.486	100
332.715	87
332.943	87
333.172	94
333.4	80
333.629	93
333.857	88
334.085	96
334.314	92
334.542	102
334.771	101
334.999	101
335.227	92
335.455	101
335.684	94
335.912	93
336.14	96
336.369	86
336.597	97
336.825	82
337.053	87
337.281	94
337.51	97
337.738	80
337.966	88
338.194	88
338.422	86
338.65	88
338.878	92
339.106	99
339.334	99
339.562	117
339.79	82
340.018	97
340.246	98
340.474	80
340.702	93
340.93	98
341.158	91
341.386	102
341.614	77
341.842	89
342.07	84
342.298	97
342.526	99
342.754	81
342.981	94
343.209	96
343.437	118
343.665	103
343.893	92
344.12	83
344.348	83
344.576	79
344.804	96
345.031	83
345.259	85
345.487	90
345.714	81
345.942	85
346.17	99
346.397	96
346.625	78
346.853	90
347.08	81
347.308	89
347.535	94
347.763	87
347.99	111
348.218	97
348.445	95
348.673	91
348.9	99
349.128	74
349.355	85
349.583	93
349.81	87
350.037	104
350.265	91
350.492	86
350.72	80
350.947	89
351.174	78
351.402	94
351.629	98
351.856	91
352.083	88
352.311	88
352.538	73
352.765	83
352.992	99
353.22	73
353.447	79
353.674	105
353.901	93
354.128	89
354.355	92
354.583	79
354.81	72
355.037	85
355.264	89
355.491	94
355.718	78
355.945	96
356.172	84
356.399	91
356.626	81
356.853	106
357.08	90
357.307	94
357.534	84
357.761	69
357.988	78
358.215	88
358.441	85
358.668	88
358.895	95
359.122	93
359.349	90
359.576	85
359.802	102
360.029	91
360.256	85
360.483	91
360.709	89
360.936	99
361.163	93
361.39	85
361.616	66
361.843	96
362.07	95
362.296	92
362.523	84
362.749	96
362.976	101
363.203	93
363.429	86
363.656	94
363.882	84
364.109	81
364.335	79
364.562	95
364.788	77
365.015	82
365.241	93
365.468	83
365.694	81
365.92	93
366.147	103
366.373	70
366.599	85
366.826	83
367.052	77
367.278	88
367.505	106
367.731	86
367.957	78
368.184	85
368.41	81
368.636	78
368.862	84
369.089	90
369.315	88
369.541	90
369.767	75
369.993	93
370.219	96
370.445	90
370.672	98
370.898	80
371.124	85
371.35	89
371.576	98
371.802	96
372.028	82
372.254	85
372.48	90
372.706	87
372.932	89
373.158	97
373.384	109
373.61	79
373.835	87
374.061	89
374.287	100
374.513	93
374.739	79
374.965	93
375.191	78
375.416	84
375.642	90
375.868	102
376.094	95
376.319	86
376.545	91
376.771	83
376.997	104
377.222	92
377.448	82
377.674	84
377.899	90
378.125	93
378.35	73
378.576	98
378.802	78
379.027	93
379.253	88
379.478	94
379.704	90
379.929	83
380.155	96
380.38	97
380.606	90
380.831	91
381.057	88
381.282	78
381.507	79
381.733	98
381.958	94
382.184	95
382.409	83
382.634	94
382.86	94
383.085	91
383.31	85
383.535	96
383.761	85
383.986	93
384.211	83
384.436	101
384.662	85
384.887	75
385.112	92
385.337	95
385.562	99
385.787	84
386.013	82
386.238	93
386.463	96
386.688	89
386.913	82
387.138	71
387.363	86
387.588	73
387.813	83
388.038	91
388.263	91
388.488	81
388.713	77
388.938	77
389.163	97
389.387	87
389.612	88
389.837	87
390.062	93
390.287	77
390.512	80
390.736	91
390.961	87
391.186	76
391.411	107
391.636	95
391.86	84
392.085	84
392.31	93
392.534	97
392.759	96
392.984	94
393.208	83
393.433	96
393.658	95
393.882	88
394.107	98
394.331	90
394.556	99
394.78	82
395.005	86
395.229	87
395.454	87
395.678	79
395.903	98
396.127	94
396.352	88
396.576	94
396.801	83
397.025	82
397.249	85
397.474	96
397.698	90
397.922	99
398.147	77
398.371	94
398.595	93
398.82	85
399.044	82
399.268	87
399.492	83
399.717	102
399.941	89
400.165	100
400.389	100
400.613	88
400.837	90
401.062	90
401.286	81
401.51	93
401.734	85
401.958	92
402.182	86
402.406	91
402.63	71
402.854	85
403.078	95
403.302	77
403.526	80
403.75	74
403.974	89
404.198	89
404.422	100
404.645	93
404.869	94
405.093	83
405.317	87
405.541	87
405.765	78
405.988	88
406.212	92
406.436	82
406.66	91
406.883	96
407.107	80
407.331	74
407.555	77
407.778	88
408.002	108
408.226	98
408.449	101
408.673	87
408.896	90
409.12	69
409.344	85
409.567	79
409.791	94
410.014	111
410.238	87
410.461	88
410.685	86
410.908	94
411.132	86
411.355	83
411.578	87
411.802	95
412.025	92
412.249	94
412.472	90
412.695	84
412.919	86
413.142	93
413.365	88
413.589	89
413.812	87
414.035	90
414.258	92
414.482	82
414.705	90
414.928	74
415.151	73
415.374	81
415.597	74
415.821	88
416.044	81
416.267	87
416.49	84
416.713	78
416.936	96
417.159	78
417.382	80
417.605	82
417.828	82
418.051	89
418.274	92
418.497	93
418.72	92
418.943	90
419.166	86
419.389	91
419.611	89
419.834	89
420.057	89
420.28	88
420.503	93
420.726	84
420.948	71
421.171	98
421.394	88
421.617	76
421.839	83
422.062	68
422.285	94
422.507	111
422.73	76
422.953	81
423.175	95
423.398	84
423.621	83
423.843	89
424.066	76
424.288	91
424.511	91
424.733	70
424.956	91
425.178	98
425.401	81
425.623	80
425.846	83
426.068	89
426.291	105
426.513	93
426.735	87
426.958	89
427.18	83
427.402	93
427.625	93
427.847	80
428.069	98
428.292	85
428.514	94
428.736	90
428.958	86
429.181	83
429.403	81
429.625	85
429.847	81
430.069	96
430.292	85
430.514	83
430.736	86
430.958	90
431.18	80
431.402	74
431.624	89
431.846	97
432.068	89
432.29	78
432.512	87
432.734	80
432.956	87
433.178	81
433.4	83
433.622	87
433.844	90
434.066	96
434.287	86
434.509	75
434.731	85
434.953	78
435.175	90
435.397	93
435.618	93
435.84	84
436.062	72
436.284	93
436.505	82
436.727	79
436.949	90
437.17	81
437.392	91
437.614	88
437.835	86
438.057	98
438.278	74
438.5	97
438.721	79
438.943	92
439.165	97
439.386	86
439.608	80
439.829	82
440.05	106
440.272	94
440.493	97
440.715	94
440.936	106
441.158	93
441.379	82
441.6	91
441.822	87
442.043	79
442.264	91
442.486	93
442.707	81
442.928	88
443.149	91
443.371	98
443.592	82
443.813	89
444.034	81
444.255	78
444.476	84
444.698	89
444.919	91
445.14	215
445.361	147
445.582	98
445.803	105
446.024	96
446.245	88
446.466	83
446.687	79
446.908	77
447.129	101
447.35	88
447.571	78
447.792	91
448.013	92
448.234	75
448.455	73
448.675	80
448.896	102
449.117	102
449.338	99
449.559	82
449.779	92
450	88
450.221	78
450.442	91
450.662	85
450.883	88
451.104	95
451.324	81
451.545	82
451.766	92
451.986	104
452.207	78
452.428	76
452.648	75
452.869	88
453.089	88
453.31	84
453.53	82
453.751	99
453.971	99
454.192	87
454.412	77
454.633	82
454.853	80
455.073	90
455.294	88
455.514	86
455.734	91
455.955	86
456.175	84
456.395	95
456.616	87
456.836	89
457.056	92
457.276	95
457.497	90
457.717	88
457.937	76
458.157	82
458.377	87
458.598	94
458.818	84
459.038	81
459.258	91
459.478	90
459.698	78
459.918	89
460.138	96
460.358	76
460.578	86
460.798	91
461.018	85
461.238	93
461.458	93
461.678	81
461.898	90
462.118	95
462.338	99
462.558	93
462.777	85
462.997	102
463.217	97
463.437	99
463.657	91
463.876	104
464.096	88
464.316	82
464.536	86
464.755	91
464.975	95
465.195	94
465.414	97
465.634	88
465.854	98
466.073	90
466.293	97
466.512	95
466.732	81
466.951	81
467.171	88
467.391	87
467.61	90
467.829	106
468.049	88
468.268	72
468.488	85
468.707	91
468.927	91
469.146	83
469.365	87
469.585	85
469.804	84
470.023	83
470.243	102
470.462	86
470.681	94
470.901	97
471.12	93
471.339	92
471.558	87
471.777	75
471.997	85
472.216	93
472.435	96
472.654	98
472.873	97
473.092	101
473.311	83
473.53	79
473.749	74
473.968	91
474.187	93
474.406	97
474.625	90
474.844	103
475.063	102
475.282	91
475.501	86
475.72	93
475.939	92
476.158	98
476.377	81
476.596	94
476.814	91
477.033	91
477.252	83
477.471	102
477.69	82
477.908	86
478.127	102
478.346	108
478.564	87
478.783	97
479.002	106
479.22	89
479.439	89
479.658	89
479.876	88
480.095	89
480.313	101
480.532	89
480.751	95
480.969	98
481.188	105
481.406	104
481.624	96
481.843	92
482.061	90
482.28	104
482.498	88
482.717	96
482.935	108
483.153	102
483.372	89
483.59	96
483.808	88
484.027	86
484.245	98
484.463	85
484.681	101
484.9	82
485.118	99
485.336	86
485.554	94
485.772	97
485.99	89
486.209	103
486.427	89
486.645	97
486.863	89
487.081	97
487.299	82
487.517	95
487.735	90
487.953	99
488.171	98
488.389	105
488.607	92
488.825	101
489.043	108
489.261	98
489.479	103
489.696	106
489.914	100
490.132	97
490.35	96
490.568	98
490.786	101
491.003	99
491.221	104
491.439	102
491.657	100
491.874	101
492.092	89
492.31	109
492.527	94
492.745	103
492.963	87
493.18	110
493.398	93
493.615	100
493.833	93
494.05	116
494.268	93
494.485	81
494.703	89
494.92	105
495.138	102
495.355	97
495.573	93
495.79	92
496.008	97
496.225	98
496.442	109
496.66	112
496.877	104
497.094	98
497.312	97
497.529	92
497.746	104
497.963	99
498.181	105
498.398	106
498.615	100
498.832	112
499.049	95
499.267	112
499.484	102
499.701	95
499.918	114
500.135	119
500.352	108
500.569	101
500.786	94
501.003	99
501.22	113
501.437	113
501.654	112
501.871	98
502.088	82
502.305	86
502.522	101
502.739	102
502.956	109
503.172	90
503.389	98
503.606	96
503.823	114
504.04	95
504.256	103
504.473	107
504.69	91
504.907	83
505.123	100
505.34	95
505.557	97
505.773	92
505.99	107
506.207	102
506.423	103
506.64	95
506.856	92
507.073	97
507.289	107
507.506	95
507.722	93
507.939	90
508.155	114
508.372	97
508.588	100
508.805	87
509.021	91
509.238	105
509.454	99
509.67	95
509.887	95
510.103	88
510.319	95
510.536	98
510.752	98
510.968	98
511.184	94
511.401	97
511.617	89
511.833	107
512.049	83
512.265	102
512.481	98
512.698	76
512.914	88
513.13	91
513.346	84
513.562	103
513.778	94
513.994	94
514.21	109
514.426	111
514.642	98
514.858	90
515.074	99
515.29	104
515.506	105
515.721	96
515.937	97
516.153	88
516.369	100
516.585	83
516.801	95
517.016	89
517.232	94
517.448	95
517.664	111
517.879	99
518.095	101
518.311	103
518.527	87
518.742	103
518.958	118
519.173	104
519.389	91
519.605	110
519.82	105
520.036	101
520.251	93
520.467	89
520.682	88
520.898	83
521.113	95
521.329	90
521.544	83
521.76	92
521.975	105
522.19	96
522.406	92
522.621	81
522.836	80
523.052	94
523.267	94
523.482	103
523.698	104
523.913	89
524.128	88
524.343	100
524.559	106
524.774	94
524.989	105
525.204	105
525.419	96
525.634	94
525.849	95
526.064	101
526.28	93
526.495	94
526.71	105
526.925	92
527.14	96
527.355	106
527.57	96
527.785	83
527.999	86
528.214	83
528.429	103
528.644	94
528.859	97
529.074	100
529.289	93
529.503	94
529.718	101
529.933	93
530.148	90
530.363	94
530.577	96
530.792	81
531.007	95
531.221	100
531.436	94
531.651	92
531.865	90
532.08	96
532.295	104
532.509	105
532.724	98
532.938	96
533.153	100
533.367	96
533.582	87
533.796	82
534.011	98
534.225	90
534.44	98
534.654	109
534.868	91
535.083	90
535.297	103
535.511	86
535.726	96
535.94	96
536.154	96
536.369	96
536.583	88
536.797	101
537.011	88
537.225	97
537.44	92
537.654	97
537.868	91
538.082	102
538.296	91
538.51	99
538.724	82
538.938	103
539.153	107
539.367	106
539.581	99
539.795	91
540.009	103
540.222	96
540.436	93
540.65	83
540.864	90
541.078	95
541.292	93
541.506	90
541.72	98
541.934	104
542.147	103
542.361	107
542.575	90
542.789	94
543.002	98
543.216	99
543.43	105
543.644	99
543.857	95
544.071	99
544.285	97
544.498	101
544.712	102
544.925	85
545.139	84
545.352	85
545.566	112
545.779	97
545.993	105
546.206	98
546.42	91
546.633	80
546.847	93
547.06	85
547.274	101
547.487	101
547.7	102
547.914	113
548.127	86
548.34	104
548.554	95
548.767	96
548.98	80
549.193	101
549.407	107
549.62	94
549.833	101
550.046	98
550.259	103
550.473	95
550.686	101
550.899	104
551.112	94
551.325	98
551.538	92
551.751	99
551.964	102
552.177	96
552.39	90
552.603	80
552.816	104
553.029	107
553.242	86
553.455	105
553.667	95
553.88	83
554.093	95
554.306	98
554.519	107
554.732	110
554.944	97
555.157	90
555.37	101
555.583	108
555.795	106
556.008	87
556.221	101
556.433	92
556.646	91
556.859	96
557.071	93
557.284	99
557.496	87
557.709	96
557.921	101
558.134	90
558.346	91
558.559	97
558.771	92
558.984	106
559.196	91
559.409	83
559.621	97
559.833	82
560.046	87
560.258	91
560.47	99
560.683	94
560.895	95
561.107	93
561.32	103
561.532	99
561.744	92
561.956	86
562.168	89
562.381	91
562.593	85
562.805	105
563.017	89
563.229	82
563.441	87
563.653	93
563.865	85
564.077	76
564.289	77
564.501	99
564.713	96
564.925	98
565.137	88
565.349	92
565.561	88
565.773	99
565.985	93
566.197	103
566.408	98
566.62	82
566.832	87
567.044	98
567.255	103
567.467	89
567.679	86
567.891	97
568.102	99
568.314	92
568.526	89
568.737	92
568.949	103
569.161	106
569.372	94
569.584	96
569.795	85
570.007	84
570.218	87
570.43	96
570.641	94
570.853	89
571.064	93
571.276	92
571.487	82
571.698	86
571.91	84
572.121	80
572.333	87
572.544	87
572.755	93
572.966	97
573.178	105
573.389	95
573.6	89
573.811	78
574.023	83
574.234	105
574.445	101
574.656	82
574.867	90
575.078	79
575.289	96
575.501	87
575.712	92
575.923	81
576.134	99
576.345	105
576.556	88
576.767	85
576.978	87
577.188	86
577.399	90
577.61	97
577.821	87
578.032	89
578.243	90
578.454	105
578.665	86
578.875	101
579.086	103
579.297	96
579.508	86
579.718	90
579.929	102
580.14	106
580.35	93
580.561	94
580.772	93
580.982	74
581.193	82
581.403	87
581.614	102
581.825	98
582.035	86
582.246	77
582.456	86
582.667	78
582.877	90
583.087	78
583.298	95
583.508	75
583.719	79
583.929	105
584.139	101
584.35	87
584.56	98
584.77	79
584.981	94
585.191	95
585.401	93
585.611	87
585.821	99
586.032	94
586.242	100
586.452	81
586.662	90
586.872	91
587.082	98
587.292	86
587.502	82
587.713	77
587.923	90
588.133	90
588.343	90
588.553	88
588.762	99
588.972	96
589.182	100
589.392	91
589.602	80
589.812	92
590.022	88
590.232	99
590.441	96
590.651	91
590.861	82
591.071	92
591.281	99
591.49	86
591.7	89
591.91	93
592.119	83
592.329	94
592.539	85
592.748	79
592.958	89
593.167	83
593.377	92
593.587	101
593.796	91
594.006	86
594.215	93
594.424	98
594.634	90
594.843	97
595.053	90
595.262	88
595.472	89
595.681	86
595.89	78
596.1	84
596.309	87
596.518	89
596.727	82
596.937	89
597.146	104
597.355	84
597.564	81
597.774	76
597.983	86
598.192	89
598.401	102
598.61	98
598.819	71
599.028	85
599.237	95
599.446	88
599.655	98
599.864	79
600.073	104
600.282	102
600.491	94
600.7	89
600.909	87
601.118	84
601.327	84
601.536	78
601.745	87
601.953	91
602.162	96
602.371	78
602.58	86
602.789	88
602.997	97
603.206	77
603.415	95
603.623	89
603.832	90
604.041	97
604.249	86
604.458	77
604.666	100
604.875	88
605.084	73
605.292	90
605.501	84
605.709	97
605.918	103
606.126	77
606.334	81
606.543	80
606.751	87
606.96	87
607.168	98
607.376	104
607.585	90
607.793	99
608.001	85
608.21	83
608.418	83
608.626	94
608.834	79
609.043	94
609.251	92
609.459	82
609.667	96
609.875	80
610.083	95
610.291	73
610.499	102
610.707	92
610.916	84
611.124	98
611.332	113
611.54	88
611.748	89
611.955	83
612.163	79
612.371	88
612.579	61
612.787	81
612.995	91
613.203	87
613.411	94
613.618	90
613.826	87
614.034	90
614.242	97
614.449	83
614.657	88
614.865	87
615.072	85
615.28	82
615.488	85
615.695	91
615.903	100
616.111	101
616.318	96
616.526	87
616.733	91
616.941	85
617.148	84
617.356	85
617.563	92
617.771	96
617.978	85
618.185	86
618.393	84
618.6	83
618.807	87
619.015	81
619.222	76
619.429	87
619.637	97
619.844	82
620.051	87
620.258	92
620.466	79
620.673	93
620.88	77
621.087	80
621.294	98
621.501	79
621.708	84
621.915	91
622.122	87
622.329	72
622.536	109
622.743	89
622.95	89
623.157	84
623.364	86
623.571	104
623.778	95
623.985	78
624.192	94
624.399	86
624.606	98
624.812	93
625.019	78
625.226	89
625.433	96
625.639	94
625.846	88
626.053	98
626.259	83
626.466	93
626.673	91
626.879	89
627.086	99
627.293	81
627.499	72
627.706	87
627.912	86
628.119	94
628.325	93
628.532	90
628.738	91
628.945	83
629.151	97
629.357	94
629.564	81
629.77	85
629.976	80
630.183	91
630.389	98
630.595	77
630.802	75
631.008	92
631.214	99
631.42	90
631.627	90
631.833	83
632.039	75
632.245	77
632.451	90
632.657	90
632.863	90
633.069	88
633.275	92
633.481	102
633.688	99
633.893	84
634.099	87
634.305	89
634.511	85
634.717	76
634.923	80
635.129	79
635.335	92
635.541	94
635.747	82
635.952	82
636.158	106
636.364	85
636.57	79
636.775	90
636.981	96
637.187	97
637.392	83
637.598	79
637.804	72
638.009	95
638.215	77
638.421	96
638.626	94
638.832	88
639.037	79
639.243	78
639.448	97
639.654	100
639.859	91
640.065	85
640.27	78
640.475	89
640.681	76
640.886	77
641.091	88
641.297	88
641.502	80
641.707	89
641.913	88
642.118	80
642.323	78
642.528	99
642.733	94
642.939	87
643.144	81
643.349	101
643.554	82
643.759	89
643.964	75
644.169	87
644.374	96
644.579	88
644.784	91
644.989	74
645.194	88
645.399	92
645.604	91
645.809	94
646.014	90
646.219	85
646.423	75
646.628	93
646.833	84
647.038	92
647.243	92
647.447	69
647.652	85
647.857	82
648.062	81
648.266	90
648.471	84
648.676	87
648.88	88
649.085	78
649.289	87
649.494	86
649.698	78
649.903	90
650.107	84
650.312	93
650.516	83
650.721	85
650.925	65
651.13	98
651.334	79
651.539	80
651.743	84
651.947	90
652.152	90
652.356	90
652.56	98
652.764	74
652.969	92
653.173	89
653.377	81
653.581	86
653.785	85
653.99	76
654.194	85
654.398	96
654.602	93
654.806	91
655.01	92
655.214	91
655.418	90
655.622	98
655.826	98
656.03	99
656.234	69
656.438	89
656.642	70
656.846	69
657.049	87
657.253	90
657.457	86
657.661	97
657.865	83
658.068	80
658.272	85
658.476	100
658.68	90
658.883	88
659.087	86
659.291	85
659.494	88
659.698	84
659.901	78
660.105	79
660.309	100
660.512	80
660.716	96
660.919	80
661.123	86
661.326	81
661.53	85
661.733	86
661.936	94
662.14	78
662.343	80
662.546	97
662.75	103
662.953	101
663.156	94
663.36	95
663.563	97
663.766	86
663.969	95
664.173	79
664.376	89
664.579	80
664.782	79
664.985	92
665.188	95
665.391	99
665.594	102
665.797	86
666	83
666.203	79
666.406	91
666.609	99
666.812	87
667.015	85
667.218	88
667.421	88
667.624	88
667.827	94
668.03	97
668.232	88
668.435	85
668.638	87
668.841	79
669.043	76
669.246	85
669.449	80
669.651	88
669.854	82
670.057	86
670.259	90
670.462	82
670.665	102
670.867	82
671.07	86
671.272	84
671.475	84
671.677	81
671.88	80
672.082	89
672.284	80
672.487	92
672.689	78
672.892	94
