Data from Ni(NO3)2Standard.Agarose3%.GreenCap.LampEnergy5.5.E.O_HRD10591_14-42-57-188.txt Node
Date: Mon Jul 22 14:42:57 EDT 2019
User: cochatt
Spectrometer: HR+D1059
Trigger mode: 1
Integration Time (sec): 1.000000E-1
Scans to average: 1
Electric dark correction enabled: true
Nonlinearity correction enabled: false
Boxcar width: 0
XAxis mode: Wavelengths
Number of Pixels in Spectrum: 2048
>>>>>Begin Spectral Data<<<<<
223.165	-2
223.4	-2
223.635	-2
223.869	-12
224.104	-16
224.338	-3
224.573	-24
224.808	-8
225.042	-9
225.277	-6
225.511	-23
225.746	-1
225.98	14
226.215	10
226.449	13
226.683	19
226.918	18
227.152	30
227.387	43
227.621	43
227.856	50
228.09	35
228.324	46
228.559	61
228.793	56
229.027	57
229.262	55
229.496	71
229.73	60
229.964	72
230.199	80
230.433	68
230.667	75
230.901	73
231.136	87
231.37	84
231.604	97
231.838	78
232.072	88
232.306	70
232.541	85
232.775	83
233.009	93
233.243	101
233.477	78
233.711	77
233.945	83
234.179	90
234.413	68
234.647	75
234.881	80
235.115	77
235.349	87
235.583	91
235.817	82
236.051	72
236.285	75
236.519	91
236.753	86
236.987	86
237.221	83
237.455	79
237.689	89
237.922	73
238.156	70
238.39	67
238.624	68
238.858	83
239.091	73
239.325	89
239.559	77
239.793	85
240.027	98
240.26	80
240.494	97
240.728	75
240.961	64
241.195	79
241.429	78
241.662	75
241.896	84
242.13	79
242.363	84
242.597	82
242.83	88
243.064	72
243.298	87
243.531	86
243.765	81
243.998	92
244.232	75
244.465	71
244.699	88
244.932	80
245.166	67
245.399	71
245.633	92
245.866	85
246.099	75
246.333	98
246.566	84
246.8	82
247.033	83
247.266	84
247.5	83
247.733	79
247.966	89
248.2	70
248.433	87
248.666	78
248.899	71
249.133	75
249.366	80
249.599	90
249.832	75
250.066	80
250.299	90
250.532	90
250.765	85
250.998	89
251.231	83
251.465	86
251.698	82
251.931	92
252.164	74
252.397	82
252.63	66
252.863	91
253.096	91
253.329	100
253.562	75
253.795	80
254.028	88
254.261	78
254.494	95
254.727	86
254.96	84
255.193	79
255.426	81
255.659	95
255.892	89
256.124	83
256.357	85
256.59	83
256.823	88
257.056	79
257.289	74
257.521	85
257.754	81
257.987	83
258.22	85
258.452	88
258.685	84
258.918	85
259.151	99
259.383	86
259.616	85
259.849	91
260.081	89
260.314	91
260.547	83
260.779	84
261.012	87
261.244	86
261.477	96
261.71	88
261.942	89
262.175	86
262.407	79
262.64	88
262.872	80
263.105	78
263.337	97
263.57	87
263.802	84
264.035	84
264.267	94
264.499	79
264.732	94
264.964	94
265.197	85
265.429	84
265.661	73
265.894	79
266.126	92
266.358	78
266.591	87
266.823	85
267.055	88
267.287	75
267.52	90
267.752	77
267.984	92
268.216	85
268.448	87
268.681	91
268.913	75
269.145	86
269.377	100
269.609	90
269.841	87
270.073	86
270.306	91
270.538	87
270.77	81
271.002	73
271.234	93
271.466	88
271.698	91
271.93	95
272.162	102
272.394	92
272.626	90
272.858	86
273.09	84
273.322	89
273.553	103
273.785	77
274.017	79
274.249	86
274.481	92
274.713	90
274.945	99
275.176	78
275.408	85
275.64	87
275.872	87
276.104	73
276.335	69
276.567	93
276.799	87
277.031	80
277.262	81
277.494	79
277.726	89
277.957	88
278.189	98
278.421	83
278.652	86
278.884	88
279.115	90
279.347	91
279.579	97
279.81	80
280.042	102
280.273	80
280.505	95
280.736	86
280.968	92
281.199	81
281.431	90
281.662	94
281.894	84
282.125	96
282.356	105
282.588	90
282.819	92
283.051	96
283.282	93
283.513	92
283.745	103
283.976	89
284.207	96
284.439	87
284.67	87
284.901	88
285.132	83
285.364	92
285.595	82
285.826	86
286.057	94
286.288	94
286.52	93
286.751	83
286.982	83
287.213	92
287.444	96
287.675	102
287.906	102
288.138	87
288.369	78
288.6	81
288.831	91
289.062	84
289.293	86
289.524	86
289.755	86
289.986	95
290.217	79
290.448	89
290.679	93
290.91	93
291.141	85
291.371	86
291.602	74
291.833	90
292.064	78
292.295	89
292.526	90
292.757	78
292.987	97
293.218	89
293.449	94
293.68	96
293.91	80
294.141	88
294.372	68
294.603	77
294.833	93
295.064	92
295.295	104
295.525	93
295.756	87
295.987	91
296.217	79
296.448	78
296.679	86
296.909	100
297.14	87
297.37	89
297.601	107
297.831	84
298.062	88
298.292	79
298.523	82
298.753	94
298.984	87
299.214	98
299.445	102
299.675	95
299.905	87
300.136	89
300.366	89
300.597	86
300.827	84
301.057	92
301.288	81
301.518	95
301.748	98
301.979	77
302.209	86
302.439	97
302.669	87
302.9	97
303.13	92
303.36	84
303.59	84
303.82	83
304.051	89
304.281	91
304.511	89
304.741	87
304.971	83
305.201	85
305.431	84
305.661	84
305.891	95
306.121	80
306.352	88
306.582	93
306.812	74
307.042	91
307.272	86
307.502	78
307.731	107
307.961	96
308.191	92
308.421	92
308.651	79
308.881	84
309.111	78
309.341	92
309.571	85
309.8	100
310.03	84
310.26	112
310.49	100
310.72	75
310.949	78
311.179	80
311.409	83
311.639	96
311.868	91
312.098	90
312.328	96
312.557	88
312.787	90
313.017	85
313.246	89
313.476	81
313.706	94
313.935	84
314.165	95
314.394	79
314.624	102
314.853	92
315.083	78
315.312	86
315.542	81
315.771	90
316.001	102
316.23	85
316.46	86
316.689	93
316.919	92
317.148	81
317.377	91
317.607	94
317.836	83
318.065	90
318.295	76
318.524	82
318.753	87
318.983	94
319.212	90
319.441	84
319.67	96
319.9	92
320.129	100
320.358	100
320.587	91
320.816	84
321.046	96
321.275	86
321.504	95
321.733	89
321.962	98
322.191	90
322.42	102
322.649	100
322.878	97
323.108	79
323.337	90
323.566	92
323.795	92
324.024	87
324.253	73
324.482	97
324.71	92
324.939	93
325.168	93
325.397	88
325.626	92
325.855	91
326.084	84
326.313	80
326.542	91
326.77	95
326.999	88
327.228	104
327.457	96
327.686	93
327.914	94
328.143	95
328.372	93
328.6	91
328.829	90
329.058	94
329.287	90
329.515	86
329.744	102
329.972	86
330.201	94
330.43	84
330.658	99
330.887	92
331.115	87
331.344	82
331.572	97
331.801	101
332.03	83
332.258	92
332.486	89
332.715	105
332.943	87
333.172	88
333.4	81
333.629	80
333.857	93
334.085	97
334.314	88
334.542	94
334.771	91
334.999	84
335.227	92
335.455	101
335.684	84
335.912	93
336.14	95
336.369	95
336.597	91
336.825	87
337.053	89
337.281	95
337.51	88
337.738	102
337.966	81
338.194	90
338.422	86
338.65	88
338.878	93
339.106	88
339.334	94
339.562	93
339.79	85
340.018	102
340.246	88
340.474	103
340.702	106
340.93	90
341.158	93
341.386	78
341.614	99
341.842	86
342.07	87
342.298	102
342.526	87
342.754	89
342.981	88
343.209	95
343.437	75
343.665	89
343.893	107
344.12	95
344.348	94
344.576	82
344.804	101
345.031	96
345.259	105
345.487	79
345.714	83
345.942	88
346.17	95
346.397	86
346.625	86
346.853	97
347.08	105
347.308	86
347.535	80
347.763	95
347.99	87
348.218	94
348.445	96
348.673	87
348.9	99
349.128	98
349.355	91
349.583	84
349.81	80
350.037	81
350.265	102
350.492	87
350.72	93
350.947	85
351.174	94
351.402	86
351.629	84
351.856	92
352.083	83
352.311	77
352.538	85
352.765	85
352.992	85
353.22	87
353.447	87
353.674	93
353.901	81
354.128	82
354.355	95
354.583	78
354.81	89
355.037	88
355.264	89
355.491	97
355.718	94
355.945	93
356.172	89
356.399	92
356.626	86
356.853	87
357.08	99
357.307	90
357.534	90
357.761	92
357.988	99
358.215	89
358.441	84
358.668	96
358.895	104
359.122	91
359.349	83
359.576	97
359.802	86
360.029	88
360.256	113
360.483	86
360.709	86
360.936	88
361.163	100
361.39	92
361.616	102
361.843	92
362.07	88
362.296	96
362.523	76
362.749	98
362.976	90
363.203	105
363.429	80
363.656	91
363.882	89
364.109	96
364.335	96
364.562	92
364.788	96
365.015	91
365.241	94
365.468	96
365.694	91
365.92	99
366.147	90
366.373	84
366.599	94
366.826	103
367.052	76
367.278	94
367.505	96
367.731	106
367.957	100
368.184	98
368.41	93
368.636	79
368.862	74
369.089	99
369.315	99
369.541	88
369.767	89
369.993	90
370.219	92
370.445	88
370.672	85
370.898	92
371.124	93
371.35	95
371.576	94
371.802	84
372.028	83
372.254	79
372.48	88
372.706	94
372.932	91
373.158	86
373.384	90
373.61	88
373.835	90
374.061	85
374.287	87
374.513	107
374.739	83
374.965	91
375.191	90
375.416	92
375.642	77
375.868	96
376.094	77
376.319	100
376.545	84
376.771	81
376.997	104
377.222	96
377.448	90
377.674	74
377.899	83
378.125	100
378.35	89
378.576	87
378.802	89
379.027	85
379.253	102
379.478	92
379.704	76
379.929	86
380.155	84
380.38	95
380.606	85
380.831	83
381.057	89
381.282	84
381.507	96
381.733	89
381.958	84
382.184	86
382.409	75
382.634	87
382.86	96
383.085	74
383.31	86
383.535	81
383.761	75
383.986	89
384.211	85
384.436	97
384.662	91
384.887	81
385.112	83
385.337	78
385.562	95
385.787	89
386.013	109
386.238	95
386.463	89
386.688	92
386.913	99
387.138	93
387.363	93
387.588	75
387.813	88
388.038	77
388.263	93
388.488	88
388.713	95
388.938	91
389.163	93
389.387	89
389.612	76
389.837	86
390.062	71
390.287	80
390.512	96
390.736	95
390.961	93
391.186	95
391.411	89
391.636	92
391.86	75
392.085	100
392.31	78
392.534	80
392.759	88
392.984	96
393.208	86
393.433	80
393.658	93
393.882	80
394.107	77
394.331	88
394.556	83
394.78	82
395.005	89
395.229	99
395.454	87
395.678	112
395.903	90
396.127	97
396.352	92
396.576	87
396.801	96
397.025	98
397.249	83
397.474	87
397.698	83
397.922	93
398.147	104
398.371	90
398.595	89
398.82	100
399.044	77
399.268	94
399.492	94
399.717	102
399.941	78
400.165	79
400.389	94
400.613	93
400.837	111
401.062	89
401.286	97
401.51	88
401.734	89
401.958	94
402.182	80
402.406	78
402.63	83
402.854	87
403.078	91
403.302	88
403.526	96
403.75	96
403.974	94
404.198	94
404.422	83
404.645	94
404.869	103
405.093	95
405.317	85
405.541	95
405.765	85
405.988	96
406.212	86
406.436	93
406.66	92
406.883	102
407.107	104
407.331	84
407.555	95
407.778	89
408.002	71
408.226	93
408.449	100
408.673	90
408.896	83
409.12	88
409.344	80
409.567	84
409.791	95
410.014	94
410.238	101
410.461	92
410.685	96
410.908	66
411.132	89
411.355	101
411.578	84
411.802	114
412.025	75
412.249	82
412.472	93
412.695	82
412.919	84
413.142	86
413.365	84
413.589	86
413.812	88
414.035	80
414.258	84
414.482	92
414.705	85
414.928	79
415.151	85
415.374	86
415.597	75
415.821	92
416.044	75
416.267	89
416.49	93
416.713	84
416.936	86
417.159	80
417.382	87
417.605	80
417.828	80
418.051	75
418.274	90
418.497	84
418.72	81
418.943	98
419.166	80
419.389	88
419.611	82
419.834	98
420.057	103
420.28	100
420.503	95
420.726	88
420.948	79
421.171	87
421.394	87
421.617	87
421.839	80
422.062	99
422.285	90
422.507	82
422.73	95
422.953	81
423.175	88
423.398	80
423.621	99
423.843	98
424.066	92
424.288	84
424.511	91
424.733	74
424.956	90
425.178	89
425.401	92
425.623	90
425.846	77
426.068	79
426.291	89
426.513	98
426.735	87
426.958	94
427.18	92
427.402	86
427.625	96
427.847	78
428.069	94
428.292	94
428.514	77
428.736	76
428.958	105
429.181	90
429.403	85
429.625	80
429.847	92
430.069	81
430.292	85
430.514	65
430.736	81
430.958	80
431.18	88
431.402	79
431.624	80
431.846	81
432.068	97
432.29	84
432.512	100
432.734	94
432.956	77
433.178	88
433.4	86
433.622	87
433.844	83
434.066	94
434.287	82
434.509	84
434.731	101
434.953	84
435.175	81
435.397	100
435.618	80
435.84	87
436.062	98
436.284	91
436.505	92
436.727	92
436.949	84
437.17	95
437.392	93
437.614	78
437.835	77
438.057	91
438.278	93
438.5	84
438.721	80
438.943	86
439.165	98
439.386	105
439.608	85
439.829	81
440.05	98
440.272	84
440.493	86
440.715	95
440.936	80
441.158	74
441.379	79
441.6	86
441.822	80
442.043	95
442.264	102
442.486	82
442.707	65
442.928	89
443.149	91
443.371	91
443.592	91
443.813	81
444.034	86
444.255	92
444.476	100
444.698	87
444.919	86
445.14	207
445.361	147
445.582	97
445.803	77
446.024	90
446.245	97
446.466	90
446.687	86
446.908	88
447.129	76
447.35	93
447.571	92
447.792	79
448.013	84
448.234	86
448.455	74
448.675	79
448.896	94
449.117	89
449.338	87
449.559	100
449.779	95
450	79
450.221	76
450.442	88
450.662	99
450.883	90
451.104	75
451.324	88
451.545	84
451.766	98
451.986	99
452.207	74
452.428	88
452.648	91
452.869	102
453.089	86
453.31	92
453.53	90
453.751	85
453.971	81
454.192	86
454.412	85
454.633	92
454.853	83
455.073	83
455.294	96
455.514	98
455.734	95
455.955	86
456.175	90
456.395	86
456.616	95
456.836	83
457.056	96
457.276	79
457.497	80
457.717	92
457.937	101
458.157	86
458.377	93
458.598	98
458.818	86
459.038	83
459.258	95
459.478	87
459.698	85
459.918	81
460.138	93
460.358	86
460.578	76
460.798	80
461.018	90
461.238	88
461.458	106
461.678	101
461.898	106
462.118	89
462.338	104
462.558	91
462.777	97
462.997	105
463.217	84
463.437	95
463.657	89
463.876	77
464.096	91
464.316	95
464.536	87
464.755	87
464.975	114
465.195	84
465.414	84
465.634	82
465.854	71
466.073	93
466.293	96
466.512	90
466.732	83
466.951	97
467.171	87
467.391	82
467.61	96
467.829	86
468.049	82
468.268	91
468.488	88
468.707	93
468.927	90
469.146	84
469.365	91
469.585	89
469.804	99
470.023	96
470.243	100
470.462	89
470.681	100
470.901	82
471.12	89
471.339	77
471.558	96
471.777	108
471.997	89
472.216	86
472.435	103
472.654	92
472.873	104
473.092	95
473.311	93
473.53	82
473.749	74
473.968	91
474.187	93
474.406	95
474.625	93
474.844	78
475.063	84
475.282	92
475.501	93
475.72	89
475.939	75
476.158	86
476.377	85
476.596	94
476.814	98
477.033	105
477.252	95
477.471	105
477.69	91
477.908	98
478.127	97
478.346	96
478.564	85
478.783	99
479.002	94
479.22	93
479.439	99
479.658	92
479.876	85
480.095	75
480.313	98
480.532	100
480.751	91
480.969	88
481.188	90
481.406	95
481.624	81
481.843	105
482.061	88
482.28	83
482.498	91
482.717	89
482.935	85
483.153	91
483.372	90
483.59	85
483.808	80
484.027	93
484.245	79
484.463	92
484.681	94
484.9	83
485.118	101
485.336	82
485.554	81
485.772	85
485.99	83
486.209	103
486.427	100
486.645	90
486.863	99
487.081	79
487.299	76
487.517	83
487.735	91
487.953	100
488.171	94
488.389	88
488.607	80
488.825	96
489.043	96
489.261	92
489.479	88
489.696	90
489.914	94
490.132	104
490.35	101
490.568	84
490.786	105
491.003	94
491.221	96
491.439	94
491.657	90
491.874	103
492.092	110
492.31	108
492.527	104
492.745	100
492.963	95
493.18	106
493.398	85
493.615	81
493.833	77
494.05	95
494.268	103
494.485	109
494.703	107
494.92	88
495.138	110
495.355	108
495.573	95
495.79	95
496.008	109
496.225	106
496.442	109
496.66	110
496.877	84
497.094	107
497.312	99
497.529	108
497.746	91
497.963	82
498.181	96
498.398	85
498.615	100
498.832	101
499.049	95
499.267	107
499.484	106
499.701	92
499.918	119
500.135	126
500.352	116
500.569	116
500.786	109
501.003	118
501.22	103
501.437	108
501.654	105
501.871	98
502.088	107
502.305	98
502.522	101
502.739	83
502.956	94
503.172	98
503.389	97
503.606	104
503.823	103
504.04	97
504.256	100
504.473	102
504.69	108
504.907	95
505.123	84
505.34	90
505.557	92
505.773	91
505.99	99
506.207	99
506.423	90
506.64	109
506.856	80
507.073	100
507.289	91
507.506	97
507.722	99
507.939	80
508.155	109
508.372	92
508.588	97
508.805	101
509.021	93
509.238	99
509.454	90
509.67	76
509.887	83
510.103	109
510.319	94
510.536	91
510.752	88
510.968	95
511.184	92
511.401	102
511.617	91
511.833	86
512.049	109
512.265	98
512.481	85
512.698	86
512.914	99
513.13	90
513.346	108
513.562	90
513.778	98
513.994	84
514.21	76
514.426	91
514.642	103
514.858	100
515.074	88
515.29	81
515.506	96
515.721	92
515.937	84
516.153	107
516.369	93
516.585	99
516.801	97
517.016	92
517.232	85
517.448	87
517.664	98
517.879	108
518.095	90
518.311	90
518.527	88
518.742	80
518.958	83
519.173	91
519.389	107
519.605	104
519.82	89
520.036	92
520.251	89
520.467	93
520.682	88
520.898	80
521.113	84
521.329	102
521.544	98
521.76	92
521.975	92
522.19	96
522.406	93
522.621	94
522.836	88
523.052	97
523.267	92
523.482	100
523.698	85
523.913	102
524.128	90
524.343	102
524.559	86
524.774	91
524.989	88
525.204	98
525.419	98
525.634	95
525.849	102
526.064	86
526.28	92
526.495	95
526.71	86
526.925	97
527.14	104
527.355	101
527.57	93
527.785	90
527.999	90
528.214	89
528.429	84
528.644	88
528.859	84
529.074	94
529.289	103
529.503	95
529.718	95
529.933	100
530.148	71
530.363	95
530.577	100
530.792	104
531.007	79
531.221	101
531.436	79
531.651	96
531.865	104
532.08	87
532.295	81
532.509	83
532.724	94
532.938	89
533.153	99
533.367	88
533.582	87
533.796	107
534.011	98
534.225	86
534.44	94
534.654	85
534.868	94
535.083	93
535.297	87
535.511	88
535.726	103
535.94	86
536.154	97
536.369	84
536.583	91
536.797	96
537.011	87
537.225	98
537.44	76
537.654	93
537.868	91
538.082	86
538.296	104
538.51	90
538.724	82
538.938	92
539.153	90
539.367	88
539.581	87
539.795	98
540.009	98
540.222	99
540.436	94
540.65	101
540.864	85
541.078	93
541.292	86
541.506	92
541.72	111
541.934	102
542.147	108
542.361	103
542.575	95
542.789	90
543.002	101
543.216	92
543.43	73
543.644	78
543.857	90
544.071	89
544.285	91
544.498	93
544.712	104
544.925	95
545.139	92
545.352	75
545.566	98
545.779	95
545.993	91
546.206	106
546.42	98
546.633	92
546.847	96
547.06	101
547.274	87
547.487	96
547.7	91
547.914	87
548.127	100
548.34	91
548.554	88
548.767	97
548.98	84
549.193	83
549.407	96
549.62	89
549.833	83
550.046	91
550.259	84
550.473	101
550.686	74
550.899	100
551.112	102
551.325	103
551.538	89
551.751	90
551.964	102
552.177	93
552.39	91
552.603	88
552.816	97
553.029	91
553.242	90
553.455	97
553.667	103
553.88	102
554.093	91
554.306	98
554.519	92
554.732	104
554.944	100
555.157	88
555.37	95
555.583	97
555.795	95
556.008	72
556.221	108
556.433	94
556.646	93
556.859	94
557.071	92
557.284	78
557.496	84
557.709	90
557.921	102
558.134	100
558.346	103
558.559	80
558.771	92
558.984	95
559.196	92
559.409	97
559.621	70
559.833	93
560.046	84
560.258	87
560.47	101
560.683	85
560.895	86
561.107	96
561.32	80
561.532	85
561.744	93
561.956	105
562.168	85
562.381	94
562.593	86
562.805	80
563.017	101
563.229	86
563.441	83
563.653	96
563.865	82
564.077	100
564.289	85
564.501	92
564.713	84
564.925	97
565.137	83
565.349	104
565.561	97
565.773	101
565.985	79
566.197	94
566.408	106
566.62	87
566.832	84
567.044	104
567.255	101
567.467	91
567.679	78
567.891	91
568.102	93
568.314	100
568.526	87
568.737	88
568.949	96
569.161	76
569.372	88
569.584	80
569.795	98
570.007	87
570.218	87
570.43	91
570.641	84
570.853	94
571.064	79
571.276	91
571.487	102
571.698	84
571.91	83
572.121	89
572.333	84
572.544	87
572.755	81
572.966	78
573.178	99
573.389	95
573.6	84
573.811	77
574.023	81
574.234	93
574.445	99
574.656	101
574.867	84
575.078	98
575.289	88
575.501	83
575.712	93
575.923	96
576.134	75
576.345	85
576.556	102
576.767	99
576.978	98
577.188	93
577.399	78
577.61	84
577.821	91
578.032	78
578.243	88
578.454	90
578.665	89
578.875	79
579.086	90
579.297	75
579.508	85
579.718	89
579.929	87
580.14	91
580.35	98
580.561	94
580.772	86
580.982	83
581.193	98
581.403	76
581.614	95
581.825	84
582.035	87
582.246	98
582.456	98
582.667	78
582.877	84
583.087	92
583.298	101
583.508	86
583.719	86
583.929	107
584.139	101
584.35	81
584.56	80
584.77	91
584.981	88
585.191	93
585.401	96
585.611	89
585.821	88
586.032	74
586.242	91
586.452	85
586.662	83
586.872	86
587.082	85
587.292	95
587.502	77
587.713	80
587.923	92
588.133	93
588.343	92
588.553	95
588.762	90
588.972	85
589.182	95
589.392	91
589.602	91
589.812	101
590.022	92
590.232	97
590.441	83
590.651	78
590.861	82
591.071	87
591.281	79
591.49	79
591.7	89
591.91	88
592.119	91
592.329	92
592.539	86
592.748	90
592.958	91
593.167	89
593.377	98
593.587	96
593.796	92
594.006	83
594.215	76
594.424	87
594.634	101
594.843	80
595.053	85
595.262	94
595.472	93
595.681	88
595.89	78
596.1	86
596.309	73
596.518	83
596.727	93
596.937	84
597.146	90
597.355	95
597.564	100
597.774	80
597.983	79
598.192	84
598.401	86
598.61	82
598.819	103
599.028	90
599.237	78
599.446	95
599.655	94
599.864	96
600.073	94
600.282	90
600.491	87
600.7	86
600.909	80
601.118	106
601.327	97
601.536	96
601.745	97
601.953	102
602.162	87
602.371	70
602.58	80
602.789	81
602.997	98
603.206	106
603.415	91
603.623	91
603.832	90
604.041	88
604.249	85
604.458	95
604.666	96
604.875	99
605.084	85
605.292	73
605.501	96
605.709	87
605.918	83
606.126	99
606.334	94
606.543	95
606.751	93
606.96	86
607.168	89
607.376	100
607.585	96
607.793	92
608.001	91
608.21	83
608.418	94
608.626	90
608.834	86
609.043	80
609.251	77
609.459	92
609.667	79
609.875	82
610.083	86
610.291	85
610.499	95
610.707	83
610.916	100
611.124	94
611.332	88
611.54	77
611.748	86
611.955	89
612.163	95
612.371	86
612.579	82
612.787	72
612.995	80
613.203	89
613.411	89
613.618	84
613.826	95
614.034	96
614.242	87
614.449	92
614.657	88
614.865	91
615.072	93
615.28	87
615.488	85
615.695	92
615.903	88
616.111	87
616.318	86
616.526	87
616.733	76
616.941	77
617.148	78
617.356	78
617.563	89
617.771	93
617.978	87
618.185	99
618.393	94
618.6	85
618.807	80
619.015	93
619.222	72
619.429	85
619.637	96
619.844	80
620.051	94
620.258	96
620.466	87
620.673	74
620.88	84
621.087	85
621.294	85
621.501	89
621.708	95
621.915	80
622.122	78
622.329	95
622.536	86
622.743	88
622.95	80
623.157	92
623.364	99
623.571	72
623.778	74
623.985	96
624.192	86
624.399	78
624.606	96
624.812	89
625.019	84
625.226	79
625.433	70
625.639	79
625.846	86
626.053	87
626.259	92
626.466	97
626.673	92
626.879	86
627.086	71
627.293	80
627.499	85
627.706	103
627.912	88
628.119	99
628.325	89
628.532	99
628.738	103
628.945	89
629.151	85
629.357	91
629.564	84
629.77	81
629.976	82
630.183	90
630.389	79
630.595	87
630.802	88
631.008	94
631.214	101
631.42	96
631.627	80
631.833	78
632.039	83
632.245	91
632.451	70
632.657	78
632.863	88
633.069	86
633.275	90
633.481	77
633.688	80
633.893	100
634.099	93
634.305	91
634.511	86
634.717	84
634.923	97
635.129	88
635.335	87
635.541	86
635.747	93
635.952	92
636.158	94
636.364	89
636.57	82
636.775	79
636.981	91
637.187	90
637.392	104
637.598	94
637.804	74
638.009	83
638.215	87
638.421	85
638.626	79
638.832	77
639.037	91
639.243	78
639.448	84
639.654	80
639.859	84
640.065	80
640.27	91
640.475	74
640.681	83
640.886	83
641.091	93
641.297	90
641.502	90
641.707	75
641.913	73
642.118	90
642.323	85
642.528	96
642.733	99
642.939	85
643.144	80
643.349	93
643.554	83
643.759	94
643.964	88
644.169	91
644.374	77
644.579	81
644.784	103
644.989	84
645.194	91
645.399	89
645.604	88
645.809	103
646.014	79
646.219	87
646.423	93
646.628	90
646.833	86
647.038	77
647.243	86
647.447	106
647.652	95
647.857	79
648.062	85
648.266	95
648.471	91
648.676	92
648.88	87
649.085	89
649.289	86
649.494	92
649.698	75
649.903	87
650.107	91
650.312	89
650.516	96
650.721	92
650.925	77
651.13	85
651.334	83
651.539	96
651.743	96
651.947	88
652.152	92
652.356	91
652.56	93
652.764	87
652.969	104
653.173	89
653.377	89
653.581	94
653.785	92
653.99	74
654.194	80
654.398	101
654.602	83
654.806	79
655.01	84
655.214	90
655.418	80
655.622	79
655.826	93
656.03	88
656.234	89
656.438	72
656.642	76
656.846	74
657.049	86
657.253	86
657.457	80
657.661	99
657.865	87
658.068	95
658.272	86
658.476	89
658.68	83
658.883	92
659.087	73
659.291	86
659.494	83
659.698	80
659.901	87
660.105	84
660.309	77
660.512	72
660.716	102
660.919	88
661.123	85
661.326	75
661.53	80
661.733	83
661.936	86
662.14	77
662.343	87
662.546	91
662.75	85
662.953	86
663.156	95
663.36	91
663.563	91
663.766	83
663.969	80
664.173	82
664.376	87
664.579	84
664.782	85
664.985	80
665.188	91
665.391	97
665.594	92
665.797	91
666	85
666.203	79
666.406	78
666.609	79
666.812	96
667.015	88
667.218	101
667.421	81
667.624	69
667.827	85
668.03	82
668.232	89
668.435	83
668.638	78
668.841	85
669.043	84
669.246	96
669.449	101
669.651	89
669.854	95
670.057	94
670.259	91
670.462	95
670.665	86
670.867	84
671.07	91
671.272	75
671.475	99
671.677	77
671.88	79
672.082	92
672.284	79
672.487	77
672.689	88
672.892	90
