Data from Ni(NO3)2@0.5M.TitratingCurve.Agarose3%dH2O.NegLispCup.LampEnergy10.LIBS07252019_HRD10591_17-59-00-564.txt Node
Date: Thu Jul 25 17:59:00 EDT 2019
User: cochatt
Spectrometer: HR+D1059
Trigger mode: 1
Integration Time (sec): 1.000000E-1
Scans to average: 1
Electric dark correction enabled: true
Nonlinearity correction enabled: false
Boxcar width: 0
XAxis mode: Wavelengths
Number of Pixels in Spectrum: 2048
>>>>>Begin Spectral Data<<<<<
223.165	-18
223.4	-18
223.635	-18
223.869	-19
224.104	-8
224.338	-28
224.573	-19
224.808	-18
225.042	-5
225.277	13
225.511	4
225.746	7
225.98	-1
226.215	16
226.449	5
226.683	16
226.918	23
227.152	32
227.387	22
227.621	42
227.856	34
228.09	46
228.324	52
228.559	74
228.793	73
229.027	127
229.262	142
229.496	164
229.73	149
229.964	166
230.199	199
230.433	213
230.667	192
230.901	192
231.136	172
231.37	168
231.604	182
231.838	220
232.072	227
232.306	184
232.541	196
232.775	183
233.009	175
233.243	172
233.477	181
233.711	178
233.945	176
234.179	191
234.413	182
234.647	181
234.881	191
235.115	182
235.349	165
235.583	160
235.817	168
236.051	171
236.285	178
236.519	160
236.753	178
236.987	181
237.221	182
237.455	173
237.689	167
237.922	194
238.156	192
238.39	184
238.624	164
238.858	178
239.091	195
239.325	201
239.559	199
239.793	242
240.027	238
240.26	202
240.494	201
240.728	208
240.961	201
241.195	207
241.429	192
241.662	219
241.896	222
242.13	258
242.363	222
242.597	216
242.83	216
243.064	203
243.298	203
243.531	220
243.765	209
243.998	247
244.232	238
244.465	226
244.699	223
244.932	226
245.166	226
245.399	221
245.633	225
245.866	222
246.099	255
246.333	235
246.566	229
246.8	235
247.033	246
247.266	250
247.5	240
247.733	243
247.966	258
248.2	258
248.433	259
248.666	251
248.899	258
249.133	269
249.366	264
249.599	263
249.832	267
250.066	278
250.299	270
250.532	290
250.765	276
250.998	284
251.231	294
251.465	309
251.698	313
251.931	284
252.164	290
252.397	293
252.63	283
252.863	297
253.096	310
253.329	308
253.562	296
253.795	316
254.028	294
254.261	310
254.494	306
254.727	309
254.96	331
255.193	317
255.426	319
255.659	311
255.892	319
256.124	330
256.357	310
256.59	336
256.823	336
257.056	346
257.289	340
257.521	339
257.754	334
257.987	330
258.22	348
258.452	341
258.685	340
258.918	341
259.151	352
259.383	358
259.616	356
259.849	342
260.081	364
260.314	347
260.547	348
260.779	366
261.012	346
261.244	372
261.477	390
261.71	359
261.942	359
262.175	371
262.407	370
262.64	358
262.872	358
263.105	364
263.337	398
263.57	379
263.802	399
264.035	375
264.267	391
264.499	385
264.732	387
264.964	383
265.197	392
265.429	407
265.661	398
265.894	379
266.126	400
266.358	408
266.591	398
266.823	413
267.055	372
267.287	418
267.52	413
267.752	406
267.984	404
268.216	404
268.448	440
268.681	424
268.913	409
269.145	402
269.377	431
269.609	414
269.841	431
270.073	404
270.306	410
270.538	429
270.77	415
271.002	413
271.234	421
271.466	428
271.698	447
271.93	440
272.162	446
272.394	437
272.626	465
272.858	464
273.09	449
273.322	456
273.553	458
273.785	451
274.017	452
274.249	446
274.481	466
274.713	469
274.945	453
275.176	487
275.408	465
275.64	463
275.872	475
276.104	471
276.335	465
276.567	506
276.799	475
277.031	458
277.262	483
277.494	472
277.726	492
277.957	459
278.189	485
278.421	498
278.652	517
278.884	520
279.115	487
279.347	498
279.579	502
279.81	480
280.042	484
280.273	502
280.505	493
280.736	516
280.968	516
281.199	501
281.431	534
281.662	524
281.894	506
282.125	499
282.356	513
282.588	506
282.819	526
283.051	511
283.282	536
283.513	535
283.745	535
283.976	509
284.207	543
284.439	529
284.67	571
284.901	542
285.132	567
285.364	535
285.595	519
285.826	527
286.057	529
286.288	570
286.52	548
286.751	555
286.982	553
287.213	564
287.444	570
287.675	558
287.906	562
288.138	550
288.369	569
288.6	562
288.831	565
289.062	558
289.293	575
289.524	565
289.755	543
289.986	576
290.217	584
290.448	587
290.679	579
290.91	564
291.141	568
291.371	582
291.602	576
291.833	576
292.064	579
292.295	573
292.526	571
292.757	567
292.987	570
293.218	566
293.449	579
293.68	585
293.91	581
294.141	583
294.372	567
294.603	601
294.833	582
295.064	583
295.295	588
295.525	584
295.756	582
295.987	577
296.217	579
296.448	583
296.679	597
296.909	586
297.14	589
297.37	621
297.601	604
297.831	628
298.062	622
298.292	612
298.523	621
298.753	641
298.984	626
299.214	641
299.445	637
299.675	634
299.905	624
300.136	641
300.366	660
300.597	683
300.827	655
301.057	668
301.288	694
301.518	676
301.748	654
301.979	639
302.209	645
302.439	662
302.669	659
302.9	663
303.13	647
303.36	657
303.59	651
303.82	675
304.051	668
304.281	686
304.511	669
304.741	683
304.971	679
305.201	701
305.431	710
305.661	687
305.891	675
306.121	705
306.352	665
306.582	658
306.812	664
307.042	645
307.272	654
307.502	668
307.731	686
307.961	675
308.191	664
308.421	684
308.651	676
308.881	679
309.111	660
309.341	666
309.571	692
309.8	700
310.03	729
310.26	724
310.49	716
310.72	704
310.949	697
311.179	695
311.409	693
311.639	714
311.868	674
312.098	692
312.328	698
312.557	721
312.787	717
313.017	698
313.246	719
313.476	765
313.706	742
313.935	728
314.165	718
314.394	713
314.624	730
314.853	725
315.083	733
315.312	746
315.542	746
315.771	751
316.001	742
316.23	759
316.46	743
316.689	727
316.919	743
317.148	736
317.377	746
317.607	730
317.836	741
318.065	759
318.295	754
318.524	740
318.753	743
318.983	755
319.212	722
319.441	762
319.67	768
319.9	760
320.129	761
320.358	779
320.587	759
320.816	764
321.046	755
321.275	770
321.504	751
321.733	760
321.962	788
322.191	774
322.42	758
322.649	785
322.878	788
323.108	814
323.337	771
323.566	810
323.795	808
324.024	790
324.253	784
324.482	795
324.71	822
324.939	804
325.168	810
325.397	791
325.626	795
325.855	816
326.084	828
326.313	836
326.542	823
326.77	831
326.999	832
327.228	833
327.457	830
327.686	867
327.914	813
328.143	821
328.372	828
328.6	831
328.829	832
329.058	861
329.287	816
329.515	850
329.744	852
329.972	839
330.201	864
330.43	866
330.658	859
330.887	872
331.115	859
331.344	875
331.572	902
331.801	895
332.03	885
332.258	932
332.486	917
332.715	893
332.943	892
333.172	935
333.4	940
333.629	949
333.857	950
334.085	941
334.314	969
334.542	980
334.771	997
334.999	959
335.227	968
335.455	981
335.684	975
335.912	970
336.14	976
336.369	973
336.597	1004
336.825	989
337.053	1008
337.281	992
337.51	949
337.738	967
337.966	976
338.194	959
338.422	959
338.65	923
338.878	943
339.106	975
339.334	963
339.562	950
339.79	930
340.018	906
340.246	908
340.474	911
340.702	919
340.93	925
341.158	934
341.386	967
341.614	997
341.842	986
342.07	899
342.298	938
342.526	934
342.754	916
342.981	904
343.209	916
343.437	964
343.665	973
343.893	983
344.12	979
344.348	963
344.576	987
344.804	1018
345.031	948
345.259	948
345.487	926
345.714	927
345.942	967
346.17	984
346.397	952
346.625	930
346.853	909
347.08	862
347.308	878
347.535	899
347.763	879
347.99	898
348.218	878
348.445	887
348.673	890
348.9	876
349.128	892
349.355	893
349.583	955
349.81	878
350.037	848
350.265	876
350.492	895
350.72	866
350.947	874
351.174	891
351.402	918
351.629	940
351.856	924
352.083	900
352.311	907
352.538	922
352.765	960
352.992	866
353.22	840
353.447	833
353.674	855
353.901	828
354.128	854
354.355	839
354.583	869
354.81	825
355.037	826
355.264	840
355.491	854
355.718	857
355.945	857
356.172	844
356.399	863
356.626	902
356.853	893
357.08	916
357.307	884
357.534	850
357.761	876
357.988	877
358.215	830
358.441	844
358.668	882
358.895	866
359.122	836
359.349	851
359.576	851
359.802	847
360.029	879
360.256	890
360.483	864
360.709	869
360.936	872
361.163	890
361.39	869
361.616	898
361.843	912
362.07	922
362.296	936
362.523	884
362.749	854
362.976	885
363.203	845
363.429	868
363.656	863
363.882	857
364.109	861
364.335	866
364.562	857
364.788	878
365.015	874
365.241	860
365.468	886
365.694	847
365.92	874
366.147	887
366.373	867
366.599	857
366.826	877
367.052	871
367.278	871
367.505	851
367.731	853
367.957	854
368.184	867
368.41	878
368.636	896
368.862	888
369.089	926
369.315	877
369.541	894
369.767	916
369.993	892
370.219	895
370.445	909
370.672	910
370.898	926
371.124	916
371.35	920
371.576	918
371.802	928
372.028	948
372.254	918
372.48	943
372.706	950
372.932	928
373.158	942
373.384	940
373.61	915
373.835	942
374.061	946
374.287	942
374.513	965
374.739	970
374.965	951
375.191	971
375.416	979
375.642	948
375.868	964
376.094	915
376.319	927
376.545	932
376.771	929
376.997	908
377.222	913
377.448	886
377.674	899
377.899	909
378.125	892
378.35	929
378.576	927
378.802	904
379.027	912
379.253	912
379.478	871
379.704	918
379.929	888
380.155	920
380.38	928
380.606	909
380.831	916
381.057	936
381.282	908
381.507	907
381.733	939
381.958	941
382.184	912
382.409	947
382.634	961
382.86	964
383.085	946
383.31	976
383.535	966
383.761	977
383.986	958
384.211	961
384.436	992
384.662	978
384.887	1005
385.112	987
385.337	1013
385.562	1015
385.787	1023
386.013	1034
386.238	1042
386.463	1014
386.688	1019
386.913	1016
387.138	1035
387.363	1043
387.588	1061
387.813	1031
388.038	1042
388.263	1055
388.488	1020
388.713	1044
388.938	1040
389.163	1031
389.387	1051
389.612	1018
389.837	998
390.062	1040
390.287	1071
390.512	1067
390.736	1045
390.961	1061
391.186	1047
391.411	1066
391.636	1088
391.86	1099
392.085	1075
392.31	1096
392.534	1080
392.759	1114
392.984	1123
393.208	1055
393.433	1078
393.658	1095
393.882	1064
394.107	1051
394.331	1075
394.556	1092
394.78	1082
395.005	1120
395.229	1095
395.454	1123
395.678	1116
395.903	1099
396.127	1121
396.352	1104
396.576	1117
396.801	1124
397.025	1111
397.249	1147
397.474	1163
397.698	1170
397.922	1169
398.147	1150
398.371	1192
398.595	1211
398.82	1218
399.044	1258
399.268	1266
399.492	1347
399.717	1384
399.941	1413
400.165	1399
400.389	1355
400.613	1323
400.837	1307
401.062	1271
401.286	1231
401.51	1222
401.734	1228
401.958	1238
402.182	1243
402.406	1231
402.63	1245
402.854	1229
403.078	1220
403.302	1266
403.526	1246
403.75	1255
403.974	1246
404.198	1245
404.422	1239
404.645	1259
404.869	1218
405.093	1252
405.317	1269
405.541	1300
405.765	1233
405.988	1295
406.212	1302
406.436	1308
406.66	1350
406.883	1301
407.107	1365
407.331	1405
407.555	1422
407.778	1423
408.002	1391
408.226	1393
408.449	1382
408.673	1353
408.896	1341
409.12	1314
409.344	1340
409.567	1353
409.791	1362
410.014	1311
410.238	1294
410.461	1314
410.685	1284
410.908	1257
411.132	1289
411.355	1295
411.578	1318
411.802	1297
412.025	1273
412.249	1301
412.472	1253
412.695	1242
412.919	1254
413.142	1253
413.365	1266
413.589	1278
413.812	1256
414.035	1249
414.258	1239
414.482	1233
414.705	1229
414.928	1253
415.151	1232
415.374	1198
415.597	1224
415.821	1212
416.044	1178
416.267	1185
416.49	1154
416.713	1176
416.936	1180
417.159	1216
417.382	1186
417.605	1187
417.828	1173
418.051	1166
418.274	1169
418.497	1165
418.72	1209
418.943	1181
419.166	1247
419.389	1296
419.611	1266
419.834	1237
420.057	1253
420.28	1233
420.503	1180
420.726	1130
420.948	1167
421.171	1168
421.394	1203
421.617	1152
421.839	1156
422.062	1199
422.285	1144
422.507	1174
422.73	1159
422.953	1153
423.175	1186
423.398	1167
423.621	1164
423.843	1162
424.066	1152
424.288	1152
424.511	1147
424.733	1205
424.956	1170
425.178	1175
425.401	1145
425.623	1188
425.846	1128
426.068	1166
426.291	1192
426.513	1167
426.735	1163
426.958	1166
427.18	1124
427.402	1176
427.625	1135
427.847	1151
428.069	1160
428.292	1172
428.514	1141
428.736	1137
428.958	1169
429.181	1118
429.403	1080
429.625	1135
429.847	1135
430.069	1101
430.292	1119
430.514	1161
430.736	1130
430.958	1158
431.18	1134
431.402	1133
431.624	1126
431.846	1114
432.068	1182
432.29	1174
432.512	1157
432.734	1133
432.956	1124
433.178	1161
433.4	1220
433.622	1173
433.844	1169
434.066	1180
434.287	1138
434.509	1189
434.731	1190
434.953	1206
435.175	1203
435.397	1228
435.618	1183
435.84	1142
436.062	1150
436.284	1153
436.505	1159
436.727	1129
436.949	1134
437.17	1142
437.392	1126
437.614	1138
437.835	1109
438.057	1125
438.278	1087
438.5	1099
438.721	1109
438.943	1125
439.165	1117
439.386	1082
439.608	1114
439.829	1119
440.05	1132
440.272	1125
440.493	1147
440.715	1122
440.936	1154
441.158	1156
441.379	1179
441.6	1216
441.822	1205
442.043	1196
442.264	1194
442.486	1174
442.707	1176
442.928	1208
443.149	1173
443.371	1239
443.592	1304
443.813	1275
444.034	1215
444.255	1228
444.476	1264
444.698	1268
444.919	1274
445.14	1393
445.361	1348
445.582	1255
445.803	1206
446.024	1184
446.245	1155
446.466	1134
446.687	1120
446.908	1140
447.129	1104
447.35	1107
447.571	1107
447.792	1096
448.013	1065
448.234	1050
448.455	1069
448.675	1090
448.896	1062
449.117	1004
449.338	1032
449.559	1053
449.779	1033
450	1052
450.221	1048
450.442	1043
450.662	1059
450.883	1051
451.104	1093
451.324	1068
451.545	1044
451.766	1039
451.986	1045
452.207	1018
452.428	1013
452.648	1061
452.869	1005
453.089	1036
453.31	1040
453.53	1008
453.751	1012
453.971	1008
454.192	1079
454.412	1069
454.633	1091
454.853	1033
455.073	1014
455.294	1036
455.514	1030
455.734	1035
455.955	1052
456.175	1068
456.395	1019
456.616	1010
456.836	1017
457.056	998
457.276	1008
457.497	1014
457.717	1062
457.937	1059
458.157	1039
458.377	1018
458.598	1038
458.818	1071
459.038	1102
459.258	1111
459.478	1172
459.698	1251
459.918	1256
460.138	1275
460.358	1267
460.578	1284
460.798	1287
461.018	1336
461.238	1245
461.458	1244
461.678	1224
461.898	1238
462.118	1238
462.338	1257
462.558	1326
462.777	1376
462.997	1408
463.217	1423
463.437	1488
463.657	1435
463.876	1378
464.096	1339
464.316	1358
464.536	1324
464.755	1347
464.975	1289
465.195	1218
465.414	1215
465.634	1188
465.854	1174
466.073	1157
466.293	1132
466.512	1121
466.732	1081
466.951	1147
467.171	1123
467.391	1126
467.61	1110
467.829	1104
468.049	1119
468.268	1063
468.488	1113
468.707	1067
468.927	1109
469.146	1114
469.365	1119
469.585	1101
469.804	1092
470.023	1124
470.243	1103
470.462	1116
470.681	1105
470.901	1110
471.12	1110
471.339	1106
471.558	1070
471.777	1078
471.997	1096
472.216	1090
472.435	1087
472.654	1078
472.873	1052
473.092	1116
473.311	1099
473.53	1071
473.749	1084
473.968	1094
474.187	1085
474.406	1087
474.625	1110
474.844	1077
475.063	1088
475.282	1138
475.501	1088
475.72	1119
475.939	1147
476.158	1138
476.377	1156
476.596	1110
476.814	1126
477.033	1158
477.252	1160
477.471	1178
477.69	1210
477.908	1220
478.127	1214
478.346	1232
478.564	1252
478.783	1259
479.002	1339
479.22	1363
479.439	1314
479.658	1247
479.876	1292
480.095	1296
480.313	1323
480.532	1298
480.751	1305
480.969	1294
481.188	1303
481.406	1271
481.624	1265
481.843	1256
482.061	1254
482.28	1283
482.498	1243
482.717	1263
482.935	1258
483.153	1295
483.372	1348
483.59	1349
483.808	1318
484.027	1304
484.245	1251
484.463	1288
484.681	1304
484.9	1304
485.118	1305
485.336	1288
485.554	1308
485.772	1301
485.99	1284
486.209	1312
486.427	1302
486.645	1322
486.863	1341
487.081	1314
487.299	1324
487.517	1299
487.735	1362
487.953	1346
488.171	1324
488.389	1318
488.607	1339
488.825	1279
489.043	1321
489.261	1300
489.479	1331
489.696	1355
489.914	1267
490.132	1309
490.35	1305
490.568	1323
490.786	1348
491.003	1321
491.221	1344
491.439	1346
491.657	1341
491.874	1370
492.092	1376
492.31	1377
492.527	1366
492.745	1326
492.963	1326
493.18	1352
493.398	1378
493.615	1373
493.833	1376
494.05	1389
494.268	1413
494.485	1371
494.703	1338
494.92	1400
495.138	1354
495.355	1375
495.573	1394
495.79	1394
496.008	1387
496.225	1415
496.442	1423
496.66	1446
496.877	1471
497.094	1487
497.312	1504
497.529	1535
497.746	1531
497.963	1553
498.181	1620
498.398	1654
498.615	1733
498.832	1767
499.049	1829
499.267	1851
499.484	1926
499.701	1994
499.918	2142
500.135	2273
500.352	2332
500.569	2282
500.786	2267
501.003	2282
501.22	2212
501.437	2121
501.654	1996
501.871	1977
502.088	1875
502.305	1858
502.522	1768
502.739	1690
502.956	1630
503.172	1599
503.389	1548
503.606	1541
503.823	1513
504.04	1499
504.256	1503
504.473	1488
504.69	1453
504.907	1464
505.123	1421
505.34	1369
505.557	1334
505.773	1334
505.99	1290
506.207	1280
506.423	1271
506.64	1225
506.856	1231
507.073	1255
507.289	1229
507.506	1230
507.722	1243
507.939	1212
508.155	1191
508.372	1187
508.588	1180
508.805	1159
509.021	1174
509.238	1172
509.454	1190
509.67	1130
509.887	1153
510.103	1148
510.319	1106
510.536	1118
510.752	1118
510.968	1122
511.184	1107
511.401	1104
511.617	1095
511.833	1116
512.049	1123
512.265	1106
512.481	1116
512.698	1125
512.914	1147
513.13	1088
513.346	1092
513.562	1083
513.778	1119
513.994	1112
514.21	1129
514.426	1110
514.642	1113
514.858	1131
515.074	1114
515.29	1115
515.506	1138
515.721	1170
515.937	1144
516.153	1131
516.369	1186
516.585	1174
516.801	1193
517.016	1212
517.232	1199
517.448	1233
517.664	1260
517.879	1240
518.095	1232
518.311	1229
518.527	1203
518.742	1172
518.958	1169
519.173	1170
519.389	1182
519.605	1157
519.82	1142
520.036	1122
520.251	1103
520.467	1097
520.682	1068
520.898	1079
521.113	1054
521.329	1042
521.544	1059
521.76	1050
521.975	1036
522.19	1008
522.406	1038
522.621	1023
522.836	1022
523.052	1018
523.267	1007
523.482	1001
523.698	1032
523.913	1012
524.128	991
524.343	1001
524.559	1021
524.774	993
524.989	1021
525.204	1011
525.419	987
525.634	1019
525.849	987
526.064	978
526.28	987
526.495	961
526.71	946
526.925	978
527.14	979
527.355	961
527.57	973
527.785	968
527.999	968
528.214	988
528.429	980
528.644	965
528.859	983
529.074	957
529.289	1000
529.503	975
529.718	955
529.933	927
530.148	947
530.363	956
530.577	939
530.792	947
531.007	936
531.221	952
531.436	953
531.651	936
531.865	928
532.08	940
532.295	922
532.509	956
532.724	927
532.938	959
533.153	934
533.367	938
533.582	929
533.796	931
534.011	943
534.225	915
534.44	912
534.654	924
534.868	927
535.083	917
535.297	913
535.511	895
535.726	898
535.94	938
536.154	901
536.369	905
536.583	912
536.797	896
537.011	898
537.225	871
537.44	885
537.654	892
537.868	884
538.082	864
538.296	868
538.51	872
538.724	853
538.938	842
539.153	890
539.367	870
539.581	863
539.795	840
540.009	848
540.222	837
540.436	876
540.65	855
540.864	861
541.078	872
541.292	845
541.506	883
541.72	846
541.934	858
542.147	856
542.361	874
542.575	863
542.789	841
543.002	854
543.216	847
543.43	831
543.644	870
543.857	851
544.071	862
544.285	870
544.498	871
544.712	849
544.925	858
545.139	866
545.352	856
545.566	830
545.779	829
545.993	861
546.206	867
546.42	852
546.633	851
546.847	867
547.06	850
547.274	844
547.487	874
547.7	850
547.914	855
548.127	865
548.34	851
548.554	836
548.767	853
548.98	850
549.193	869
549.407	853
549.62	856
549.833	843
550.046	838
550.259	838
550.473	815
550.686	860
550.899	820
551.112	814
551.325	805
551.538	828
551.751	837
551.964	847
552.177	830
552.39	797
552.603	824
552.816	851
553.029	830
553.242	872
553.455	834
553.667	850
553.88	861
554.093	801
554.306	821
554.519	801
554.732	808
554.944	802
555.157	776
555.37	793
555.583	782
555.795	790
556.008	756
556.221	763
556.433	754
556.646	754
556.859	726
557.071	758
557.284	731
557.496	730
557.709	750
557.921	751
558.134	735
558.346	725
558.559	745
558.771	728
558.984	736
559.196	740
559.409	692
559.621	727
559.833	725
560.046	723
560.258	710
560.47	720
560.683	725
560.895	712
561.107	712
561.32	701
561.532	722
561.744	719
561.956	723
562.168	718
562.381	732
562.593	714
562.805	709
563.017	711
563.229	726
563.441	715
563.653	730
563.865	715
564.077	739
564.289	770
564.501	751
564.713	756
564.925	770
565.137	743
565.349	765
565.561	777
565.773	803
565.985	783
566.197	798
566.408	846
566.62	832
566.832	877
567.044	879
567.255	888
567.467	896
567.679	927
567.891	915
568.102	873
568.314	873
568.526	853
568.737	804
568.949	811
569.161	764
569.372	738
569.584	737
569.795	720
570.007	702
570.218	690
570.43	671
570.641	681
570.853	662
571.064	682
571.276	664
571.487	677
571.698	628
571.91	619
572.121	642
572.333	624
572.544	611
572.755	625
572.966	640
573.178	598
573.389	595
573.6	574
573.811	603
574.023	594
574.234	589
574.445	569
574.656	559
574.867	556
575.078	541
575.289	557
575.501	566
575.712	550
575.923	559
576.134	554
576.345	535
576.556	555
576.767	546
576.978	539
577.188	545
577.399	534
577.61	516
577.821	535
578.032	518
578.243	536
578.454	530
578.665	542
578.875	504
579.086	516
579.297	496
579.508	508
579.718	509
579.929	492
580.14	494
580.35	493
580.561	501
580.772	524
580.982	514
581.193	487
581.403	473
581.614	482
581.825	500
582.035	479
582.246	485
582.456	492
582.667	479
582.877	485
583.087	463
583.298	463
583.508	499
583.719	505
583.929	476
584.139	482
584.35	459
584.56	468
584.77	481
584.981	479
585.191	450
585.401	473
585.611	500
585.821	470
586.032	471
586.242	479
586.452	501
586.662	467
586.872	454
587.082	456
587.292	461
587.502	482
587.713	472
587.923	483
588.133	457
588.343	485
588.553	458
588.762	464
588.972	455
589.182	510
589.392	495
589.602	455
589.812	477
590.022	498
590.232	474
590.441	452
590.651	466
590.861	457
591.071	464
591.281	485
591.49	475
591.7	464
591.91	478
592.119	465
592.329	464
592.539	476
592.748	465
592.958	455
593.167	457
593.377	483
593.587	488
593.796	468
594.006	483
594.215	468
594.424	481
594.634	495
594.843	479
595.053	462
595.262	460
595.472	457
595.681	440
595.89	452
596.1	452
596.309	433
596.518	428
596.727	446
596.937	439
597.146	428
597.355	442
597.564	411
597.774	418
597.983	390
598.192	416
598.401	414
598.61	401
598.819	397
599.028	392
599.237	401
599.446	388
599.655	400
599.864	393
600.073	374
600.282	404
600.491	402
600.7	382
600.909	380
601.118	394
601.327	388
601.536	378
601.745	383
601.953	374
602.162	399
602.371	376
602.58	404
602.789	371
602.997	386
603.206	382
603.415	380
603.623	379
603.832	385
604.041	396
604.249	359
604.458	378
604.666	365
604.875	358
605.084	339
605.292	373
605.501	366
605.709	373
605.918	353
606.126	382
606.334	348
606.543	365
606.751	357
606.96	342
607.168	348
607.376	349
607.585	364
607.793	364
608.001	377
608.21	344
608.418	351
608.626	365
608.834	362
609.043	352
609.251	326
609.459	332
609.667	309
609.875	342
610.083	337
610.291	353
610.499	367
610.707	356
610.916	326
611.124	358
611.332	339
611.54	335
611.748	340
611.955	326
612.163	351
612.371	341
612.579	341
612.787	347
612.995	336
613.203	319
613.411	334
613.618	330
613.826	338
614.034	347
614.242	334
614.449	322
614.657	339
614.865	317
615.072	329
615.28	339
615.488	347
615.695	338
615.903	335
616.111	326
616.318	334
616.526	325
616.733	320
616.941	327
617.148	330
617.356	333
617.563	322
617.771	332
617.978	320
618.185	329
618.393	298
618.6	320
618.807	304
619.015	334
619.222	323
619.429	302
619.637	318
619.844	300
620.051	325
620.258	319
620.466	308
620.673	310
620.88	301
621.087	304
621.294	310
621.501	300
621.708	310
621.915	316
622.122	310
622.329	307
622.536	304
622.743	316
622.95	316
623.157	292
623.364	306
623.571	310
623.778	287
623.985	303
624.192	307
624.399	316
624.606	295
624.812	293
625.019	307
625.226	290
625.433	288
625.639	283
625.846	282
626.053	277
626.259	278
626.466	308
626.673	272
626.879	301
627.086	293
627.293	283
627.499	284
627.706	281
627.912	273
628.119	278
628.325	276
628.532	276
628.738	262
628.945	264
629.151	281
629.357	278
629.564	256
629.77	291
629.976	294
630.183	265
630.389	278
630.595	279
630.802	282
631.008	255
631.214	259
631.42	267
631.627	268
631.833	261
632.039	256
632.245	260
632.451	292
632.657	267
632.863	260
633.069	255
633.275	262
633.481	276
633.688	272
633.893	265
634.099	263
634.305	245
634.511	250
634.717	266
634.923	232
635.129	238
635.335	260
635.541	268
635.747	244
635.952	234
636.158	260
636.364	266
636.57	252
636.775	238
636.981	245
637.187	260
637.392	253
637.598	252
637.804	255
638.009	262
638.215	246
638.421	260
638.626	266
638.832	244
639.037	227
639.243	243
639.448	263
639.654	249
639.859	251
640.065	255
640.27	234
640.475	246
640.681	256
640.886	267
641.091	238
641.297	249
641.502	232
641.707	256
641.913	245
642.118	234
642.323	220
642.528	243
642.733	245
642.939	247
643.144	236
643.349	243
643.554	238
643.759	256
643.964	247
644.169	255
644.374	231
644.579	247
644.784	235
644.989	256
645.194	238
645.399	242
645.604	234
645.809	246
646.014	244
646.219	243
646.423	215
646.628	231
646.833	250
647.038	242
647.243	260
647.447	228
647.652	260
647.857	270
648.062	260
648.266	253
648.471	251
648.676	266
648.88	247
649.085	255
649.289	258
649.494	241
649.698	246
649.903	270
650.107	255
650.312	262
650.516	260
650.721	249
650.925	247
651.13	246
651.334	234
651.539	248
651.743	225
651.947	223
652.152	228
652.356	228
652.56	234
652.764	237
652.969	232
653.173	220
653.377	228
653.581	220
653.785	206
653.99	238
654.194	221
654.398	221
654.602	222
654.806	196
655.01	219
655.214	215
655.418	218
655.622	221
655.826	239
656.03	219
656.234	211
656.438	234
656.642	227
656.846	218
657.049	209
657.253	198
657.457	202
657.661	189
657.865	190
658.068	159
658.272	155
658.476	152
658.68	147
658.883	162
659.087	144
659.291	127
659.494	138
659.698	120
659.901	144
660.105	117
660.309	119
660.512	118
660.716	122
660.919	112
661.123	124
661.326	104
661.53	100
661.733	96
661.936	108
662.14	99
662.343	92
662.546	86
662.75	107
662.953	104
663.156	92
663.36	103
663.563	90
663.766	91
663.969	99
664.173	86
664.376	92
664.579	87
664.782	87
664.985	94
665.188	84
665.391	83
665.594	84
665.797	93
666	91
666.203	98
666.406	79
666.609	77
666.812	65
667.015	80
667.218	83
667.421	90
667.624	78
667.827	87
668.03	74
668.232	78
668.435	79
668.638	91
668.841	97
669.043	85
669.246	81
669.449	85
669.651	76
669.854	79
670.057	89
670.259	76
670.462	87
670.665	82
670.867	78
671.07	79
671.272	88
671.475	91
671.677	87
671.88	86
672.082	86
672.284	91
672.487	90
672.689	88
672.892	72
