Data from Ni(NO3)2Standard.Agarose3%.GreenCap.LampEnergy5.5.E.O_HRD10591_14-42-22-188.txt Node
Date: Mon Jul 22 14:42:22 EDT 2019
User: cochatt
Spectrometer: HR+D1059
Trigger mode: 1
Integration Time (sec): 1.000000E-1
Scans to average: 1
Electric dark correction enabled: true
Nonlinearity correction enabled: false
Boxcar width: 0
XAxis mode: Wavelengths
Number of Pixels in Spectrum: 2048
>>>>>Begin Spectral Data<<<<<
223.165	-11
223.4	-11
223.635	-11
223.869	-17
224.104	-18
224.338	-11
224.573	-18
224.808	-5
225.042	-6
225.277	3
225.511	-4
225.746	-3
225.98	14
226.215	12
226.449	10
226.683	12
226.918	11
227.152	31
227.387	38
227.621	51
227.856	42
228.09	43
228.324	58
228.559	59
228.793	59
229.027	66
229.262	64
229.496	66
229.73	71
229.964	62
230.199	59
230.433	67
230.667	80
230.901	79
231.136	86
231.37	87
231.604	87
231.838	82
232.072	80
232.306	90
232.541	90
232.775	79
233.009	77
233.243	73
233.477	69
233.711	75
233.945	79
234.179	80
234.413	87
234.647	87
234.881	96
235.115	77
235.349	79
235.583	79
235.817	73
236.051	66
236.285	77
236.519	81
236.753	87
236.987	94
237.221	83
237.455	75
237.689	87
237.922	78
238.156	78
238.39	85
238.624	78
238.858	85
239.091	71
239.325	95
239.559	83
239.793	76
240.027	85
240.26	77
240.494	68
240.728	90
240.961	82
241.195	62
241.429	83
241.662	74
241.896	61
242.13	83
242.363	82
242.597	71
242.83	77
243.064	81
243.298	74
243.531	72
243.765	87
243.998	89
244.232	85
244.465	86
244.699	84
244.932	73
245.166	78
245.399	75
245.633	84
245.866	83
246.099	70
246.333	82
246.566	75
246.8	82
247.033	75
247.266	69
247.5	81
247.733	77
247.966	78
248.2	94
248.433	75
248.666	79
248.899	82
249.133	77
249.366	89
249.599	82
249.832	77
250.066	87
250.299	76
250.532	91
250.765	89
250.998	87
251.231	96
251.465	79
251.698	68
251.931	85
252.164	64
252.397	84
252.63	89
252.863	85
253.096	78
253.329	72
253.562	74
253.795	75
254.028	83
254.261	84
254.494	89
254.727	83
254.96	85
255.193	80
255.426	83
255.659	79
255.892	78
256.124	93
256.357	84
256.59	76
256.823	87
257.056	81
257.289	83
257.521	85
257.754	77
257.987	89
258.22	78
258.452	99
258.685	76
258.918	77
259.151	83
259.383	77
259.616	90
259.849	89
260.081	89
260.314	80
260.547	90
260.779	68
261.012	70
261.244	81
261.477	81
261.71	82
261.942	89
262.175	79
262.407	78
262.64	86
262.872	78
263.105	79
263.337	93
263.57	76
263.802	89
264.035	93
264.267	83
264.499	86
264.732	97
264.964	77
265.197	69
265.429	89
265.661	71
265.894	91
266.126	78
266.358	95
266.591	85
266.823	77
267.055	91
267.287	84
267.52	87
267.752	94
267.984	87
268.216	85
268.448	94
268.681	85
268.913	75
269.145	73
269.377	79
269.609	88
269.841	86
270.073	87
270.306	76
270.538	70
270.77	94
271.002	90
271.234	77
271.466	68
271.698	87
271.93	87
272.162	84
272.394	86
272.626	86
272.858	90
273.09	76
273.322	72
273.553	76
273.785	83
274.017	75
274.249	89
274.481	93
274.713	86
274.945	77
275.176	65
275.408	77
275.64	60
275.872	84
276.104	77
276.335	95
276.567	74
276.799	83
277.031	100
277.262	89
277.494	105
277.726	97
277.957	79
278.189	84
278.421	83
278.652	97
278.884	77
279.115	86
279.347	79
279.579	85
279.81	92
280.042	71
280.273	85
280.505	113
280.736	74
280.968	85
281.199	79
281.431	92
281.662	82
281.894	89
282.125	87
282.356	78
282.588	77
282.819	88
283.051	75
283.282	78
283.513	90
283.745	79
283.976	72
284.207	92
284.439	91
284.67	81
284.901	88
285.132	93
285.364	67
285.595	91
285.826	93
286.057	93
286.288	98
286.52	79
286.751	95
286.982	84
287.213	78
287.444	83
287.675	71
287.906	85
288.138	87
288.369	99
288.6	100
288.831	95
289.062	96
289.293	85
289.524	86
289.755	82
289.986	73
290.217	79
290.448	80
290.679	84
290.91	70
291.141	84
291.371	75
291.602	74
291.833	81
292.064	77
292.295	76
292.526	77
292.757	89
292.987	94
293.218	95
293.449	86
293.68	76
293.91	90
294.141	83
294.372	83
294.603	75
294.833	84
295.064	91
295.295	101
295.525	89
295.756	92
295.987	78
296.217	82
296.448	85
296.679	93
296.909	106
297.14	85
297.37	89
297.601	87
297.831	80
298.062	89
298.292	88
298.523	93
298.753	93
298.984	93
299.214	96
299.445	82
299.675	98
299.905	101
300.136	102
300.366	89
300.597	94
300.827	103
301.057	67
301.288	75
301.518	101
301.748	89
301.979	85
302.209	88
302.439	81
302.669	81
302.9	95
303.13	102
303.36	94
303.59	85
303.82	88
304.051	81
304.281	90
304.511	91
304.741	97
304.971	103
305.201	98
305.431	86
305.661	91
305.891	90
306.121	93
306.352	91
306.582	82
306.812	85
307.042	77
307.272	74
307.502	81
307.731	83
307.961	100
308.191	83
308.421	97
308.651	91
308.881	82
309.111	95
309.341	84
309.571	91
309.8	90
310.03	83
310.26	82
310.49	86
310.72	91
310.949	89
311.179	93
311.409	87
311.639	88
311.868	80
312.098	98
312.328	93
312.557	86
312.787	97
313.017	108
313.246	84
313.476	90
313.706	91
313.935	95
314.165	89
314.394	100
314.624	76
314.853	87
315.083	86
315.312	90
315.542	101
315.771	77
316.001	89
316.23	94
316.46	86
316.689	85
316.919	77
317.148	85
317.377	76
317.607	78
317.836	86
318.065	91
318.295	91
318.524	91
318.753	67
318.983	85
319.212	85
319.441	77
319.67	84
319.9	93
320.129	92
320.358	80
320.587	76
320.816	78
321.046	91
321.275	86
321.504	90
321.733	85
321.962	103
322.191	89
322.42	91
322.649	91
322.878	78
323.108	78
323.337	85
323.566	91
323.795	92
324.024	81
324.253	79
324.482	89
324.71	84
324.939	79
325.168	103
325.397	97
325.626	98
325.855	98
326.084	90
326.313	84
326.542	79
326.77	94
326.999	77
327.228	87
327.457	97
327.686	87
327.914	87
328.143	91
328.372	79
328.6	79
328.829	81
329.058	73
329.287	78
329.515	80
329.744	85
329.972	82
330.201	79
330.43	76
330.658	81
330.887	77
331.115	78
331.344	65
331.572	74
331.801	98
332.03	84
332.258	76
332.486	86
332.715	96
332.943	76
333.172	78
333.4	86
333.629	91
333.857	80
334.085	91
334.314	81
334.542	95
334.771	86
334.999	87
335.227	84
335.455	86
335.684	98
335.912	89
336.14	94
336.369	81
336.597	99
336.825	88
337.053	89
337.281	82
337.51	86
337.738	78
337.966	77
338.194	76
338.422	100
338.65	95
338.878	102
339.106	87
339.334	84
339.562	89
339.79	93
340.018	86
340.246	102
340.474	96
340.702	92
340.93	84
341.158	86
341.386	93
341.614	88
341.842	83
342.07	83
342.298	90
342.526	93
342.754	86
342.981	85
343.209	79
343.437	87
343.665	85
343.893	91
344.12	98
344.348	82
344.576	72
344.804	84
345.031	89
345.259	83
345.487	80
345.714	98
345.942	76
346.17	87
346.397	93
346.625	74
346.853	85
347.08	95
347.308	89
347.535	96
347.763	86
347.99	100
348.218	104
348.445	94
348.673	92
348.9	87
349.128	83
349.355	92
349.583	79
349.81	93
350.037	102
350.265	74
350.492	80
350.72	79
350.947	80
351.174	78
351.402	91
351.629	92
351.856	91
352.083	82
352.311	74
352.538	101
352.765	98
352.992	96
353.22	88
353.447	80
353.674	87
353.901	104
354.128	77
354.355	82
354.583	91
354.81	84
355.037	85
355.264	94
355.491	87
355.718	77
355.945	94
356.172	86
356.399	85
356.626	88
356.853	78
357.08	90
357.307	90
357.534	96
357.761	88
357.988	87
358.215	86
358.441	87
358.668	86
358.895	80
359.122	80
359.349	90
359.576	79
359.802	81
360.029	84
360.256	85
360.483	90
360.709	94
360.936	98
361.163	85
361.39	74
361.616	78
361.843	87
362.07	102
362.296	94
362.523	92
362.749	87
362.976	100
363.203	90
363.429	85
363.656	97
363.882	79
364.109	90
364.335	81
364.562	93
364.788	94
365.015	78
365.241	97
365.468	93
365.694	90
365.92	89
366.147	71
366.373	95
366.599	90
366.826	93
367.052	92
367.278	75
367.505	88
367.731	103
367.957	93
368.184	91
368.41	91
368.636	77
368.862	90
369.089	98
369.315	94
369.541	88
369.767	91
369.993	99
370.219	83
370.445	69
370.672	94
370.898	88
371.124	85
371.35	76
371.576	86
371.802	83
372.028	84
372.254	86
372.48	91
372.706	98
372.932	79
373.158	94
373.384	99
373.61	76
373.835	82
374.061	79
374.287	73
374.513	83
374.739	76
374.965	84
375.191	74
375.416	86
375.642	72
375.868	91
376.094	91
376.319	79
376.545	76
376.771	92
376.997	91
377.222	98
377.448	68
377.674	83
377.899	90
378.125	90
378.35	75
378.576	85
378.802	94
379.027	87
379.253	71
379.478	93
379.704	88
379.929	100
380.155	85
380.38	82
380.606	90
380.831	98
381.057	85
381.282	65
381.507	81
381.733	92
381.958	80
382.184	98
382.409	78
382.634	89
382.86	92
383.085	91
383.31	79
383.535	77
383.761	94
383.986	82
384.211	86
384.436	87
384.662	88
384.887	90
385.112	81
385.337	83
385.562	98
385.787	84
386.013	96
386.238	80
386.463	85
386.688	78
386.913	89
387.138	97
387.363	81
387.588	69
387.813	78
388.038	93
388.263	98
388.488	93
388.713	87
388.938	83
389.163	95
389.387	86
389.612	75
389.837	89
390.062	75
390.287	77
390.512	79
390.736	78
390.961	68
391.186	87
391.411	81
391.636	72
391.86	71
392.085	73
392.31	92
392.534	83
392.759	82
392.984	90
393.208	89
393.433	81
393.658	79
393.882	92
394.107	95
394.331	88
394.556	93
394.78	83
395.005	89
395.229	85
395.454	79
395.678	80
395.903	90
396.127	83
396.352	97
396.576	99
396.801	91
397.025	78
397.249	82
397.474	93
397.698	73
397.922	81
398.147	72
398.371	89
398.595	109
398.82	80
399.044	73
399.268	81
399.492	97
399.717	74
399.941	79
400.165	80
400.389	102
400.613	96
400.837	93
401.062	75
401.286	88
401.51	78
401.734	78
401.958	81
402.182	93
402.406	79
402.63	87
402.854	91
403.078	101
403.302	77
403.526	82
403.75	88
403.974	87
404.198	90
404.422	92
404.645	83
404.869	100
405.093	98
405.317	83
405.541	66
405.765	88
405.988	79
406.212	83
406.436	85
406.66	76
406.883	93
407.107	83
407.331	76
407.555	98
407.778	93
408.002	96
408.226	82
408.449	83
408.673	80
408.896	84
409.12	93
409.344	87
409.567	80
409.791	87
410.014	98
410.238	89
410.461	97
410.685	92
410.908	78
411.132	94
411.355	100
411.578	85
411.802	76
412.025	100
412.249	78
412.472	89
412.695	97
412.919	88
413.142	84
413.365	99
413.589	83
413.812	103
414.035	80
414.258	78
414.482	100
414.705	84
414.928	79
415.151	76
415.374	78
415.597	82
415.821	79
416.044	93
416.267	88
416.49	82
416.713	95
416.936	78
417.159	73
417.382	82
417.605	92
417.828	100
418.051	92
418.274	76
418.497	74
418.72	105
418.943	82
419.166	94
419.389	104
419.611	96
419.834	100
420.057	92
420.28	91
420.503	93
420.726	96
420.948	80
421.171	90
421.394	85
421.617	94
421.839	90
422.062	95
422.285	91
422.507	74
422.73	61
422.953	94
423.175	95
423.398	91
423.621	89
423.843	83
424.066	85
424.288	88
424.511	79
424.733	89
424.956	90
425.178	78
425.401	83
425.623	90
425.846	85
426.068	85
426.291	77
426.513	94
426.735	86
426.958	77
427.18	95
427.402	95
427.625	103
427.847	86
428.069	93
428.292	94
428.514	86
428.736	83
428.958	91
429.181	80
429.403	90
429.625	94
429.847	96
430.069	83
430.292	92
430.514	71
430.736	88
430.958	87
431.18	82
431.402	89
431.624	89
431.846	98
432.068	100
432.29	65
432.512	89
432.734	78
432.956	93
433.178	94
433.4	93
433.622	88
433.844	86
434.066	94
434.287	91
434.509	76
434.731	90
434.953	94
435.175	85
435.397	83
435.618	95
435.84	93
436.062	83
436.284	74
436.505	98
436.727	92
436.949	90
437.17	85
437.392	86
437.614	83
437.835	74
438.057	84
438.278	87
438.5	75
438.721	78
438.943	95
439.165	83
439.386	92
439.608	95
439.829	82
440.05	91
440.272	78
440.493	79
440.715	78
440.936	84
441.158	78
441.379	93
441.6	88
441.822	79
442.043	89
442.264	73
442.486	100
442.707	94
442.928	94
443.149	84
443.371	106
443.592	96
443.813	96
444.034	92
444.255	81
444.476	79
444.698	94
444.919	88
445.14	202
445.361	143
445.582	87
445.803	88
446.024	81
446.245	89
446.466	85
446.687	91
446.908	90
447.129	88
447.35	87
447.571	94
447.792	96
448.013	83
448.234	84
448.455	81
448.675	83
448.896	83
449.117	85
449.338	89
449.559	91
449.779	74
450	89
450.221	81
450.442	95
450.662	73
450.883	80
451.104	92
451.324	90
451.545	93
451.766	87
451.986	79
452.207	87
452.428	95
452.648	88
452.869	82
453.089	89
453.31	77
453.53	94
453.751	86
453.971	86
454.192	91
454.412	89
454.633	79
454.853	101
455.073	92
455.294	91
455.514	103
455.734	83
455.955	82
456.175	81
456.395	88
456.616	80
456.836	77
457.056	89
457.276	90
457.497	91
457.717	82
457.937	85
458.157	78
458.377	80
458.598	81
458.818	87
459.038	86
459.258	93
459.478	91
459.698	76
459.918	86
460.138	77
460.358	92
460.578	85
460.798	101
461.018	88
461.238	83
461.458	69
461.678	77
461.898	84
462.118	83
462.338	73
462.558	98
462.777	90
462.997	89
463.217	102
463.437	87
463.657	84
463.876	94
464.096	82
464.316	94
464.536	89
464.755	78
464.975	88
465.195	75
465.414	81
465.634	89
465.854	88
466.073	76
466.293	84
466.512	82
466.732	93
466.951	88
467.171	95
467.391	85
467.61	85
467.829	88
468.049	98
468.268	79
468.488	86
468.707	79
468.927	87
469.146	78
469.365	84
469.585	85
469.804	91
470.023	80
470.243	92
470.462	98
470.681	77
470.901	84
471.12	81
471.339	87
471.558	88
471.777	88
471.997	90
472.216	97
472.435	89
472.654	76
472.873	83
473.092	79
473.311	89
473.53	76
473.749	83
473.968	105
474.187	93
474.406	87
474.625	86
474.844	87
475.063	77
475.282	98
475.501	106
475.72	103
475.939	94
476.158	81
476.377	75
476.596	86
476.814	91
477.033	93
477.252	82
477.471	78
477.69	97
477.908	79
478.127	89
478.346	75
478.564	102
478.783	94
479.002	101
479.22	91
479.439	97
479.658	102
479.876	91
480.095	97
480.313	99
480.532	99
480.751	92
480.969	95
481.188	87
481.406	108
481.624	106
481.843	100
482.061	87
482.28	101
482.498	91
482.717	91
482.935	96
483.153	96
483.372	90
483.59	90
483.808	76
484.027	92
484.245	85
484.463	94
484.681	93
484.9	90
485.118	92
485.336	82
485.554	89
485.772	102
485.99	84
486.209	85
486.427	85
486.645	91
486.863	92
487.081	99
487.299	101
487.517	81
487.735	82
487.953	99
488.171	100
488.389	99
488.607	91
488.825	94
489.043	86
489.261	95
489.479	86
489.696	85
489.914	87
490.132	102
490.35	97
490.568	97
490.786	91
491.003	84
491.221	113
491.439	89
491.657	88
491.874	98
492.092	103
492.31	96
492.527	96
492.745	98
492.963	93
493.18	102
493.398	91
493.615	97
493.833	102
494.05	94
494.268	108
494.485	86
494.703	92
494.92	101
495.138	106
495.355	100
495.573	89
495.79	94
496.008	104
496.225	87
496.442	106
496.66	94
496.877	97
497.094	95
497.312	94
497.529	98
497.746	88
497.963	101
498.181	104
498.398	82
498.615	105
498.832	89
499.049	101
499.267	109
499.484	91
499.701	99
499.918	99
500.135	101
500.352	131
500.569	139
500.786	121
501.003	110
501.22	114
501.437	108
501.654	96
501.871	103
502.088	93
502.305	94
502.522	99
502.739	101
502.956	90
503.172	99
503.389	91
503.606	91
503.823	119
504.04	107
504.256	90
504.473	99
504.69	99
504.907	101
505.123	109
505.34	88
505.557	79
505.773	90
505.99	89
506.207	83
506.423	86
506.64	107
506.856	89
507.073	103
507.289	96
507.506	108
507.722	92
507.939	94
508.155	88
508.372	109
508.588	115
508.805	93
509.021	86
509.238	83
509.454	77
509.67	92
509.887	95
510.103	101
510.319	102
510.536	98
510.752	83
510.968	87
511.184	102
511.401	96
511.617	93
511.833	74
512.049	77
512.265	78
512.481	94
512.698	90
512.914	91
513.13	95
513.346	98
513.562	91
513.778	79
513.994	80
514.21	97
514.426	85
514.642	90
514.858	102
515.074	99
515.29	87
515.506	87
515.721	106
515.937	98
516.153	102
516.369	95
516.585	87
516.801	94
517.016	75
517.232	97
517.448	98
517.664	89
517.879	99
518.095	93
518.311	95
518.527	84
518.742	90
518.958	78
519.173	103
519.389	106
519.605	95
519.82	92
520.036	92
520.251	87
520.467	93
520.682	97
520.898	97
521.113	100
521.329	87
521.544	105
521.76	75
521.975	93
522.19	100
522.406	85
522.621	94
522.836	82
523.052	100
523.267	88
523.482	96
523.698	100
523.913	88
524.128	102
524.343	93
524.559	71
524.774	85
524.989	97
525.204	98
525.419	78
525.634	83
525.849	97
526.064	95
526.28	86
526.495	95
526.71	87
526.925	105
527.14	108
527.355	92
527.57	76
527.785	79
527.999	91
528.214	98
528.429	90
528.644	93
528.859	97
529.074	94
529.289	96
529.503	76
529.718	111
529.933	98
530.148	91
530.363	106
530.577	96
530.792	80
531.007	89
531.221	103
531.436	87
531.651	96
531.865	77
532.08	85
532.295	81
532.509	87
532.724	103
532.938	94
533.153	91
533.367	81
533.582	93
533.796	89
534.011	86
534.225	93
534.44	84
534.654	102
534.868	89
535.083	91
535.297	83
535.511	82
535.726	87
535.94	105
536.154	88
536.369	95
536.583	106
536.797	94
537.011	93
537.225	81
537.44	79
537.654	100
537.868	86
538.082	82
538.296	97
538.51	86
538.724	88
538.938	85
539.153	92
539.367	95
539.581	104
539.795	83
540.009	98
540.222	85
540.436	96
540.65	91
540.864	88
541.078	88
541.292	84
541.506	106
541.72	79
541.934	86
542.147	93
542.361	96
542.575	97
542.789	89
543.002	91
543.216	84
543.43	101
543.644	91
543.857	98
544.071	98
544.285	107
544.498	100
544.712	88
544.925	86
545.139	77
545.352	81
545.566	91
545.779	82
545.993	86
546.206	89
546.42	103
546.633	95
546.847	82
547.06	94
547.274	93
547.487	95
547.7	80
547.914	110
548.127	98
548.34	95
548.554	79
548.767	102
548.98	76
549.193	87
549.407	87
549.62	113
549.833	90
550.046	87
550.259	97
550.473	86
550.686	108
550.899	100
551.112	88
551.325	94
551.538	82
551.751	85
551.964	85
552.177	89
552.39	101
552.603	100
552.816	86
553.029	96
553.242	93
553.455	87
553.667	101
553.88	97
554.093	74
554.306	84
554.519	98
554.732	92
554.944	93
555.157	91
555.37	84
555.583	81
555.795	90
556.008	70
556.221	82
556.433	90
556.646	93
556.859	96
557.071	70
557.284	98
557.496	88
557.709	105
557.921	86
558.134	91
558.346	89
558.559	91
558.771	86
558.984	95
559.196	94
559.409	82
559.621	90
559.833	89
560.046	82
560.258	90
560.47	84
560.683	100
560.895	90
561.107	90
561.32	105
561.532	91
561.744	79
561.956	92
562.168	94
562.381	100
562.593	99
562.805	88
563.017	79
563.229	86
563.441	85
563.653	83
563.865	104
564.077	84
564.289	82
564.501	84
564.713	89
564.925	88
565.137	101
565.349	93
565.561	97
565.773	104
565.985	90
566.197	89
566.408	92
566.62	101
566.832	100
567.044	83
567.255	93
567.467	89
567.679	90
567.891	95
568.102	89
568.314	85
568.526	87
568.737	92
568.949	94
569.161	89
569.372	88
569.584	94
569.795	90
570.007	97
570.218	85
570.43	86
570.641	89
570.853	79
571.064	91
571.276	100
571.487	86
571.698	74
571.91	89
572.121	81
572.333	98
572.544	96
572.755	87
572.966	91
573.178	89
573.389	88
573.6	91
573.811	84
574.023	73
574.234	100
574.445	98
574.656	78
574.867	100
575.078	95
575.289	83
575.501	85
575.712	91
575.923	103
576.134	97
576.345	78
576.556	91
576.767	86
576.978	88
577.188	86
577.399	96
577.61	97
577.821	86
578.032	81
578.243	90
578.454	79
578.665	93
578.875	83
579.086	89
579.297	82
579.508	96
579.718	86
579.929	92
580.14	94
580.35	88
580.561	102
580.772	88
580.982	83
581.193	78
581.403	78
581.614	91
581.825	83
582.035	71
582.246	83
582.456	85
582.667	86
582.877	94
583.087	91
583.298	107
583.508	106
583.719	90
583.929	100
584.139	97
584.35	81
584.56	94
584.77	83
584.981	94
585.191	84
585.401	84
585.611	80
585.821	97
586.032	88
586.242	78
586.452	79
586.662	82
586.872	90
587.082	88
587.292	93
587.502	79
587.713	86
587.923	74
588.133	93
588.343	101
588.553	77
588.762	98
588.972	85
589.182	79
589.392	75
589.602	96
589.812	83
590.022	90
590.232	78
590.441	86
590.651	91
590.861	76
591.071	83
591.281	88
591.49	85
591.7	94
591.91	88
592.119	90
592.329	93
592.539	89
592.748	81
592.958	74
593.167	95
593.377	86
593.587	105
593.796	81
594.006	85
594.215	95
594.424	72
594.634	92
594.843	88
595.053	91
595.262	83
595.472	97
595.681	79
595.89	95
596.1	87
596.309	82
596.518	87
596.727	98
596.937	92
597.146	94
597.355	76
597.564	93
597.774	93
597.983	94
598.192	81
598.401	94
598.61	75
598.819	79
599.028	101
599.237	92
599.446	79
599.655	89
599.864	97
600.073	87
600.282	75
600.491	87
600.7	99
600.909	104
601.118	79
601.327	84
601.536	91
601.745	88
601.953	80
602.162	91
602.371	93
602.58	89
602.789	92
602.997	96
603.206	94
603.415	90
603.623	89
603.832	81
604.041	92
604.249	78
604.458	85
604.666	74
604.875	76
605.084	75
605.292	74
605.501	85
605.709	84
605.918	86
606.126	91
606.334	86
606.543	88
606.751	98
606.96	92
607.168	91
607.376	98
607.585	94
607.793	77
608.001	89
608.21	93
608.418	89
608.626	89
608.834	91
609.043	76
609.251	97
609.459	83
609.667	89
609.875	81
610.083	71
610.291	90
610.499	95
610.707	83
610.916	108
611.124	79
611.332	103
611.54	88
611.748	89
611.955	84
612.163	92
612.371	75
612.579	96
612.787	83
612.995	74
613.203	76
613.411	79
613.618	89
613.826	78
614.034	93
614.242	80
614.449	91
614.657	78
614.865	92
615.072	90
615.28	81
615.488	78
615.695	86
615.903	89
616.111	103
616.318	77
616.526	89
616.733	87
616.941	99
617.148	84
617.356	77
617.563	77
617.771	85
617.978	90
618.185	80
618.393	90
618.6	85
618.807	75
619.015	80
619.222	96
619.429	89
619.637	98
619.844	85
620.051	84
620.258	85
620.466	72
620.673	78
620.88	77
621.087	84
621.294	83
621.501	77
621.708	78
621.915	72
622.122	77
622.329	84
622.536	87
622.743	80
622.95	79
623.157	87
623.364	78
623.571	85
623.778	79
623.985	94
624.192	84
624.399	93
624.606	92
624.812	93
625.019	90
625.226	86
625.433	103
625.639	83
625.846	80
626.053	91
626.259	83
626.466	91
626.673	95
626.879	94
627.086	92
627.293	86
627.499	91
627.706	90
627.912	75
628.119	79
628.325	95
628.532	88
628.738	79
628.945	71
629.151	92
629.357	85
629.564	89
629.77	92
629.976	74
630.183	90
630.389	81
630.595	83
630.802	100
631.008	78
631.214	82
631.42	80
631.627	91
631.833	82
632.039	86
632.245	89
632.451	82
632.657	70
632.863	82
633.069	96
633.275	106
633.481	88
633.688	72
633.893	85
634.099	88
634.305	90
634.511	80
634.717	91
634.923	71
635.129	76
635.335	86
635.541	94
635.747	84
635.952	94
636.158	85
636.364	85
636.57	82
636.775	66
636.981	70
637.187	88
637.392	85
637.598	89
637.804	79
638.009	87
638.215	81
638.421	85
638.626	88
638.832	92
639.037	90
639.243	93
639.448	74
639.654	93
639.859	75
640.065	90
640.27	77
640.475	81
640.681	86
640.886	88
641.091	77
641.297	79
641.502	93
641.707	98
641.913	81
642.118	94
642.323	76
642.528	85
642.733	85
642.939	78
643.144	87
643.349	97
643.554	86
643.759	83
643.964	89
644.169	68
644.374	89
644.579	75
644.784	78
644.989	79
645.194	92
645.399	80
645.604	84
645.809	91
646.014	74
646.219	87
646.423	97
646.628	89
646.833	91
647.038	107
647.243	88
647.447	79
647.652	85
647.857	95
648.062	76
648.266	85
648.471	78
648.676	81
648.88	73
649.085	80
649.289	75
649.494	90
649.698	101
649.903	75
650.107	94
650.312	93
650.516	73
650.721	88
650.925	113
651.13	90
651.334	79
651.539	85
651.743	94
651.947	94
652.152	87
652.356	86
652.56	99
652.764	81
652.969	89
653.173	92
653.377	86
653.581	94
653.785	77
653.99	82
654.194	91
654.398	78
654.602	82
654.806	73
655.01	78
655.214	94
655.418	89
655.622	76
655.826	92
656.03	85
656.234	78
656.438	85
656.642	88
656.846	87
657.049	81
657.253	81
657.457	89
657.661	71
657.865	95
658.068	78
658.272	88
658.476	81
658.68	84
658.883	83
659.087	82
659.291	80
659.494	110
659.698	87
659.901	104
660.105	75
660.309	74
660.512	98
660.716	81
660.919	86
661.123	85
661.326	78
661.53	74
661.733	86
661.936	79
662.14	81
662.343	81
662.546	89
662.75	78
662.953	84
663.156	85
663.36	75
663.563	79
663.766	80
663.969	73
664.173	103
664.376	73
664.579	73
664.782	84
664.985	75
665.188	86
665.391	76
665.594	91
665.797	84
666	77
666.203	83
666.406	78
666.609	79
666.812	91
667.015	93
667.218	84
667.421	98
667.624	91
667.827	89
668.03	82
668.232	90
668.435	84
668.638	92
668.841	82
669.043	83
669.246	75
669.449	74
669.651	73
669.854	81
670.057	97
670.259	82
670.462	94
670.665	98
670.867	77
671.07	80
671.272	78
671.475	93
671.677	74
671.88	77
672.082	86
672.284	81
672.487	71
672.689	77
672.892	84
