Data from Ni(NO3)2@0.25M.TitratingCurve.Agarose3%dH2O.NegLispCup.LampEnergy10.LIBS07252019_HRD10591_18-02-48-565.txt Node
Date: Thu Jul 25 18:02:48 EDT 2019
User: cochatt
Spectrometer: HR+D1059
Trigger mode: 1
Integration Time (sec): 1.000000E-1
Scans to average: 1
Electric dark correction enabled: true
Nonlinearity correction enabled: false
Boxcar width: 0
XAxis mode: Wavelengths
Number of Pixels in Spectrum: 2048
>>>>>Begin Spectral Data<<<<<
223.165	1
223.4	1
223.635	1
223.869	-20
224.104	-28
224.338	-4
224.573	-21
224.808	-19
225.042	-14
225.277	-8
225.511	-11
225.746	-3
225.98	4
226.215	22
226.449	16
226.683	27
226.918	22
227.152	36
227.387	30
227.621	39
227.856	50
228.09	54
228.324	52
228.559	54
228.793	71
229.027	97
229.262	120
229.496	122
229.73	110
229.964	134
230.199	135
230.433	151
230.667	142
230.901	149
231.136	147
231.37	140
231.604	142
231.838	145
232.072	159
232.306	159
232.541	157
232.775	144
233.009	148
233.243	151
233.477	147
233.711	142
233.945	148
234.179	146
234.413	146
234.647	150
234.881	124
235.115	157
235.349	130
235.583	153
235.817	138
236.051	150
236.285	150
236.519	147
236.753	140
236.987	150
237.221	158
237.455	147
237.689	143
237.922	156
238.156	158
238.39	163
238.624	155
238.858	167
239.091	173
239.325	160
239.559	168
239.793	179
240.027	181
240.26	167
240.494	180
240.728	172
240.961	169
241.195	188
241.429	168
241.662	179
241.896	192
242.13	201
242.363	184
242.597	190
242.83	179
243.064	178
243.298	190
243.531	201
243.765	187
243.998	198
244.232	196
244.465	194
244.699	205
244.932	207
245.166	194
245.399	199
245.633	206
245.866	197
246.099	220
246.333	208
246.566	211
246.8	209
247.033	208
247.266	219
247.5	216
247.733	217
247.966	198
248.2	229
248.433	229
248.666	226
248.899	237
249.133	239
249.366	239
249.599	250
249.832	253
250.066	245
250.299	249
250.532	262
250.765	260
250.998	282
251.231	278
251.465	276
251.698	278
251.931	277
252.164	274
252.397	275
252.63	300
252.863	296
253.096	295
253.329	275
253.562	306
253.795	297
254.028	309
254.261	300
254.494	302
254.727	317
254.96	315
255.193	324
255.426	320
255.659	324
255.892	334
256.124	320
256.357	342
256.59	327
256.823	327
257.056	342
257.289	358
257.521	344
257.754	350
257.987	334
258.22	350
258.452	375
258.685	360
258.918	354
259.151	370
259.383	356
259.616	362
259.849	372
260.081	361
260.314	366
260.547	357
260.779	342
261.012	367
261.244	380
261.477	378
261.71	384
261.942	384
262.175	370
262.407	382
262.64	365
262.872	374
263.105	398
263.337	411
263.57	404
263.802	399
264.035	397
264.267	390
264.499	391
264.732	401
264.964	389
265.197	394
265.429	416
265.661	399
265.894	413
266.126	413
266.358	406
266.591	425
266.823	442
267.055	422
267.287	423
267.52	412
267.752	428
267.984	428
268.216	434
268.448	425
268.681	438
268.913	438
269.145	438
269.377	434
269.609	444
269.841	451
270.073	445
270.306	444
270.538	428
270.77	418
271.002	445
271.234	460
271.466	434
271.698	448
271.93	467
272.162	458
272.394	462
272.626	457
272.858	467
273.09	456
273.322	460
273.553	455
273.785	475
274.017	475
274.249	481
274.481	465
274.713	461
274.945	480
275.176	491
275.408	477
275.64	488
275.872	494
276.104	479
276.335	465
276.567	472
276.799	495
277.031	499
277.262	486
277.494	488
277.726	487
277.957	488
278.189	502
278.421	485
278.652	488
278.884	509
279.115	499
279.347	498
279.579	494
279.81	502
280.042	509
280.273	503
280.505	504
280.736	525
280.968	514
281.199	527
281.431	527
281.662	519
281.894	516
282.125	512
282.356	533
282.588	537
282.819	517
283.051	522
283.282	515
283.513	521
283.745	542
283.976	519
284.207	533
284.439	533
284.67	539
284.901	537
285.132	527
285.364	518
285.595	551
285.826	531
286.057	550
286.288	544
286.52	531
286.751	523
286.982	555
287.213	555
287.444	556
287.675	558
287.906	538
288.138	538
288.369	536
288.6	548
288.831	533
289.062	555
289.293	562
289.524	554
289.755	562
289.986	570
290.217	554
290.448	544
290.679	548
290.91	550
291.141	537
291.371	570
291.602	550
291.833	554
292.064	556
292.295	541
292.526	541
292.757	539
292.987	556
293.218	557
293.449	558
293.68	562
293.91	573
294.141	555
294.372	572
294.603	568
294.833	570
295.064	556
295.295	579
295.525	576
295.756	566
295.987	555
296.217	580
296.448	562
296.679	560
296.909	563
297.14	570
297.37	600
297.601	559
297.831	577
298.062	584
298.292	594
298.523	621
298.753	614
298.984	583
299.214	598
299.445	565
299.675	603
299.905	599
300.136	614
300.366	620
300.597	627
300.827	630
301.057	607
301.288	611
301.518	642
301.748	616
301.979	620
302.209	640
302.439	650
302.669	626
302.9	620
303.13	626
303.36	644
303.59	637
303.82	650
304.051	655
304.281	641
304.511	654
304.741	644
304.971	643
305.201	647
305.431	659
305.661	669
305.891	660
306.121	657
306.352	635
306.582	663
306.812	655
307.042	657
307.272	647
307.502	616
307.731	644
307.961	653
308.191	626
308.421	651
308.651	670
308.881	658
309.111	656
309.341	644
309.571	652
309.8	665
310.03	688
310.26	707
310.49	688
310.72	684
310.949	677
311.179	685
311.409	674
311.639	679
311.868	705
312.098	700
312.328	733
312.557	708
312.787	717
313.017	712
313.246	724
313.476	716
313.706	703
313.935	734
314.165	760
314.394	772
314.624	712
314.853	750
315.083	730
315.312	757
315.542	732
315.771	743
316.001	726
316.23	717
316.46	756
316.689	760
316.919	762
317.148	773
317.377	770
317.607	766
317.836	757
318.065	762
318.295	813
318.524	770
318.753	761
318.983	774
319.212	781
319.441	762
319.67	795
319.9	792
320.129	791
320.358	768
320.587	788
320.816	805
321.046	828
321.275	804
321.504	808
321.733	832
321.962	838
322.191	837
322.42	862
322.649	838
322.878	871
323.108	840
323.337	874
323.566	881
323.795	874
324.024	854
324.253	878
324.482	895
324.71	892
324.939	872
325.168	912
325.397	893
325.626	893
325.855	912
326.084	943
326.313	902
326.542	920
326.77	940
326.999	950
327.228	936
327.457	970
327.686	939
327.914	916
328.143	980
328.372	964
328.6	955
328.829	942
329.058	973
329.287	954
329.515	970
329.744	964
329.972	982
330.201	946
330.43	997
330.658	1003
330.887	990
331.115	1016
331.344	1008
331.572	1043
331.801	1029
332.03	1031
332.258	1040
332.486	1051
332.715	1077
332.943	1097
333.172	1097
333.4	1095
333.629	1125
333.857	1162
334.085	1130
334.314	1187
334.542	1172
334.771	1168
334.999	1170
335.227	1174
335.455	1173
335.684	1183
335.912	1203
336.14	1187
336.369	1193
336.597	1174
336.825	1179
337.053	1166
337.281	1146
337.51	1151
337.738	1155
337.966	1147
338.194	1152
338.422	1140
338.65	1101
338.878	1164
339.106	1106
339.334	1102
339.562	1092
339.79	1113
340.018	1094
340.246	1094
340.474	1099
340.702	1114
340.93	1079
341.158	1108
341.386	1097
341.614	1146
341.842	1135
342.07	1099
342.298	1129
342.526	1090
342.754	1076
342.981	1097
343.209	1109
343.437	1128
343.665	1147
343.893	1173
344.12	1150
344.348	1163
344.576	1160
344.804	1190
345.031	1164
345.259	1145
345.487	1129
345.714	1118
345.942	1122
346.17	1122
346.397	1107
346.625	1099
346.853	1087
347.08	1088
347.308	1072
347.535	1067
347.763	1060
347.99	1084
348.218	1070
348.445	1035
348.673	1065
348.9	1058
349.128	1086
349.355	1063
349.583	1076
349.81	1014
350.037	1050
350.265	1058
350.492	1029
350.72	1062
350.947	1050
351.174	1067
351.402	1076
351.629	1063
351.856	1048
352.083	1036
352.311	1040
352.538	1064
352.765	1074
352.992	1012
353.22	984
353.447	1000
353.674	1030
353.901	1044
354.128	1054
354.355	1034
354.583	1023
354.81	1014
355.037	1038
355.264	1019
355.491	1034
355.718	1023
355.945	1028
356.172	1046
356.399	1004
356.626	1054
356.853	1036
357.08	1036
357.307	1021
357.534	1038
357.761	1027
357.988	1017
358.215	1048
358.441	1016
358.668	1001
358.895	1044
359.122	1003
359.349	996
359.576	1062
359.802	1002
360.029	1015
360.256	1028
360.483	1039
360.709	1000
360.936	1039
361.163	1047
361.39	1041
361.616	1061
361.843	1036
362.07	1080
362.296	1029
362.523	1028
362.749	1029
362.976	1024
363.203	1022
363.429	1033
363.656	1006
363.882	1021
364.109	1064
364.335	1031
364.562	1030
364.788	1008
365.015	1030
365.241	1035
365.468	1024
365.694	1013
365.92	1029
366.147	1048
366.373	1008
366.599	1062
366.826	1029
367.052	1023
367.278	1024
367.505	1019
367.731	1050
367.957	1025
368.184	1008
368.41	1014
368.636	1054
368.862	1037
369.089	1019
369.315	1022
369.541	1041
369.767	1046
369.993	1024
370.219	1008
370.445	1049
370.672	1070
370.898	1082
371.124	1052
371.35	1060
371.576	1040
371.802	1068
372.028	1075
372.254	1061
372.48	1068
372.706	1046
372.932	1051
373.158	1064
373.384	1056
373.61	1056
373.835	1077
374.061	1062
374.287	1056
374.513	1086
374.739	1086
374.965	1103
375.191	1086
375.416	1096
375.642	1089
375.868	1063
376.094	1059
376.319	1055
376.545	1041
376.771	1055
376.997	1063
377.222	1023
377.448	1032
377.674	1032
377.899	1032
378.125	1004
378.35	1010
378.576	1040
378.802	989
379.027	1042
379.253	1022
379.478	1031
379.704	1030
379.929	995
380.155	983
380.38	1011
380.606	1028
380.831	1027
381.057	1024
381.282	1001
381.507	1045
381.733	999
381.958	1036
382.184	1063
382.409	1069
382.634	1054
382.86	1043
383.085	1102
383.31	1103
383.535	1060
383.761	1081
383.986	1026
384.211	1064
384.436	1075
384.662	1096
384.887	1128
385.112	1079
385.337	1101
385.562	1115
385.787	1114
386.013	1159
386.238	1125
386.463	1175
386.688	1120
386.913	1103
387.138	1120
387.363	1150
387.588	1148
387.813	1144
388.038	1158
388.263	1161
388.488	1157
388.713	1150
388.938	1148
389.163	1138
389.387	1142
389.612	1150
389.837	1156
390.062	1108
390.287	1174
390.512	1164
390.736	1168
390.961	1195
391.186	1146
391.411	1174
391.636	1192
391.86	1210
392.085	1228
392.31	1207
392.534	1220
392.759	1232
392.984	1224
393.208	1222
393.433	1207
393.658	1212
393.882	1210
394.107	1167
394.331	1200
394.556	1196
394.78	1216
395.005	1196
395.229	1222
395.454	1227
395.678	1240
395.903	1244
396.127	1212
396.352	1210
396.576	1217
396.801	1283
397.025	1315
397.249	1260
397.474	1282
397.698	1282
397.922	1303
398.147	1288
398.371	1288
398.595	1333
398.82	1357
399.044	1388
399.268	1450
399.492	1508
399.717	1527
399.941	1545
400.165	1548
400.389	1523
400.613	1476
400.837	1426
401.062	1414
401.286	1416
401.51	1404
401.734	1362
401.958	1355
402.182	1410
402.406	1362
402.63	1404
402.854	1390
403.078	1436
403.302	1373
403.526	1386
403.75	1392
403.974	1379
404.198	1415
404.422	1394
404.645	1412
404.869	1391
405.093	1452
405.317	1440
405.541	1414
405.765	1413
405.988	1413
406.212	1457
406.436	1462
406.66	1499
406.883	1446
407.107	1512
407.331	1505
407.555	1556
407.778	1577
408.002	1561
408.226	1539
408.449	1526
408.673	1516
408.896	1529
409.12	1536
409.344	1509
409.567	1487
409.791	1498
410.014	1487
410.238	1483
410.461	1473
410.685	1489
410.908	1454
411.132	1448
411.355	1426
411.578	1453
411.802	1439
412.025	1431
412.249	1450
412.472	1457
412.695	1453
412.919	1400
413.142	1415
413.365	1422
413.589	1403
413.812	1397
414.035	1383
414.258	1416
414.482	1391
414.705	1385
414.928	1417
415.151	1422
415.374	1422
415.597	1380
415.821	1376
416.044	1368
416.267	1370
416.49	1391
416.713	1372
416.936	1386
417.159	1385
417.382	1350
417.605	1341
417.828	1358
418.051	1353
418.274	1354
418.497	1384
418.72	1385
418.943	1391
419.166	1413
419.389	1512
419.611	1515
419.834	1423
420.057	1430
420.28	1396
420.503	1384
420.726	1388
420.948	1377
421.171	1355
421.394	1392
421.617	1357
421.839	1361
422.062	1404
422.285	1338
422.507	1387
422.73	1376
422.953	1382
423.175	1361
423.398	1348
423.621	1401
423.843	1376
424.066	1380
424.288	1422
424.511	1410
424.733	1383
424.956	1361
425.178	1378
425.401	1360
425.623	1429
425.846	1382
426.068	1406
426.291	1406
426.513	1399
426.735	1389
426.958	1377
427.18	1359
427.402	1363
427.625	1355
427.847	1359
428.069	1347
428.292	1364
428.514	1338
428.736	1342
428.958	1353
429.181	1343
429.403	1341
429.625	1386
429.847	1318
430.069	1352
430.292	1343
430.514	1346
430.736	1350
430.958	1335
431.18	1362
431.402	1353
431.624	1323
431.846	1330
432.068	1340
432.29	1349
432.512	1370
432.734	1362
432.956	1376
433.178	1396
433.4	1388
433.622	1390
433.844	1400
434.066	1384
434.287	1399
434.509	1400
434.731	1371
434.953	1402
435.175	1442
435.397	1420
435.618	1378
435.84	1387
436.062	1378
436.284	1358
436.505	1380
436.727	1374
436.949	1363
437.17	1380
437.392	1348
437.614	1367
437.835	1360
438.057	1341
438.278	1307
438.5	1343
438.721	1321
438.943	1332
439.165	1321
439.386	1342
439.608	1368
439.829	1374
440.05	1379
440.272	1373
440.493	1390
440.715	1402
440.936	1376
441.158	1404
441.379	1423
441.6	1403
441.822	1430
442.043	1437
442.264	1415
442.486	1415
442.707	1414
442.928	1421
443.149	1410
443.371	1422
443.592	1448
443.813	1478
444.034	1428
444.255	1462
444.476	1464
444.698	1490
444.919	1501
445.14	1606
445.361	1517
445.582	1499
445.803	1428
446.024	1399
446.245	1414
446.466	1431
446.687	1348
446.908	1372
447.129	1343
447.35	1335
447.571	1317
447.792	1315
448.013	1319
448.234	1305
448.455	1318
448.675	1313
448.896	1318
449.117	1259
449.338	1272
449.559	1253
449.779	1275
450	1273
450.221	1266
450.442	1321
450.662	1284
450.883	1279
451.104	1288
451.324	1259
451.545	1274
451.766	1269
451.986	1237
452.207	1280
452.428	1276
452.648	1243
452.869	1220
453.089	1231
453.31	1245
453.53	1248
453.751	1203
453.971	1214
454.192	1217
454.412	1202
454.633	1238
454.853	1222
455.073	1217
455.294	1219
455.514	1205
455.734	1213
455.955	1229
456.175	1248
456.395	1208
456.616	1157
456.836	1221
457.056	1190
457.276	1176
457.497	1218
457.717	1230
457.937	1207
458.157	1205
458.377	1225
458.598	1294
458.818	1268
459.038	1235
459.258	1273
459.478	1362
459.698	1376
459.918	1406
460.138	1406
460.358	1440
460.578	1433
460.798	1453
461.018	1481
461.238	1480
461.458	1490
461.678	1449
461.898	1494
462.118	1456
462.338	1540
462.558	1560
462.777	1570
462.997	1605
463.217	1626
463.437	1647
463.657	1635
463.876	1582
464.096	1614
464.316	1576
464.536	1570
464.755	1551
464.975	1484
465.195	1468
465.414	1445
465.634	1393
465.854	1358
466.073	1375
466.293	1382
466.512	1341
466.732	1368
466.951	1346
467.171	1342
467.391	1318
467.61	1325
467.829	1303
468.049	1308
468.268	1261
468.488	1325
468.707	1314
468.927	1309
469.146	1276
469.365	1347
469.585	1318
469.804	1334
470.023	1339
470.243	1338
470.462	1321
470.681	1333
470.901	1341
471.12	1334
471.339	1326
471.558	1346
471.777	1347
471.997	1341
472.216	1325
472.435	1281
472.654	1306
472.873	1267
473.092	1298
473.311	1304
473.53	1335
473.749	1288
473.968	1317
474.187	1295
474.406	1309
474.625	1320
474.844	1365
475.063	1342
475.282	1363
475.501	1376
475.72	1350
475.939	1367
476.158	1339
476.377	1408
476.596	1378
476.814	1398
477.033	1388
477.252	1426
477.471	1430
477.69	1442
477.908	1509
478.127	1476
478.346	1489
478.564	1454
478.783	1505
479.002	1516
479.22	1551
479.439	1545
479.658	1530
479.876	1534
480.095	1548
480.313	1576
480.532	1571
480.751	1558
480.969	1552
481.188	1561
481.406	1508
481.624	1554
481.843	1532
482.061	1496
482.28	1556
482.498	1543
482.717	1518
482.935	1538
483.153	1568
483.372	1570
483.59	1566
483.808	1521
484.027	1581
484.245	1559
484.463	1566
484.681	1556
484.9	1571
485.118	1576
485.336	1565
485.554	1550
485.772	1590
485.99	1570
486.209	1567
486.427	1578
486.645	1599
486.863	1585
487.081	1587
487.299	1583
487.517	1588
487.735	1650
487.953	1612
488.171	1612
488.389	1599
488.607	1615
488.825	1613
489.043	1573
489.261	1582
489.479	1602
489.696	1577
489.914	1622
490.132	1620
490.35	1624
490.568	1598
490.786	1595
491.003	1598
491.221	1658
491.439	1686
491.657	1630
491.874	1684
492.092	1701
492.31	1682
492.527	1673
492.745	1677
492.963	1698
493.18	1677
493.398	1691
493.615	1681
493.833	1706
494.05	1721
494.268	1694
494.485	1686
494.703	1707
494.92	1730
495.138	1752
495.355	1781
495.573	1740
495.79	1798
496.008	1780
496.225	1768
496.442	1798
496.66	1842
496.877	1816
497.094	1834
497.312	1849
497.529	1875
497.746	1932
497.963	1957
498.181	1990
498.398	2040
498.615	2124
498.832	2169
499.049	2230
499.267	2327
499.484	2368
499.701	2459
499.918	2573
500.135	2687
500.352	2777
500.569	2754
500.786	2725
501.003	2712
501.22	2651
501.437	2566
501.654	2456
501.871	2345
502.088	2271
502.305	2256
502.522	2185
502.739	2087
502.956	2004
503.172	1956
503.389	1990
503.606	1913
503.823	1886
504.04	1883
504.256	1893
504.473	1860
504.69	1753
504.907	1786
505.123	1765
505.34	1745
505.557	1652
505.773	1678
505.99	1657
506.207	1632
506.423	1641
506.64	1590
506.856	1590
507.073	1561
507.289	1548
507.506	1528
507.722	1525
507.939	1508
508.155	1524
508.372	1477
508.588	1491
508.805	1445
509.021	1490
509.238	1464
509.454	1460
509.67	1428
509.887	1446
510.103	1439
510.319	1384
510.536	1414
510.752	1366
510.968	1396
511.184	1389
511.401	1401
511.617	1383
511.833	1420
512.049	1386
512.265	1392
512.481	1371
512.698	1407
512.914	1397
513.13	1437
513.346	1385
513.562	1404
513.778	1414
513.994	1421
514.21	1434
514.426	1386
514.642	1387
514.858	1436
515.074	1414
515.29	1403
515.506	1444
515.721	1463
515.937	1410
516.153	1422
516.369	1480
516.585	1480
516.801	1503
517.016	1532
517.232	1529
517.448	1539
517.664	1554
517.879	1563
518.095	1569
518.311	1576
518.527	1514
518.742	1536
518.958	1522
519.173	1438
519.389	1455
519.605	1445
519.82	1376
520.036	1410
520.251	1398
520.467	1388
520.682	1366
520.898	1342
521.113	1354
521.329	1347
521.544	1330
521.76	1306
521.975	1310
522.19	1368
522.406	1315
522.621	1308
522.836	1295
523.052	1291
523.267	1262
523.482	1293
523.698	1244
523.913	1246
524.128	1290
524.343	1290
524.559	1251
524.774	1296
524.989	1264
525.204	1291
525.419	1264
525.634	1270
525.849	1240
526.064	1250
526.28	1240
526.495	1248
526.71	1244
526.925	1230
527.14	1213
527.355	1227
527.57	1227
527.785	1238
527.999	1232
528.214	1231
528.429	1219
528.644	1222
528.859	1245
529.074	1222
529.289	1262
529.503	1227
529.718	1236
529.933	1188
530.148	1220
530.363	1237
530.577	1219
530.792	1211
531.007	1173
531.221	1220
531.436	1215
531.651	1175
531.865	1169
532.08	1189
532.295	1203
532.509	1204
532.724	1215
532.938	1184
533.153	1159
533.367	1176
533.582	1214
533.796	1186
534.011	1187
534.225	1162
534.44	1168
534.654	1168
534.868	1176
535.083	1178
535.297	1152
535.511	1165
535.726	1152
535.94	1158
536.154	1144
536.369	1125
536.583	1115
536.797	1102
537.011	1112
537.225	1146
537.44	1118
537.654	1115
537.868	1118
538.082	1111
538.296	1095
538.51	1098
538.724	1120
538.938	1146
539.153	1112
539.367	1111
539.581	1109
539.795	1116
540.009	1081
540.222	1112
540.436	1082
540.65	1074
540.864	1122
541.078	1104
541.292	1119
541.506	1119
541.72	1109
541.934	1115
542.147	1119
542.361	1127
542.575	1103
542.789	1114
543.002	1089
543.216	1052
543.43	1056
543.644	1078
543.857	1058
544.071	1088
544.285	1139
544.498	1100
544.712	1107
544.925	1124
545.139	1112
545.352	1101
545.566	1095
545.779	1103
545.993	1110
546.206	1102
546.42	1101
546.633	1102
546.847	1098
547.06	1115
547.274	1131
547.487	1104
547.7	1125
547.914	1113
548.127	1116
548.34	1099
548.554	1112
548.767	1119
548.98	1069
549.193	1111
549.407	1091
549.62	1080
549.833	1088
550.046	1098
550.259	1095
550.473	1069
550.686	1075
550.899	1101
551.112	1075
551.325	1074
551.538	1056
551.751	1087
551.964	1044
552.177	1059
552.39	1091
552.603	1085
552.816	1125
553.029	1114
553.242	1078
553.455	1107
553.667	1067
553.88	1097
554.093	1067
554.306	1054
554.519	1044
554.732	1052
554.944	1043
555.157	1025
555.37	1000
555.583	1005
555.795	973
556.008	989
556.221	987
556.433	958
556.646	966
556.859	973
557.071	950
557.284	952
557.496	961
557.709	954
557.921	939
558.134	936
558.346	910
558.559	938
558.771	934
558.984	936
559.196	949
559.409	913
559.621	922
559.833	928
560.046	942
560.258	907
560.47	920
560.683	916
560.895	926
561.107	911
561.32	933
561.532	911
561.744	906
561.956	910
562.168	908
562.381	887
562.593	894
562.805	933
563.017	915
563.229	919
563.441	920
563.653	925
563.865	930
564.077	923
564.289	955
564.501	929
564.713	958
564.925	926
565.137	962
565.349	938
565.561	976
565.773	1002
565.985	1003
566.197	1008
566.408	1030
566.62	1046
566.832	1097
567.044	1090
567.255	1079
567.467	1102
567.679	1102
567.891	1123
568.102	1083
568.314	1076
568.526	1049
568.737	1005
568.949	985
569.161	947
569.372	920
569.584	890
569.795	919
570.007	877
570.218	877
570.43	868
570.641	879
570.853	832
571.064	850
571.276	845
571.487	838
571.698	807
571.91	800
572.121	773
572.333	772
572.544	774
572.755	802
572.966	728
573.178	742
573.389	734
573.6	738
573.811	731
574.023	731
574.234	727
574.445	718
574.656	712
574.867	717
575.078	706
575.289	709
575.501	720
575.712	686
575.923	677
576.134	690
576.345	676
576.556	680
576.767	664
576.978	667
577.188	682
577.399	690
577.61	648
577.821	665
578.032	650
578.243	649
578.454	687
578.665	660
578.875	626
579.086	644
579.297	642
579.508	636
579.718	653
579.929	637
580.14	640
580.35	613
580.561	619
580.772	632
580.982	638
581.193	631
581.403	638
581.614	606
581.825	619
582.035	618
582.246	620
582.456	607
582.667	607
582.877	606
583.087	613
583.298	598
583.508	610
583.719	598
583.929	616
584.139	590
584.35	585
584.56	572
584.77	586
584.981	581
585.191	560
585.401	582
585.611	581
585.821	565
586.032	579
586.242	572
586.452	584
586.662	579
586.872	569
587.082	548
587.292	564
587.502	566
587.713	588
587.923	581
588.133	574
588.343	572
588.553	558
588.762	585
588.972	566
589.182	575
589.392	588
589.602	556
589.812	574
590.022	583
590.232	575
590.441	549
590.651	584
590.861	574
591.071	595
591.281	569
591.49	583
591.7	583
591.91	582
592.119	563
592.329	581
592.539	585
592.748	584
592.958	560
593.167	572
593.377	576
593.587	590
593.796	578
594.006	587
594.215	562
594.424	599
594.634	564
594.843	573
595.053	566
595.262	568
595.472	572
595.681	543
595.89	535
596.1	535
596.309	500
596.518	528
596.727	503
596.937	536
597.146	508
597.355	482
597.564	509
597.774	522
597.983	524
598.192	501
598.401	474
598.61	483
598.819	487
599.028	479
599.237	480
599.446	464
599.655	471
599.864	484
600.073	468
600.282	485
600.491	484
600.7	461
600.909	458
601.118	467
601.327	468
601.536	469
601.745	475
601.953	460
602.162	488
602.371	442
602.58	456
602.789	459
602.997	454
603.206	440
603.415	444
603.623	438
603.832	442
604.041	434
604.249	431
604.458	445
604.666	430
604.875	421
605.084	424
605.292	431
605.501	438
605.709	444
605.918	413
606.126	410
606.334	412
606.543	424
606.751	428
606.96	443
607.168	449
607.376	432
607.585	417
607.793	416
608.001	414
608.21	421
608.418	414
608.626	424
608.834	413
609.043	414
609.251	412
609.459	408
609.667	419
609.875	439
610.083	414
610.291	399
610.499	418
610.707	409
610.916	416
611.124	410
611.332	395
611.54	397
611.748	389
611.955	390
612.163	410
612.371	404
612.579	408
612.787	403
612.995	400
613.203	405
613.411	390
613.618	397
613.826	391
614.034	384
614.242	395
614.449	386
614.657	401
614.865	391
615.072	389
615.28	397
615.488	391
615.695	382
615.903	380
616.111	378
616.318	380
616.526	388
616.733	379
616.941	384
617.148	377
617.356	374
617.563	378
617.771	390
617.978	386
618.185	372
618.393	374
618.6	379
618.807	383
619.015	372
619.222	374
619.429	363
619.637	380
619.844	340
620.051	372
620.258	374
620.466	362
620.673	356
620.88	348
621.087	360
621.294	343
621.501	354
621.708	368
621.915	356
622.122	354
622.329	344
622.536	361
622.743	373
622.95	361
623.157	342
623.364	372
623.571	358
623.778	342
623.985	339
624.192	347
624.399	346
624.606	340
624.812	349
625.019	332
625.226	347
625.433	356
625.639	343
625.846	330
626.053	329
626.259	340
626.466	312
626.673	356
626.879	325
627.086	326
627.293	337
627.499	331
627.706	332
627.912	331
628.119	311
628.325	313
628.532	315
628.738	331
628.945	296
629.151	324
629.357	323
629.564	311
629.77	304
629.976	321
630.183	309
630.389	311
630.595	315
630.802	331
631.008	308
631.214	301
631.42	300
631.627	303
631.833	307
632.039	298
632.245	302
632.451	284
632.657	307
632.863	280
633.069	285
633.275	278
633.481	285
633.688	280
633.893	294
634.099	284
634.305	296
634.511	284
634.717	292
634.923	301
635.129	282
635.335	277
635.541	277
635.747	262
635.952	290
636.158	280
636.364	271
636.57	262
636.775	278
636.981	269
637.187	276
637.392	284
637.598	257
637.804	279
638.009	272
638.215	282
638.421	286
638.626	263
638.832	270
639.037	265
639.243	272
639.448	262
639.654	253
639.859	264
640.065	282
640.27	272
640.475	276
640.681	258
640.886	272
641.091	278
641.297	256
641.502	274
641.707	270
641.913	270
642.118	271
642.323	257
642.528	260
642.733	265
642.939	234
643.144	237
643.349	268
643.554	245
643.759	268
643.964	251
644.169	251
644.374	221
644.579	238
644.784	239
644.989	264
645.194	261
645.399	246
645.604	273
645.809	276
646.014	260
646.219	254
646.423	251
646.628	245
646.833	251
647.038	236
647.243	261
647.447	252
647.652	255
647.857	249
648.062	253
648.266	271
648.471	251
648.676	270
648.88	262
649.085	278
649.289	268
649.494	246
649.698	246
649.903	237
650.107	247
650.312	236
650.516	244
650.721	246
650.925	239
651.13	223
651.334	266
651.539	242
651.743	222
651.947	229
652.152	227
652.356	220
652.56	232
652.764	213
652.969	223
653.173	220
653.377	198
653.581	213
653.785	217
653.99	183
654.194	207
654.398	225
654.602	221
654.806	203
655.01	200
655.214	200
655.418	168
655.622	181
655.826	194
656.03	201
656.234	188
656.438	189
656.642	181
656.846	191
657.049	191
657.253	167
657.457	166
657.661	181
657.865	153
658.068	138
658.272	140
658.476	152
658.68	134
658.883	120
659.087	134
659.291	130
659.494	136
659.698	136
659.901	117
660.105	111
660.309	119
660.512	114
660.716	98
660.919	112
661.123	108
661.326	104
661.53	108
661.733	96
661.936	100
662.14	112
662.343	91
662.546	95
662.75	106
662.953	92
663.156	95
663.36	88
663.563	101
663.766	85
663.969	75
664.173	100
664.376	95
664.579	98
664.782	100
664.985	74
665.188	102
665.391	90
665.594	72
665.797	91
666	69
666.203	91
666.406	77
666.609	84
666.812	86
667.015	93
667.218	88
667.421	94
667.624	83
667.827	94
668.03	86
668.232	90
668.435	80
668.638	79
668.841	84
669.043	79
669.246	99
669.449	86
669.651	100
669.854	81
670.057	90
670.259	93
670.462	74
670.665	85
670.867	89
671.07	93
671.272	91
671.475	89
671.677	89
671.88	78
672.082	91
672.284	86
672.487	72
672.689	77
672.892	78
