Data from Ni(NO3)2@0.25M.TitratingCurve.Agarose3%dH2O.NegLispCup.LampEnergy10.LIBS07252019_HRD10591_18-05-45-567.txt Node
Date: Thu Jul 25 18:05:45 EDT 2019
User: cochatt
Spectrometer: HR+D1059
Trigger mode: 1
Integration Time (sec): 1.000000E-1
Scans to average: 1
Electric dark correction enabled: true
Nonlinearity correction enabled: false
Boxcar width: 0
XAxis mode: Wavelengths
Number of Pixels in Spectrum: 2048
>>>>>Begin Spectral Data<<<<<
223.165	-15
223.4	-15
223.635	-15
223.869	-17
224.104	-8
224.338	-10
224.573	-9
224.808	-24
225.042	0
225.277	5
225.511	-3
225.746	-18
225.98	7
226.215	12
226.449	21
226.683	11
226.918	19
227.152	29
227.387	43
227.621	30
227.856	38
228.09	35
228.324	37
228.559	59
228.793	79
229.027	100
229.262	120
229.496	134
229.73	122
229.964	124
230.199	137
230.433	138
230.667	160
230.901	137
231.136	128
231.37	143
231.604	138
231.838	154
232.072	143
232.306	148
232.541	141
232.775	135
233.009	150
233.243	135
233.477	154
233.711	144
233.945	153
234.179	156
234.413	152
234.647	160
234.881	171
235.115	165
235.349	170
235.583	163
235.817	157
236.051	137
236.285	188
236.519	161
236.753	167
236.987	162
237.221	158
237.455	166
237.689	167
237.922	176
238.156	190
238.39	163
238.624	179
238.858	200
239.091	176
239.325	169
239.559	190
239.793	203
240.027	192
240.26	187
240.494	190
240.728	185
240.961	177
241.195	199
241.429	190
241.662	202
241.896	209
242.13	199
242.363	205
242.597	225
242.83	199
243.064	194
243.298	209
243.531	220
243.765	194
243.998	206
244.232	217
244.465	220
244.699	212
244.932	242
245.166	238
245.399	243
245.633	240
245.866	233
246.099	231
246.333	233
246.566	214
246.8	249
247.033	235
247.266	238
247.5	246
247.733	242
247.966	243
248.2	246
248.433	262
248.666	269
248.899	263
249.133	257
249.366	258
249.599	268
249.832	279
250.066	267
250.299	272
250.532	268
250.765	275
250.998	289
251.231	296
251.465	292
251.698	295
251.931	312
252.164	289
252.397	309
252.63	291
252.863	312
253.096	296
253.329	318
253.562	298
253.795	304
254.028	308
254.261	342
254.494	310
254.727	319
254.96	313
255.193	324
255.426	333
255.659	314
255.892	339
256.124	329
256.357	343
256.59	321
256.823	338
257.056	334
257.289	340
257.521	364
257.754	338
257.987	330
258.22	338
258.452	342
258.685	347
258.918	363
259.151	343
259.383	354
259.616	345
259.849	354
260.081	352
260.314	343
260.547	374
260.779	343
261.012	376
261.244	378
261.477	391
261.71	382
261.942	380
262.175	380
262.407	380
262.64	384
262.872	368
263.105	380
263.337	392
263.57	379
263.802	386
264.035	402
264.267	390
264.499	387
264.732	390
264.964	392
265.197	401
265.429	402
265.661	403
265.894	408
266.126	414
266.358	422
266.591	426
266.823	422
267.055	428
267.287	440
267.52	436
267.752	416
267.984	419
268.216	443
268.448	447
268.681	433
268.913	422
269.145	446
269.377	431
269.609	427
269.841	436
270.073	426
270.306	437
270.538	442
270.77	435
271.002	451
271.234	451
271.466	450
271.698	483
271.93	454
272.162	432
272.394	461
272.626	466
272.858	460
273.09	437
273.322	468
273.553	480
273.785	456
274.017	481
274.249	486
274.481	436
274.713	454
274.945	474
275.176	483
275.408	482
275.64	482
275.872	483
276.104	496
276.335	488
276.567	498
276.799	505
277.031	486
277.262	478
277.494	491
277.726	498
277.957	480
278.189	496
278.421	502
278.652	521
278.884	498
279.115	514
279.347	513
279.579	516
279.81	510
280.042	518
280.273	530
280.505	518
280.736	516
280.968	530
281.199	523
281.431	538
281.662	537
281.894	558
282.125	538
282.356	534
282.588	543
282.819	551
283.051	543
283.282	549
283.513	545
283.745	539
283.976	547
284.207	572
284.439	574
284.67	584
284.901	557
285.132	551
285.364	569
285.595	566
285.826	569
286.057	571
286.288	580
286.52	576
286.751	589
286.982	573
287.213	579
287.444	574
287.675	573
287.906	584
288.138	595
288.369	581
288.6	586
288.831	577
289.062	603
289.293	587
289.524	595
289.755	584
289.986	603
290.217	589
290.448	589
290.679	586
290.91	592
291.141	598
291.371	623
291.602	599
291.833	582
292.064	610
292.295	621
292.526	613
292.757	619
292.987	607
293.218	609
293.449	598
293.68	602
293.91	631
294.141	580
294.372	594
294.603	620
294.833	635
295.064	615
295.295	594
295.525	634
295.756	625
295.987	619
296.217	627
296.448	621
296.679	639
296.909	624
297.14	621
297.37	658
297.601	636
297.831	648
298.062	638
298.292	675
298.523	666
298.753	694
298.984	654
299.214	670
299.445	663
299.675	656
299.905	646
300.136	646
300.366	670
300.597	699
300.827	688
301.057	683
301.288	679
301.518	702
301.748	699
301.979	694
302.209	695
302.439	707
302.669	703
302.9	704
303.13	683
303.36	703
303.59	702
303.82	704
304.051	730
304.281	714
304.511	674
304.741	711
304.971	716
305.201	697
305.431	702
305.661	686
305.891	681
306.121	680
306.352	704
306.582	684
306.812	671
307.042	711
307.272	687
307.502	694
307.731	676
307.961	658
308.191	679
308.421	694
308.651	663
308.881	672
309.111	681
309.341	690
309.571	666
309.8	683
310.03	712
310.26	689
310.49	673
310.72	707
310.949	668
311.179	691
311.409	692
311.639	710
311.868	698
312.098	712
312.328	731
312.557	699
312.787	707
313.017	732
313.246	741
313.476	729
313.706	750
313.935	769
314.165	750
314.394	739
314.624	766
314.853	742
315.083	744
315.312	754
315.542	762
315.771	765
316.001	760
316.23	752
316.46	746
316.689	770
316.919	735
317.148	743
317.377	759
317.607	730
317.836	762
318.065	742
318.295	761
318.524	762
318.753	753
318.983	741
319.212	708
319.441	763
319.67	770
319.9	772
320.129	741
320.358	768
320.587	761
320.816	741
321.046	764
321.275	764
321.504	769
321.733	738
321.962	764
322.191	790
322.42	780
322.649	765
322.878	785
323.108	793
323.337	791
323.566	808
323.795	794
324.024	790
324.253	803
324.482	788
324.71	785
324.939	792
325.168	820
325.397	806
325.626	811
325.855	832
326.084	840
326.313	863
326.542	829
326.77	863
326.999	841
327.228	844
327.457	842
327.686	839
327.914	851
328.143	827
328.372	859
328.6	874
328.829	840
329.058	852
329.287	862
329.515	856
329.744	841
329.972	859
330.201	894
330.43	871
330.658	913
330.887	918
331.115	910
331.344	932
331.572	916
331.801	932
332.03	967
332.258	963
332.486	985
332.715	987
332.943	1060
333.172	1056
333.4	1104
333.629	1120
333.857	1144
334.085	1130
334.314	1126
334.542	1134
334.771	1162
334.999	1128
335.227	1152
335.455	1138
335.684	1121
335.912	1097
336.14	1095
336.369	1064
336.597	1037
336.825	1043
337.053	1062
337.281	1058
337.51	1017
337.738	1001
337.966	984
338.194	1009
338.422	994
338.65	986
338.878	952
339.106	960
339.334	975
339.562	946
339.79	933
340.018	949
340.246	934
340.474	919
340.702	922
340.93	952
341.158	937
341.386	918
341.614	959
341.842	958
342.07	954
342.298	942
342.526	923
342.754	909
342.981	947
343.209	980
343.437	1027
343.665	1059
343.893	1114
344.12	1104
344.348	1114
344.576	1082
344.804	1046
345.031	996
345.259	982
345.487	962
345.714	908
345.942	948
346.17	936
346.397	912
346.625	868
346.853	885
347.08	908
347.308	892
347.535	920
347.763	899
347.99	886
348.218	890
348.445	896
348.673	842
348.9	880
349.128	889
349.355	892
349.583	884
349.81	882
350.037	882
350.265	857
350.492	851
350.72	848
350.947	870
351.174	857
351.402	878
351.629	848
351.856	875
352.083	870
352.311	851
352.538	885
352.765	880
352.992	848
353.22	830
353.447	864
353.674	835
353.901	835
354.128	831
354.355	850
354.583	859
354.81	863
355.037	875
355.264	866
355.491	868
355.718	857
355.945	851
356.172	865
356.399	886
356.626	887
356.853	874
357.08	866
357.307	857
357.534	849
357.761	861
357.988	884
358.215	852
358.441	841
358.668	849
358.895	860
359.122	874
359.349	860
359.576	897
359.802	840
360.029	854
360.256	857
360.483	866
360.709	835
360.936	860
361.163	843
361.39	855
361.616	873
361.843	887
362.07	886
362.296	876
362.523	852
362.749	894
362.976	855
363.203	875
363.429	847
363.656	844
363.882	859
364.109	852
364.335	850
364.562	839
364.788	857
365.015	858
365.241	851
365.468	810
365.694	856
365.92	889
366.147	850
366.373	874
366.599	867
366.826	851
367.052	886
367.278	878
367.505	835
367.731	889
367.957	846
368.184	844
368.41	872
368.636	876
368.862	875
369.089	866
369.315	878
369.541	883
369.767	885
369.993	900
370.219	884
370.445	894
370.672	913
370.898	894
371.124	903
371.35	942
371.576	948
371.802	935
372.028	924
372.254	912
372.48	927
372.706	950
372.932	981
373.158	954
373.384	943
373.61	947
373.835	927
374.061	919
374.287	940
374.513	971
374.739	983
374.965	977
375.191	1023
375.416	989
375.642	985
375.868	975
376.094	999
376.319	957
376.545	946
376.771	939
376.997	902
377.222	922
377.448	922
377.674	890
377.899	929
378.125	920
378.35	928
378.576	956
378.802	927
379.027	933
379.253	886
379.478	921
379.704	923
379.929	913
380.155	891
380.38	938
380.606	910
380.831	921
381.057	930
381.282	930
381.507	938
381.733	904
381.958	925
382.184	947
382.409	938
382.634	956
382.86	963
383.085	1008
383.31	979
383.535	1004
383.761	987
383.986	1015
384.211	1038
384.436	1046
384.662	1083
384.887	1088
385.112	1110
385.337	1098
385.562	1101
385.787	1116
386.013	1138
386.238	1141
386.463	1134
386.688	1147
386.913	1136
387.138	1129
387.363	1142
387.588	1105
387.813	1149
388.038	1114
388.263	1119
388.488	1127
388.713	1110
388.938	1109
389.163	1141
389.387	1138
389.612	1086
389.837	1124
390.062	1113
390.287	1103
390.512	1131
390.736	1111
390.961	1158
391.186	1156
391.411	1186
391.636	1205
391.86	1213
392.085	1270
392.31	1284
392.534	1238
392.759	1220
392.984	1249
393.208	1216
393.433	1209
393.658	1244
393.882	1174
394.107	1179
394.331	1224
394.556	1178
394.78	1243
395.005	1223
395.229	1194
395.454	1265
395.678	1300
395.903	1291
396.127	1255
396.352	1238
396.576	1239
396.801	1195
397.025	1238
397.249	1259
397.474	1300
397.698	1315
397.922	1350
398.147	1329
398.371	1382
398.595	1412
398.82	1462
399.044	1567
399.268	1678
399.492	1833
399.717	2005
399.941	2041
400.165	1906
400.389	1793
400.613	1694
400.837	1616
401.062	1559
401.286	1491
401.51	1460
401.734	1457
401.958	1464
402.182	1473
402.406	1464
402.63	1513
402.854	1497
403.078	1538
403.302	1566
403.526	1589
403.75	1577
403.974	1577
404.198	1609
404.422	1566
404.645	1598
404.869	1548
405.093	1608
405.317	1555
405.541	1602
405.765	1618
405.988	1610
406.212	1586
406.436	1580
406.66	1638
406.883	1671
407.107	1746
407.331	1811
407.555	1855
407.778	1863
408.002	1795
408.226	1754
408.449	1764
408.673	1673
408.896	1625
409.12	1636
409.344	1614
409.567	1568
409.791	1625
410.014	1588
410.238	1584
410.461	1589
410.685	1579
410.908	1608
411.132	1531
411.355	1490
411.578	1515
411.802	1458
412.025	1518
412.249	1538
412.472	1541
412.695	1476
412.919	1474
413.142	1444
413.365	1463
413.589	1476
413.812	1454
414.035	1469
414.258	1446
414.482	1470
414.705	1460
414.928	1494
415.151	1478
415.374	1475
415.597	1465
415.821	1444
416.044	1401
416.267	1412
416.49	1414
416.713	1439
416.936	1443
417.159	1420
417.382	1383
417.605	1406
417.828	1392
418.051	1422
418.274	1420
418.497	1413
418.72	1455
418.943	1444
419.166	1540
419.389	1667
419.611	1627
419.834	1552
420.057	1517
420.28	1489
420.503	1408
420.726	1423
420.948	1426
421.171	1428
421.394	1426
421.617	1406
421.839	1463
422.062	1452
422.285	1427
422.507	1451
422.73	1432
422.953	1476
423.175	1483
423.398	1437
423.621	1430
423.843	1478
424.066	1462
424.288	1487
424.511	1469
424.733	1444
424.956	1440
425.178	1440
425.401	1442
425.623	1410
425.846	1379
426.068	1410
426.291	1404
426.513	1360
426.735	1378
426.958	1375
427.18	1342
427.402	1350
427.625	1327
427.847	1295
428.069	1318
428.292	1342
428.514	1319
428.736	1291
428.958	1349
429.181	1280
429.403	1248
429.625	1283
429.847	1275
430.069	1264
430.292	1251
430.514	1229
430.736	1275
430.958	1280
431.18	1262
431.402	1277
431.624	1261
431.846	1293
432.068	1285
432.29	1292
432.512	1300
432.734	1277
432.956	1284
433.178	1296
433.4	1308
433.622	1329
433.844	1326
434.066	1324
434.287	1322
434.509	1375
434.731	1369
434.953	1442
435.175	1441
435.397	1437
435.618	1383
435.84	1334
436.062	1324
436.284	1335
436.505	1307
436.727	1324
436.949	1313
437.17	1289
437.392	1267
437.614	1252
437.835	1226
438.057	1249
438.278	1249
438.5	1225
438.721	1213
438.943	1270
439.165	1260
439.386	1236
439.608	1254
439.829	1260
440.05	1298
440.272	1312
440.493	1316
440.715	1353
440.936	1339
441.158	1362
441.379	1416
441.6	1415
441.822	1414
442.043	1405
442.264	1434
442.486	1410
442.707	1418
442.928	1422
443.149	1397
443.371	1387
443.592	1440
443.813	1436
444.034	1459
444.255	1511
444.476	1560
444.698	1660
444.919	1662
445.14	1754
445.361	1584
445.582	1513
445.803	1430
446.024	1384
446.245	1390
446.466	1339
446.687	1327
446.908	1336
447.129	1286
447.35	1267
447.571	1290
447.792	1226
448.013	1213
448.234	1232
448.455	1175
448.675	1201
448.896	1207
449.117	1162
449.338	1170
449.559	1170
449.779	1136
450	1153
450.221	1188
450.442	1165
450.662	1173
450.883	1152
451.104	1188
451.324	1182
451.545	1171
451.766	1154
451.986	1179
452.207	1166
452.428	1158
452.648	1164
452.869	1131
453.089	1092
453.31	1112
453.53	1118
453.751	1140
453.971	1136
454.192	1110
454.412	1126
454.633	1117
454.853	1095
455.073	1116
455.294	1138
455.514	1113
455.734	1095
455.955	1076
456.175	1108
456.395	1078
456.616	1096
456.836	1118
457.056	1089
457.276	1058
457.497	1107
457.717	1109
457.937	1111
458.157	1142
458.377	1190
458.598	1206
458.818	1230
459.038	1224
459.258	1244
459.478	1286
459.698	1330
459.918	1391
460.138	1398
460.358	1503
460.578	1503
460.798	1537
461.018	1542
461.238	1506
461.458	1548
461.678	1501
461.898	1567
462.118	1572
462.338	1637
462.558	1696
462.777	1772
462.997	1836
463.217	1920
463.437	1961
463.657	1876
463.876	1814
464.096	1780
464.316	1763
464.536	1735
464.755	1702
464.975	1633
465.195	1554
465.414	1464
465.634	1453
465.854	1359
466.073	1366
466.293	1308
466.512	1272
466.732	1283
466.951	1274
467.171	1264
467.391	1282
467.61	1217
467.829	1227
468.049	1228
468.268	1152
468.488	1222
468.707	1202
468.927	1168
469.146	1180
469.365	1205
469.585	1175
469.804	1206
470.023	1272
470.243	1220
470.462	1271
470.681	1274
470.901	1269
471.12	1216
471.339	1232
471.558	1230
471.777	1229
471.997	1209
472.216	1192
472.435	1174
472.654	1176
472.873	1127
473.092	1168
473.311	1165
473.53	1152
473.749	1148
473.968	1154
474.187	1161
474.406	1172
474.625	1154
474.844	1177
475.063	1173
475.282	1173
475.501	1176
475.72	1177
475.939	1180
476.158	1231
476.377	1178
476.596	1236
476.814	1222
477.033	1216
477.252	1253
477.471	1284
477.69	1302
477.908	1322
478.127	1379
478.346	1396
478.564	1394
478.783	1416
479.002	1433
479.22	1482
479.439	1466
479.658	1451
479.876	1449
480.095	1466
480.313	1498
480.532	1506
480.751	1525
480.969	1484
481.188	1429
481.406	1406
481.624	1376
481.843	1384
482.061	1334
482.28	1346
482.498	1301
482.717	1290
482.935	1362
483.153	1296
483.372	1323
483.59	1326
483.808	1331
484.027	1297
484.245	1334
484.463	1330
484.681	1383
484.9	1335
485.118	1348
485.336	1363
485.554	1359
485.772	1371
485.99	1371
486.209	1393
486.427	1362
486.645	1334
486.863	1370
487.081	1405
487.299	1365
487.517	1363
487.735	1359
487.953	1371
488.171	1339
488.389	1351
488.607	1353
488.825	1353
489.043	1346
489.261	1371
489.479	1358
489.696	1367
489.914	1409
490.132	1382
490.35	1378
490.568	1403
490.786	1436
491.003	1410
491.221	1419
491.439	1407
491.657	1392
491.874	1407
492.092	1427
492.31	1422
492.527	1449
492.745	1433
492.963	1445
493.18	1468
493.398	1428
493.615	1421
493.833	1504
494.05	1485
494.268	1488
494.485	1492
494.703	1510
494.92	1474
495.138	1492
495.355	1465
495.573	1494
495.79	1520
496.008	1544
496.225	1570
496.442	1567
496.66	1608
496.877	1591
497.094	1614
497.312	1699
497.529	1742
497.746	1777
497.963	1839
498.181	1949
498.398	2015
498.615	2137
498.832	2249
499.049	2427
499.267	2592
499.484	2850
499.701	3059
499.918	3326
500.135	3638
500.352	3968
500.569	4044
500.786	4026
501.003	3948
501.22	3663
501.437	3335
501.654	3014
501.871	2799
502.088	2565
502.305	2401
502.522	2304
502.739	2171
502.956	2059
503.172	1954
503.389	1906
503.606	1802
503.823	1814
504.04	1754
504.256	1779
504.473	1765
504.69	1766
504.907	1698
505.123	1622
505.34	1560
505.557	1524
505.773	1468
505.99	1481
506.207	1388
506.423	1383
506.64	1377
506.856	1368
507.073	1356
507.289	1329
507.506	1320
507.722	1300
507.939	1305
508.155	1286
508.372	1280
508.588	1242
508.805	1280
509.021	1246
509.238	1234
509.454	1238
509.67	1220
509.887	1175
510.103	1220
510.319	1204
510.536	1210
510.752	1158
510.968	1191
511.184	1166
511.401	1191
511.617	1198
511.833	1168
512.049	1178
512.265	1196
512.481	1150
512.698	1167
512.914	1182
513.13	1176
513.346	1175
513.562	1181
513.778	1189
513.994	1202
514.21	1200
514.426	1193
514.642	1201
514.858	1223
515.074	1203
515.29	1267
515.506	1255
515.721	1313
515.937	1280
516.153	1313
516.369	1352
516.585	1387
516.801	1438
517.016	1458
517.232	1485
517.448	1583
517.664	1599
517.879	1630
518.095	1622
518.311	1575
518.527	1555
518.742	1487
518.958	1431
519.173	1398
519.389	1388
519.605	1332
519.82	1322
520.036	1267
520.251	1238
520.467	1232
520.682	1210
520.898	1179
521.113	1191
521.329	1166
521.544	1154
521.76	1123
521.975	1128
522.19	1146
522.406	1119
522.621	1119
522.836	1134
523.052	1099
523.267	1080
523.482	1126
523.698	1105
523.913	1096
524.128	1056
524.343	1104
524.559	1095
524.774	1079
524.989	1087
525.204	1085
525.419	1063
525.634	1078
525.849	1066
526.064	1082
526.28	1058
526.495	1060
526.71	1056
526.925	1036
527.14	1050
527.355	1044
527.57	1035
527.785	1060
527.999	1051
528.214	1063
528.429	1063
528.644	1082
528.859	1035
529.074	1045
529.289	1043
529.503	1052
529.718	1051
529.933	1031
530.148	1037
530.363	1073
530.577	1044
530.792	1024
531.007	1003
531.221	1022
531.436	1045
531.651	1057
531.865	1057
532.08	1075
532.295	1044
532.509	1063
532.724	1025
532.938	1045
533.153	1024
533.367	1057
533.582	1039
533.796	1048
534.011	1054
534.225	1027
534.44	1037
534.654	1003
534.868	1042
535.083	1010
535.297	1030
535.511	1006
535.726	1044
535.94	992
536.154	972
536.369	986
536.583	959
536.797	986
537.011	967
537.225	946
537.44	1010
537.654	955
537.868	971
538.082	966
538.296	912
538.51	963
538.724	988
538.938	968
539.153	955
539.367	946
539.581	956
539.795	927
540.009	928
540.222	945
540.436	936
540.65	944
540.864	958
541.078	929
541.292	977
541.506	949
541.72	968
541.934	955
542.147	946
542.361	937
542.575	976
542.789	949
543.002	946
543.216	907
543.43	931
543.644	923
543.857	927
544.071	953
544.285	965
544.498	962
544.712	939
544.925	958
545.139	980
545.352	983
545.566	969
545.779	984
545.993	976
546.206	982
546.42	975
546.633	975
546.847	973
547.06	982
547.274	999
547.487	976
547.7	975
547.914	964
548.127	1013
548.34	990
548.554	994
548.767	984
548.98	1002
549.193	978
549.407	997
549.62	997
549.833	991
550.046	954
550.259	951
550.473	981
550.686	982
550.899	960
551.112	972
551.325	979
551.538	977
551.751	947
551.964	955
552.177	985
552.39	990
552.603	1026
552.816	1041
553.029	1044
553.242	1040
553.455	1040
553.667	1058
553.88	1045
554.093	1025
554.306	1044
554.519	970
554.732	986
554.944	952
555.157	931
555.37	894
555.583	917
555.795	923
556.008	867
556.221	892
556.433	891
556.646	870
556.859	850
557.071	834
557.284	854
557.496	818
557.709	837
557.921	830
558.134	835
558.346	811
558.559	808
558.771	839
558.984	812
559.196	803
559.409	815
559.621	820
559.833	812
560.046	802
560.258	789
560.47	798
560.683	798
560.895	811
561.107	802
561.32	792
561.532	798
561.744	801
561.956	816
562.168	780
562.381	819
562.593	820
562.805	774
563.017	812
563.229	802
563.441	835
563.653	819
563.865	828
564.077	858
564.289	855
564.501	864
564.713	876
564.925	900
565.137	910
565.349	939
565.561	976
565.773	1010
565.985	1052
566.197	1083
566.408	1125
566.62	1192
566.832	1286
567.044	1309
567.255	1315
567.467	1361
567.679	1383
567.891	1439
568.102	1417
568.314	1337
568.526	1258
568.737	1203
568.949	1114
569.161	1072
569.372	1019
569.584	941
569.795	892
570.007	869
570.218	858
570.43	856
570.641	841
570.853	820
571.064	800
571.276	825
571.487	786
571.698	793
571.91	765
572.121	745
572.333	713
572.544	714
572.755	703
572.966	705
573.178	680
573.389	665
573.6	673
573.811	662
574.023	670
574.234	668
574.445	670
574.656	666
574.867	661
575.078	656
575.289	650
575.501	642
575.712	632
575.923	606
576.134	629
576.345	624
576.556	618
576.767	610
576.978	622
577.188	612
577.399	580
577.61	603
577.821	587
578.032	571
578.243	590
578.454	598
578.665	581
578.875	563
579.086	580
579.297	599
579.508	554
579.718	564
579.929	576
580.14	574
580.35	570
580.561	558
580.772	584
580.982	563
581.193	540
581.403	554
581.614	531
581.825	558
582.035	538
582.246	569
582.456	553
582.667	546
582.877	543
583.087	540
583.298	538
583.508	516
583.719	532
583.929	516
584.139	543
584.35	522
584.56	536
584.77	538
584.981	534
585.191	540
585.401	524
585.611	515
585.821	521
586.032	542
586.242	510
586.452	518
586.662	534
586.872	519
587.082	514
587.292	499
587.502	524
587.713	518
587.923	512
588.133	503
588.343	540
588.553	530
588.762	497
588.972	514
589.182	538
589.392	546
589.602	516
589.812	500
590.022	549
590.232	526
590.441	515
590.651	526
590.861	526
591.071	543
591.281	563
591.49	551
591.7	547
591.91	545
592.119	564
592.329	591
592.539	583
592.748	618
592.958	582
593.167	601
593.377	618
593.587	658
593.796	616
594.006	644
594.215	638
594.424	612
594.634	587
594.843	591
595.053	592
595.262	583
595.472	568
595.681	553
595.89	545
596.1	533
596.309	512
596.518	518
596.727	498
596.937	481
597.146	496
597.355	460
597.564	465
597.774	480
597.983	460
598.192	466
598.401	459
598.61	453
598.819	460
599.028	475
599.237	443
599.446	431
599.655	434
599.864	440
600.073	427
600.282	432
600.491	421
600.7	431
600.909	417
601.118	434
601.327	410
601.536	412
601.745	423
601.953	418
602.162	434
602.371	412
602.58	406
602.789	403
602.997	388
603.206	399
603.415	418
603.623	398
603.832	402
604.041	425
604.249	390
604.458	394
604.666	407
604.875	407
605.084	396
605.292	400
605.501	400
605.709	402
605.918	413
606.126	395
606.334	394
606.543	404
606.751	400
606.96	366
607.168	389
607.376	376
607.585	388
607.793	371
608.001	378
608.21	382
608.418	379
608.626	402
608.834	409
609.043	384
609.251	394
609.459	378
609.667	384
609.875	370
610.083	404
610.291	370
610.499	359
610.707	363
610.916	382
611.124	360
611.332	359
611.54	361
611.748	377
611.955	365
612.163	367
612.371	377
612.579	393
612.787	366
612.995	360
613.203	374
613.411	368
613.618	359
613.826	365
614.034	368
614.242	363
614.449	371
614.657	350
614.865	344
615.072	354
615.28	364
615.488	354
615.695	359
615.903	361
616.111	378
616.318	353
616.526	361
616.733	350
616.941	359
617.148	382
617.356	354
617.563	373
617.771	360
617.978	336
618.185	350
618.393	367
618.6	360
618.807	357
619.015	348
619.222	338
619.429	332
619.637	349
619.844	361
620.051	332
620.258	341
620.466	322
620.673	345
620.88	324
621.087	330
621.294	328
621.501	344
621.708	318
621.915	334
622.122	342
622.329	328
622.536	339
622.743	345
622.95	334
623.157	319
623.364	332
623.571	312
623.778	320
623.985	339
624.192	341
624.399	294
624.606	315
624.812	329
625.019	337
625.226	290
625.433	324
625.639	312
625.846	313
626.053	284
626.259	302
626.466	303
626.673	294
626.879	286
627.086	316
627.293	309
627.499	308
627.706	306
627.912	307
628.119	293
628.325	296
628.532	300
628.738	300
628.945	293
629.151	293
629.357	287
629.564	279
629.77	299
629.976	288
630.183	278
630.389	278
630.595	271
630.802	295
631.008	282
631.214	270
631.42	284
631.627	299
631.833	279
632.039	282
632.245	259
632.451	274
632.657	274
632.863	279
633.069	264
633.275	279
633.481	276
633.688	287
633.893	262
634.099	262
634.305	269
634.511	270
634.717	269
634.923	266
635.129	263
635.335	256
635.541	248
635.747	246
635.952	244
636.158	268
636.364	248
636.57	263
636.775	260
636.981	262
637.187	255
637.392	238
637.598	260
637.804	261
638.009	256
638.215	254
638.421	258
638.626	246
638.832	232
639.037	252
639.243	249
639.448	252
639.654	243
639.859	243
640.065	246
640.27	240
640.475	228
640.681	246
640.886	252
641.091	225
641.297	234
641.502	244
641.707	239
641.913	219
642.118	251
642.323	244
642.528	235
642.733	230
642.939	230
643.144	233
643.349	238
643.554	249
643.759	233
643.964	229
644.169	228
644.374	232
644.579	229
644.784	230
644.989	223
645.194	227
645.399	235
645.604	228
645.809	240
646.014	229
646.219	234
646.423	229
646.628	233
646.833	233
647.038	239
647.243	234
647.447	235
647.652	249
647.857	227
648.062	250
648.266	242
648.471	235
648.676	245
648.88	233
649.085	233
649.289	211
649.494	233
649.698	224
649.903	211
650.107	208
650.312	220
650.516	208
650.721	221
650.925	213
651.13	198
651.334	205
651.539	205
651.743	210
651.947	202
652.152	210
652.356	180
652.56	192
652.764	171
652.969	181
653.173	185
653.377	184
653.581	172
653.785	183
653.99	180
654.194	152
654.398	169
654.602	174
654.806	176
655.01	169
655.214	154
655.418	160
655.622	167
655.826	161
656.03	150
656.234	174
656.438	168
656.642	161
656.846	147
657.049	137
657.253	150
657.457	144
657.661	146
657.865	149
658.068	141
658.272	131
658.476	126
658.68	118
658.883	124
659.087	130
659.291	122
659.494	130
659.698	114
659.901	114
660.105	114
660.309	103
660.512	96
660.716	107
660.919	110
661.123	115
661.326	97
661.53	96
661.733	86
661.936	101
662.14	98
662.343	96
662.546	82
662.75	84
662.953	86
663.156	77
663.36	89
663.563	98
663.766	74
663.969	95
664.173	81
664.376	82
664.579	76
664.782	82
664.985	94
665.188	76
665.391	85
665.594	74
665.797	83
666	84
666.203	84
666.406	80
666.609	66
666.812	76
667.015	82
667.218	89
667.421	80
667.624	57
667.827	80
668.03	70
668.232	77
668.435	79
668.638	77
668.841	87
669.043	77
669.246	83
669.449	82
669.651	89
669.854	80
670.057	80
670.259	68
670.462	67
670.665	86
670.867	90
671.07	91
671.272	84
671.475	76
671.677	83
671.88	81
672.082	80
672.284	80
672.487	75
672.689	95
672.892	90
