Data from Ni(NO3)2Standard.Agarose3%.GreenCap.LampEnergy5.5.E.O_HRD10591_14-40-56-188.txt Node
Date: Mon Jul 22 14:40:56 EDT 2019
User: cochatt
Spectrometer: HR+D1059
Trigger mode: 1
Integration Time (sec): 1.000000E-1
Scans to average: 1
Electric dark correction enabled: true
Nonlinearity correction enabled: false
Boxcar width: 0
XAxis mode: Wavelengths
Number of Pixels in Spectrum: 2048
>>>>>Begin Spectral Data<<<<<
223.165	-21
223.4	-21
223.635	-21
223.869	-16
224.104	-16
224.338	-24
224.573	-11
224.808	-13
225.042	-8
225.277	2
225.511	6
225.746	9
225.98	2
226.215	-4
226.449	13
226.683	15
226.918	36
227.152	30
227.387	37
227.621	32
227.856	36
228.09	47
228.324	52
228.559	39
228.793	43
229.027	75
229.262	68
229.496	61
229.73	75
229.964	69
230.199	64
230.433	74
230.667	66
230.901	73
231.136	76
231.37	71
231.604	83
231.838	88
232.072	84
232.306	72
232.541	87
232.775	72
233.009	96
233.243	102
233.477	84
233.711	80
233.945	86
234.179	69
234.413	83
234.647	91
234.881	84
235.115	84
235.349	89
235.583	82
235.817	72
236.051	74
236.285	77
236.519	92
236.753	84
236.987	77
237.221	82
237.455	78
237.689	73
237.922	74
238.156	78
238.39	72
238.624	77
238.858	71
239.091	74
239.325	84
239.559	72
239.793	77
240.027	79
240.26	84
240.494	91
240.728	80
240.961	72
241.195	83
241.429	92
241.662	84
241.896	83
242.13	89
242.363	73
242.597	71
242.83	84
243.064	64
243.298	77
243.531	75
243.765	91
243.998	83
244.232	76
244.465	78
244.699	82
244.932	69
245.166	78
245.399	73
245.633	73
245.866	78
246.099	61
246.333	83
246.566	71
246.8	74
247.033	73
247.266	76
247.5	80
247.733	100
247.966	92
248.2	73
248.433	58
248.666	76
248.899	84
249.133	82
249.366	86
249.599	92
249.832	80
250.066	91
250.299	75
250.532	77
250.765	81
250.998	80
251.231	77
251.465	101
251.698	82
251.931	65
252.164	89
252.397	85
252.63	68
252.863	74
253.096	91
253.329	71
253.562	78
253.795	90
254.028	86
254.261	82
254.494	89
254.727	79
254.96	77
255.193	73
255.426	89
255.659	72
255.892	78
256.124	79
256.357	74
256.59	86
256.823	55
257.056	90
257.289	76
257.521	76
257.754	76
257.987	78
258.22	77
258.452	85
258.685	81
258.918	88
259.151	83
259.383	83
259.616	86
259.849	80
260.081	68
260.314	81
260.547	86
260.779	97
261.012	85
261.244	99
261.477	86
261.71	81
261.942	87
262.175	73
262.407	71
262.64	74
262.872	81
263.105	86
263.337	83
263.57	80
263.802	100
264.035	75
264.267	81
264.499	91
264.732	83
264.964	75
265.197	69
265.429	86
265.661	80
265.894	75
266.126	79
266.358	77
266.591	81
266.823	95
267.055	78
267.287	92
267.52	74
267.752	86
267.984	89
268.216	89
268.448	84
268.681	72
268.913	69
269.145	72
269.377	80
269.609	74
269.841	98
270.073	82
270.306	90
270.538	85
270.77	80
271.002	71
271.234	79
271.466	81
271.698	91
271.93	67
272.162	86
272.394	94
272.626	96
272.858	86
273.09	86
273.322	85
273.553	78
273.785	83
274.017	86
274.249	87
274.481	77
274.713	90
274.945	87
275.176	83
275.408	68
275.64	79
275.872	73
276.104	93
276.335	85
276.567	78
276.799	89
277.031	68
277.262	86
277.494	71
277.726	75
277.957	73
278.189	90
278.421	76
278.652	89
278.884	82
279.115	76
279.347	89
279.579	90
279.81	84
280.042	83
280.273	82
280.505	77
280.736	87
280.968	89
281.199	69
281.431	102
281.662	101
281.894	70
282.125	84
282.356	80
282.588	90
282.819	75
283.051	83
283.282	70
283.513	74
283.745	83
283.976	96
284.207	87
284.439	88
284.67	78
284.901	88
285.132	84
285.364	86
285.595	94
285.826	84
286.057	91
286.288	92
286.52	83
286.751	75
286.982	92
287.213	95
287.444	77
287.675	82
287.906	84
288.138	92
288.369	82
288.6	82
288.831	71
289.062	69
289.293	87
289.524	81
289.755	100
289.986	87
290.217	81
290.448	82
290.679	96
290.91	89
291.141	99
291.371	89
291.602	78
291.833	88
292.064	91
292.295	91
292.526	86
292.757	84
292.987	85
293.218	92
293.449	91
293.68	70
293.91	81
294.141	90
294.372	75
294.603	86
294.833	85
295.064	85
295.295	83
295.525	86
295.756	83
295.987	87
296.217	88
296.448	88
296.679	85
296.909	86
297.14	88
297.37	89
297.601	86
297.831	92
298.062	94
298.292	90
298.523	83
298.753	88
298.984	75
299.214	73
299.445	86
299.675	85
299.905	92
300.136	76
300.366	82
300.597	85
300.827	91
301.057	86
301.288	77
301.518	78
301.748	69
301.979	87
302.209	96
302.439	88
302.669	84
302.9	78
303.13	77
303.36	89
303.59	80
303.82	91
304.051	85
304.281	95
304.511	81
304.741	94
304.971	85
305.201	84
305.431	91
305.661	79
305.891	80
306.121	86
306.352	85
306.582	76
306.812	88
307.042	96
307.272	87
307.502	76
307.731	80
307.961	84
308.191	84
308.421	97
308.651	84
308.881	93
309.111	78
309.341	77
309.571	67
309.8	85
310.03	87
310.26	78
310.49	90
310.72	78
310.949	98
311.179	85
311.409	94
311.639	84
311.868	79
312.098	74
312.328	79
312.557	86
312.787	74
313.017	90
313.246	68
313.476	82
313.706	93
313.935	86
314.165	74
314.394	88
314.624	89
314.853	95
315.083	86
315.312	85
315.542	85
315.771	97
316.001	70
316.23	97
316.46	88
316.689	87
316.919	68
317.148	92
317.377	89
317.607	79
317.836	78
318.065	80
318.295	80
318.524	87
318.753	97
318.983	86
319.212	91
319.441	81
319.67	93
319.9	86
320.129	79
320.358	90
320.587	86
320.816	84
321.046	75
321.275	77
321.504	87
321.733	89
321.962	83
322.191	93
322.42	86
322.649	84
322.878	71
323.108	66
323.337	94
323.566	88
323.795	87
324.024	85
324.253	85
324.482	96
324.71	93
324.939	80
325.168	88
325.397	88
325.626	81
325.855	93
326.084	78
326.313	91
326.542	89
326.77	77
326.999	95
327.228	94
327.457	82
327.686	86
327.914	90
328.143	89
328.372	84
328.6	99
328.829	83
329.058	98
329.287	87
329.515	79
329.744	92
329.972	75
330.201	78
330.43	72
330.658	76
330.887	85
331.115	80
331.344	89
331.572	84
331.801	70
332.03	83
332.258	88
332.486	85
332.715	77
332.943	80
333.172	86
333.4	72
333.629	94
333.857	90
334.085	84
334.314	93
334.542	93
334.771	86
334.999	100
335.227	94
335.455	91
335.684	88
335.912	77
336.14	85
336.369	89
336.597	79
336.825	88
337.053	91
337.281	83
337.51	89
337.738	94
337.966	94
338.194	77
338.422	75
338.65	77
338.878	84
339.106	81
339.334	84
339.562	84
339.79	83
340.018	78
340.246	78
340.474	99
340.702	88
340.93	75
341.158	84
341.386	95
341.614	89
341.842	89
342.07	86
342.298	90
342.526	90
342.754	88
342.981	87
343.209	79
343.437	100
343.665	85
343.893	84
344.12	83
344.348	88
344.576	92
344.804	94
345.031	89
345.259	88
345.487	95
345.714	85
345.942	85
346.17	93
346.397	86
346.625	89
346.853	84
347.08	81
347.308	78
347.535	100
347.763	92
347.99	96
348.218	97
348.445	60
348.673	91
348.9	84
349.128	96
349.355	89
349.583	85
349.81	75
350.037	94
350.265	88
350.492	88
350.72	84
350.947	83
351.174	91
351.402	68
351.629	90
351.856	99
352.083	98
352.311	90
352.538	82
352.765	91
352.992	101
353.22	98
353.447	88
353.674	89
353.901	92
354.128	83
354.355	85
354.583	76
354.81	73
355.037	93
355.264	89
355.491	88
355.718	85
355.945	85
356.172	76
356.399	81
356.626	72
356.853	84
357.08	96
357.307	90
357.534	97
357.761	75
357.988	91
358.215	74
358.441	72
358.668	78
358.895	85
359.122	82
359.349	78
359.576	82
359.802	89
360.029	87
360.256	86
360.483	100
360.709	89
360.936	83
361.163	87
361.39	77
361.616	81
361.843	89
362.07	76
362.296	75
362.523	90
362.749	73
362.976	83
363.203	103
363.429	86
363.656	88
363.882	96
364.109	85
364.335	95
364.562	75
364.788	87
365.015	88
365.241	80
365.468	83
365.694	82
365.92	88
366.147	78
366.373	88
366.599	75
366.826	76
367.052	88
367.278	93
367.505	82
367.731	102
367.957	83
368.184	83
368.41	85
368.636	88
368.862	96
369.089	86
369.315	88
369.541	94
369.767	92
369.993	97
370.219	88
370.445	84
370.672	89
370.898	87
371.124	91
371.35	89
371.576	85
371.802	97
372.028	91
372.254	89
372.48	89
372.706	85
372.932	82
373.158	78
373.384	101
373.61	91
373.835	78
374.061	80
374.287	84
374.513	74
374.739	84
374.965	89
375.191	94
375.416	89
375.642	88
375.868	84
376.094	96
376.319	90
376.545	89
376.771	78
376.997	82
377.222	68
377.448	98
377.674	92
377.899	77
378.125	77
378.35	87
378.576	72
378.802	82
379.027	81
379.253	77
379.478	93
379.704	84
379.929	72
380.155	94
380.38	74
380.606	92
380.831	84
381.057	90
381.282	98
381.507	93
381.733	101
381.958	93
382.184	88
382.409	73
382.634	81
382.86	86
383.085	92
383.31	83
383.535	82
383.761	77
383.986	72
384.211	73
384.436	92
384.662	84
384.887	94
385.112	90
385.337	77
385.562	86
385.787	86
386.013	98
386.238	98
386.463	77
386.688	81
386.913	77
387.138	94
387.363	90
387.588	85
387.813	88
388.038	88
388.263	82
388.488	83
388.713	84
388.938	88
389.163	78
389.387	80
389.612	81
389.837	83
390.062	81
390.287	81
390.512	87
390.736	83
390.961	84
391.186	90
391.411	88
391.636	91
391.86	82
392.085	82
392.31	90
392.534	94
392.759	84
392.984	80
393.208	79
393.433	85
393.658	82
393.882	76
394.107	94
394.331	80
394.556	76
394.78	82
395.005	87
395.229	98
395.454	83
395.678	84
395.903	75
396.127	83
396.352	83
396.576	90
396.801	82
397.025	71
397.249	72
397.474	93
397.698	83
397.922	89
398.147	91
398.371	89
398.595	85
398.82	82
399.044	96
399.268	85
399.492	80
399.717	102
399.941	95
400.165	82
400.389	86
400.613	65
400.837	71
401.062	97
401.286	78
401.51	101
401.734	78
401.958	107
402.182	90
402.406	92
402.63	100
402.854	91
403.078	79
403.302	92
403.526	90
403.75	73
403.974	94
404.198	88
404.422	81
404.645	74
404.869	78
405.093	78
405.317	89
405.541	81
405.765	88
405.988	77
406.212	80
406.436	81
406.66	89
406.883	90
407.107	94
407.331	82
407.555	82
407.778	103
408.002	86
408.226	81
408.449	97
408.673	93
408.896	77
409.12	90
409.344	88
409.567	84
409.791	87
410.014	69
410.238	89
410.461	88
410.685	96
410.908	85
411.132	86
411.355	87
411.578	84
411.802	101
412.025	80
412.249	88
412.472	82
412.695	82
412.919	85
413.142	93
413.365	78
413.589	83
413.812	90
414.035	90
414.258	82
414.482	85
414.705	77
414.928	104
415.151	89
415.374	68
415.597	88
415.821	82
416.044	91
416.267	88
416.49	80
416.713	89
416.936	80
417.159	90
417.382	82
417.605	79
417.828	83
418.051	84
418.274	78
418.497	99
418.72	80
418.943	76
419.166	84
419.389	82
419.611	79
419.834	84
420.057	82
420.28	79
420.503	71
420.726	73
420.948	91
421.171	85
421.394	89
421.617	79
421.839	95
422.062	89
422.285	89
422.507	85
422.73	85
422.953	99
423.175	97
423.398	88
423.621	102
423.843	85
424.066	76
424.288	86
424.511	83
424.733	85
424.956	86
425.178	92
425.401	84
425.623	96
425.846	80
426.068	90
426.291	83
426.513	73
426.735	89
426.958	85
427.18	87
427.402	89
427.625	85
427.847	95
428.069	89
428.292	96
428.514	90
428.736	93
428.958	91
429.181	81
429.403	87
429.625	96
429.847	78
430.069	89
430.292	74
430.514	85
430.736	85
430.958	85
431.18	74
431.402	80
431.624	91
431.846	91
432.068	91
432.29	89
432.512	91
432.734	87
432.956	79
433.178	80
433.4	85
433.622	90
433.844	100
434.066	78
434.287	97
434.509	97
434.731	80
434.953	92
435.175	86
435.397	82
435.618	78
435.84	88
436.062	84
436.284	83
436.505	85
436.727	78
436.949	94
437.17	83
437.392	81
437.614	89
437.835	85
438.057	76
438.278	79
438.5	82
438.721	72
438.943	88
439.165	84
439.386	92
439.608	97
439.829	94
440.05	96
440.272	82
440.493	75
440.715	105
440.936	90
441.158	100
441.379	77
441.6	88
441.822	84
442.043	84
442.264	83
442.486	78
442.707	93
442.928	100
443.149	88
443.371	90
443.592	96
443.813	80
444.034	90
444.255	90
444.476	77
444.698	94
444.919	94
445.14	226
445.361	146
445.582	80
445.803	84
446.024	78
446.245	83
446.466	68
446.687	94
446.908	92
447.129	83
447.35	97
447.571	85
447.792	74
448.013	75
448.234	89
448.455	88
448.675	95
448.896	88
449.117	95
449.338	76
449.559	87
449.779	80
450	82
450.221	86
450.442	94
450.662	78
450.883	86
451.104	89
451.324	70
451.545	77
451.766	92
451.986	92
452.207	97
452.428	86
452.648	76
452.869	83
453.089	80
453.31	96
453.53	90
453.751	88
453.971	80
454.192	94
454.412	96
454.633	84
454.853	82
455.073	78
455.294	80
455.514	91
455.734	87
455.955	93
456.175	83
456.395	94
456.616	80
456.836	99
457.056	88
457.276	90
457.497	89
457.717	68
457.937	81
458.157	77
458.377	93
458.598	89
458.818	74
459.038	73
459.258	85
459.478	90
459.698	101
459.918	98
460.138	86
460.358	85
460.578	97
460.798	88
461.018	84
461.238	98
461.458	73
461.678	70
461.898	90
462.118	89
462.338	83
462.558	89
462.777	90
462.997	103
463.217	86
463.437	73
463.657	75
463.876	86
464.096	88
464.316	93
464.536	88
464.755	99
464.975	97
465.195	94
465.414	99
465.634	82
465.854	90
466.073	109
466.293	86
466.512	92
466.732	95
466.951	82
467.171	90
467.391	72
467.61	88
467.829	73
468.049	85
468.268	94
468.488	91
468.707	97
468.927	87
469.146	80
469.365	93
469.585	98
469.804	87
470.023	92
470.243	98
470.462	92
470.681	80
470.901	75
471.12	84
471.339	92
471.558	84
471.777	95
471.997	102
472.216	93
472.435	105
472.654	101
472.873	91
473.092	91
473.311	94
473.53	93
473.749	83
473.968	100
474.187	87
474.406	76
474.625	93
474.844	95
475.063	98
475.282	91
475.501	81
475.72	80
475.939	89
476.158	92
476.377	89
476.596	91
476.814	80
477.033	85
477.252	94
477.471	98
477.69	81
477.908	89
478.127	91
478.346	96
478.564	84
478.783	99
479.002	103
479.22	94
479.439	86
479.658	100
479.876	86
480.095	87
480.313	92
480.532	92
480.751	100
480.969	108
481.188	108
481.406	98
481.624	92
481.843	69
482.061	91
482.28	94
482.498	97
482.717	107
482.935	86
483.153	82
483.372	85
483.59	90
483.808	98
484.027	107
484.245	101
484.463	87
484.681	91
484.9	88
485.118	84
485.336	89
485.554	92
485.772	103
485.99	92
486.209	84
486.427	90
486.645	92
486.863	108
487.081	89
487.299	89
487.517	116
487.735	92
487.953	78
488.171	103
488.389	87
488.607	100
488.825	98
489.043	91
489.261	99
489.479	89
489.696	89
489.914	82
490.132	103
490.35	93
490.568	94
490.786	90
491.003	98
491.221	83
491.439	89
491.657	90
491.874	86
492.092	97
492.31	93
492.527	80
492.745	98
492.963	80
493.18	104
493.398	108
493.615	101
493.833	89
494.05	91
494.268	93
494.485	98
494.703	96
494.92	94
495.138	88
495.355	88
495.573	101
495.79	92
496.008	98
496.225	104
496.442	85
496.66	104
496.877	81
497.094	89
497.312	95
497.529	100
497.746	102
497.963	97
498.181	86
498.398	106
498.615	98
498.832	99
499.049	90
499.267	91
499.484	94
499.701	124
499.918	106
500.135	123
500.352	117
500.569	120
500.786	132
501.003	108
501.22	118
501.437	99
501.654	95
501.871	109
502.088	114
502.305	107
502.522	114
502.739	114
502.956	85
503.172	77
503.389	89
503.606	93
503.823	94
504.04	97
504.256	91
504.473	105
504.69	94
504.907	107
505.123	99
505.34	100
505.557	98
505.773	116
505.99	102
506.207	79
506.423	89
506.64	94
506.856	83
507.073	101
507.289	90
507.506	101
507.722	94
507.939	98
508.155	105
508.372	84
508.588	90
508.805	94
509.021	88
509.238	103
509.454	84
509.67	87
509.887	90
510.103	93
510.319	103
510.536	82
510.752	91
510.968	88
511.184	93
511.401	89
511.617	92
511.833	93
512.049	85
512.265	91
512.481	90
512.698	91
512.914	98
513.13	90
513.346	98
513.562	91
513.778	78
513.994	88
514.21	104
514.426	84
514.642	88
514.858	94
515.074	101
515.29	96
515.506	93
515.721	84
515.937	83
516.153	102
516.369	96
516.585	90
516.801	88
517.016	85
517.232	85
517.448	107
517.664	76
517.879	96
518.095	96
518.311	96
518.527	89
518.742	91
518.958	83
519.173	93
519.389	94
519.605	92
519.82	87
520.036	88
520.251	88
520.467	86
520.682	87
520.898	83
521.113	83
521.329	102
521.544	85
521.76	98
521.975	85
522.19	90
522.406	92
522.621	83
522.836	98
523.052	85
523.267	90
523.482	90
523.698	80
523.913	82
524.128	90
524.343	87
524.559	97
524.774	100
524.989	93
525.204	104
525.419	94
525.634	92
525.849	88
526.064	96
526.28	85
526.495	87
526.71	93
526.925	69
527.14	79
527.355	91
527.57	93
527.785	99
527.999	85
528.214	100
528.429	89
528.644	79
528.859	83
529.074	88
529.289	105
529.503	92
529.718	92
529.933	85
530.148	84
530.363	81
530.577	87
530.792	99
531.007	94
531.221	78
531.436	87
531.651	93
531.865	80
532.08	101
532.295	82
532.509	89
532.724	92
532.938	89
533.153	88
533.367	87
533.582	94
533.796	89
534.011	94
534.225	87
534.44	101
534.654	82
534.868	94
535.083	95
535.297	94
535.511	99
535.726	100
535.94	92
536.154	88
536.369	91
536.583	117
536.797	87
537.011	85
537.225	99
537.44	95
537.654	83
537.868	82
538.082	84
538.296	103
538.51	76
538.724	89
538.938	92
539.153	89
539.367	89
539.581	84
539.795	92
540.009	103
540.222	89
540.436	86
540.65	90
540.864	77
541.078	99
541.292	107
541.506	98
541.72	96
541.934	104
542.147	93
542.361	87
542.575	87
542.789	94
543.002	83
543.216	93
543.43	102
543.644	92
543.857	91
544.071	102
544.285	99
544.498	97
544.712	97
544.925	79
545.139	100
545.352	78
545.566	77
545.779	90
545.993	90
546.206	81
546.42	80
546.633	88
546.847	92
547.06	98
547.274	97
547.487	87
547.7	91
547.914	87
548.127	98
548.34	83
548.554	85
548.767	100
548.98	99
549.193	101
549.407	86
549.62	93
549.833	86
550.046	100
550.259	95
550.473	98
550.686	82
550.899	98
551.112	93
551.325	91
551.538	100
551.751	97
551.964	93
552.177	78
552.39	101
552.603	85
552.816	88
553.029	80
553.242	93
553.455	75
553.667	96
553.88	98
554.093	93
554.306	102
554.519	84
554.732	86
554.944	93
555.157	86
555.37	92
555.583	82
555.795	100
556.008	79
556.221	97
556.433	96
556.646	91
556.859	100
557.071	89
557.284	85
557.496	84
557.709	85
557.921	85
558.134	85
558.346	77
558.559	103
558.771	101
558.984	87
559.196	91
559.409	75
559.621	85
559.833	83
560.046	92
560.258	93
560.47	78
560.683	87
560.895	74
561.107	85
561.32	85
561.532	105
561.744	89
561.956	73
562.168	89
562.381	84
562.593	94
562.805	81
563.017	96
563.229	94
563.441	81
563.653	82
563.865	82
564.077	73
564.289	79
564.501	95
564.713	92
564.925	99
565.137	101
565.349	89
565.561	86
565.773	86
565.985	96
566.197	94
566.408	94
566.62	97
566.832	88
567.044	77
567.255	118
567.467	92
567.679	87
567.891	93
568.102	96
568.314	92
568.526	102
568.737	100
568.949	79
569.161	92
569.372	84
569.584	94
569.795	104
570.007	76
570.218	74
570.43	100
570.641	78
570.853	77
571.064	99
571.276	81
571.487	107
571.698	85
571.91	83
572.121	82
572.333	102
572.544	86
572.755	73
572.966	104
573.178	93
573.389	87
573.6	94
573.811	88
574.023	91
574.234	86
574.445	95
574.656	85
574.867	86
575.078	92
575.289	81
575.501	87
575.712	84
575.923	88
576.134	77
576.345	79
576.556	93
576.767	92
576.978	89
577.188	81
577.399	80
577.61	84
577.821	72
578.032	84
578.243	82
578.454	90
578.665	76
578.875	83
579.086	91
579.297	90
579.508	75
579.718	76
579.929	93
580.14	88
580.35	88
580.561	81
580.772	89
580.982	80
581.193	79
581.403	74
581.614	74
581.825	92
582.035	82
582.246	84
582.456	79
582.667	78
582.877	91
583.087	88
583.298	73
583.508	96
583.719	97
583.929	86
584.139	78
584.35	95
584.56	82
584.77	84
584.981	86
585.191	91
585.401	92
585.611	83
585.821	96
586.032	78
586.242	93
586.452	91
586.662	77
586.872	89
587.082	79
587.292	95
587.502	102
587.713	76
587.923	70
588.133	87
588.343	101
588.553	86
588.762	78
588.972	79
589.182	82
589.392	89
589.602	86
589.812	78
590.022	94
590.232	83
590.441	92
590.651	89
590.861	92
591.071	76
591.281	84
591.49	94
591.7	78
591.91	67
592.119	72
592.329	85
592.539	83
592.748	94
592.958	84
593.167	71
593.377	80
593.587	70
593.796	77
594.006	88
594.215	88
594.424	75
594.634	83
594.843	88
595.053	102
595.262	90
595.472	90
595.681	82
595.89	88
596.1	69
596.309	79
596.518	79
596.727	84
596.937	81
597.146	84
597.355	72
597.564	95
597.774	86
597.983	91
598.192	76
598.401	75
598.61	92
598.819	85
599.028	84
599.237	75
599.446	86
599.655	75
599.864	91
600.073	83
600.282	101
600.491	78
600.7	80
600.909	72
601.118	83
601.327	72
601.536	74
601.745	86
601.953	80
602.162	90
602.371	90
602.58	84
602.789	78
602.997	82
603.206	81
603.415	84
603.623	79
603.832	95
604.041	82
604.249	84
604.458	86
604.666	87
604.875	82
605.084	76
605.292	86
605.501	77
605.709	81
605.918	85
606.126	85
606.334	82
606.543	92
606.751	77
606.96	86
607.168	84
607.376	89
607.585	85
607.793	79
608.001	96
608.21	79
608.418	87
608.626	78
608.834	75
609.043	76
609.251	74
609.459	88
609.667	79
609.875	77
610.083	76
610.291	62
610.499	89
610.707	70
610.916	89
611.124	84
611.332	90
611.54	71
611.748	81
611.955	73
612.163	77
612.371	83
612.579	87
612.787	94
612.995	77
613.203	74
613.411	81
613.618	73
613.826	81
614.034	103
614.242	89
614.449	91
614.657	89
614.865	80
615.072	86
615.28	96
615.488	74
615.695	87
615.903	90
616.111	83
616.318	93
616.526	81
616.733	82
616.941	80
617.148	87
617.356	93
617.563	97
617.771	86
617.978	99
618.185	75
618.393	86
618.6	82
618.807	78
619.015	84
619.222	89
619.429	85
619.637	82
619.844	87
620.051	70
620.258	78
620.466	81
620.673	84
620.88	85
621.087	71
621.294	82
621.501	86
621.708	81
621.915	70
622.122	95
622.329	90
622.536	78
622.743	84
622.95	87
623.157	77
623.364	80
623.571	81
623.778	88
623.985	94
624.192	74
624.399	82
624.606	92
624.812	81
625.019	78
625.226	87
625.433	92
625.639	79
625.846	75
626.053	78
626.259	86
626.466	88
626.673	88
626.879	86
627.086	72
627.293	89
627.499	90
627.706	92
627.912	84
628.119	73
628.325	67
628.532	78
628.738	88
628.945	83
629.151	81
629.357	92
629.564	75
629.77	73
629.976	83
630.183	84
630.389	81
630.595	78
630.802	75
631.008	76
631.214	85
631.42	105
631.627	100
631.833	85
632.039	79
632.245	81
632.451	83
632.657	82
632.863	83
633.069	84
633.275	82
633.481	83
633.688	81
633.893	78
634.099	79
634.305	73
634.511	93
634.717	88
634.923	89
635.129	88
635.335	91
635.541	80
635.747	77
635.952	81
636.158	85
636.364	92
636.57	74
636.775	78
636.981	72
637.187	82
637.392	77
637.598	76
637.804	71
638.009	81
638.215	84
638.421	89
638.626	83
638.832	78
639.037	81
639.243	84
639.448	80
639.654	85
639.859	77
640.065	79
640.27	88
640.475	96
640.681	76
640.886	77
641.091	83
641.297	88
641.502	84
641.707	79
641.913	72
642.118	79
642.323	72
642.528	83
642.733	82
642.939	86
643.144	77
643.349	89
643.554	84
643.759	77
643.964	82
644.169	98
644.374	89
644.579	71
644.784	83
644.989	86
645.194	73
645.399	82
645.604	62
645.809	76
646.014	79
646.219	106
646.423	78
646.628	83
646.833	93
647.038	77
647.243	80
647.447	84
647.652	82
647.857	71
648.062	73
648.266	87
648.471	83
648.676	77
648.88	86
649.085	94
649.289	79
649.494	87
649.698	110
649.903	88
650.107	85
650.312	80
650.516	92
650.721	88
650.925	73
651.13	82
651.334	68
651.539	90
651.743	74
651.947	95
652.152	85
652.356	81
652.56	78
652.764	78
652.969	84
653.173	94
653.377	86
653.581	86
653.785	79
653.99	76
654.194	74
654.398	85
654.602	84
654.806	78
655.01	84
655.214	84
655.418	82
655.622	77
655.826	87
656.03	78
656.234	79
656.438	88
656.642	83
656.846	88
657.049	90
657.253	83
657.457	77
657.661	81
657.865	79
658.068	70
658.272	76
658.476	89
658.68	97
658.883	98
659.087	86
659.291	71
659.494	85
659.698	80
659.901	95
660.105	82
660.309	88
660.512	78
660.716	81
660.919	64
661.123	88
661.326	72
661.53	78
661.733	80
661.936	84
662.14	87
662.343	94
662.546	76
662.75	78
662.953	89
663.156	97
663.36	73
663.563	81
663.766	81
663.969	74
664.173	79
664.376	83
664.579	93
664.782	91
664.985	93
665.188	78
665.391	73
665.594	88
665.797	82
666	91
666.203	82
666.406	90
666.609	80
666.812	75
667.015	89
667.218	94
667.421	90
667.624	75
667.827	89
668.03	85
668.232	95
668.435	88
668.638	91
668.841	68
669.043	86
669.246	84
669.449	81
669.651	86
669.854	84
670.057	70
670.259	84
670.462	96
670.665	64
670.867	82
671.07	76
671.272	93
671.475	62
671.677	69
671.88	80
672.082	78
672.284	101
672.487	92
672.689	93
672.892	77
