Data from Ni(NO3)2Standard.Agarose3%.GreenCap.LampEnergy5.5.E.O_HRD10591_14-39-45-188.txt Node
Date: Mon Jul 22 14:39:45 EDT 2019
User: cochatt
Spectrometer: HR+D1059
Trigger mode: 1
Integration Time (sec): 1.000000E-1
Scans to average: 1
Electric dark correction enabled: true
Nonlinearity correction enabled: false
Boxcar width: 0
XAxis mode: Wavelengths
Number of Pixels in Spectrum: 2048
>>>>>Begin Spectral Data<<<<<
223.165	-5
223.4	-5
223.635	-5
223.869	-14
224.104	-39
224.338	-18
224.573	-16
224.808	-16
225.042	-17
225.277	-3
225.511	1
225.746	7
225.98	13
226.215	19
226.449	13
226.683	9
226.918	23
227.152	43
227.387	47
227.621	48
227.856	60
228.09	55
228.324	49
228.559	70
228.793	55
229.027	57
229.262	68
229.496	73
229.73	71
229.964	70
230.199	82
230.433	81
230.667	76
230.901	89
231.136	82
231.37	85
231.604	86
231.838	85
232.072	87
232.306	89
232.541	78
232.775	101
233.009	79
233.243	70
233.477	91
233.711	94
233.945	91
234.179	74
234.413	69
234.647	88
234.881	89
235.115	83
235.349	84
235.583	73
235.817	72
236.051	86
236.285	81
236.519	88
236.753	91
236.987	85
237.221	82
237.455	86
237.689	78
237.922	87
238.156	68
238.39	71
238.624	86
238.858	91
239.091	87
239.325	83
239.559	73
239.793	73
240.027	83
240.26	69
240.494	72
240.728	69
240.961	93
241.195	78
241.429	69
241.662	79
241.896	87
242.13	78
242.363	79
242.597	86
242.83	70
243.064	55
243.298	85
243.531	76
243.765	85
243.998	71
244.232	94
244.465	79
244.699	75
244.932	83
245.166	81
245.399	63
245.633	74
245.866	78
246.099	83
246.333	84
246.566	70
246.8	72
247.033	79
247.266	76
247.5	74
247.733	68
247.966	72
248.2	80
248.433	88
248.666	66
248.899	86
249.133	84
249.366	82
249.599	78
249.832	85
250.066	82
250.299	85
250.532	73
250.765	92
250.998	75
251.231	79
251.465	73
251.698	70
251.931	92
252.164	95
252.397	93
252.63	82
252.863	87
253.096	80
253.329	81
253.562	62
253.795	81
254.028	89
254.261	73
254.494	68
254.727	81
254.96	87
255.193	77
255.426	81
255.659	68
255.892	84
256.124	92
256.357	71
256.59	85
256.823	81
257.056	92
257.289	84
257.521	87
257.754	85
257.987	73
258.22	76
258.452	93
258.685	81
258.918	85
259.151	87
259.383	87
259.616	85
259.849	90
260.081	86
260.314	90
260.547	94
260.779	77
261.012	86
261.244	79
261.477	83
261.71	84
261.942	95
262.175	80
262.407	100
262.64	89
262.872	82
263.105	93
263.337	93
263.57	81
263.802	73
264.035	77
264.267	70
264.499	99
264.732	83
264.964	76
265.197	87
265.429	93
265.661	89
265.894	98
266.126	84
266.358	92
266.591	81
266.823	93
267.055	78
267.287	81
267.52	83
267.752	72
267.984	75
268.216	86
268.448	95
268.681	99
268.913	93
269.145	80
269.377	91
269.609	87
269.841	89
270.073	93
270.306	95
270.538	88
270.77	89
271.002	88
271.234	96
271.466	86
271.698	89
271.93	83
272.162	78
272.394	85
272.626	87
272.858	97
273.09	85
273.322	96
273.553	78
273.785	98
274.017	96
274.249	93
274.481	87
274.713	98
274.945	87
275.176	89
275.408	96
275.64	73
275.872	85
276.104	85
276.335	80
276.567	91
276.799	83
277.031	90
277.262	88
277.494	84
277.726	84
277.957	79
278.189	92
278.421	85
278.652	86
278.884	89
279.115	87
279.347	79
279.579	82
279.81	92
280.042	91
280.273	79
280.505	90
280.736	68
280.968	92
281.199	106
281.431	105
281.662	91
281.894	88
282.125	83
282.356	73
282.588	85
282.819	89
283.051	84
283.282	101
283.513	91
283.745	83
283.976	98
284.207	89
284.439	83
284.67	94
284.901	91
285.132	102
285.364	98
285.595	98
285.826	83
286.057	71
286.288	84
286.52	81
286.751	78
286.982	91
287.213	83
287.444	86
287.675	83
287.906	102
288.138	87
288.369	89
288.6	92
288.831	87
289.062	93
289.293	74
289.524	93
289.755	99
289.986	97
290.217	96
290.448	99
290.679	89
290.91	79
291.141	77
291.371	98
291.602	85
291.833	88
292.064	93
292.295	95
292.526	113
292.757	93
292.987	79
293.218	74
293.449	86
293.68	89
293.91	85
294.141	91
294.372	86
294.603	91
294.833	86
295.064	81
295.295	96
295.525	91
295.756	88
295.987	85
296.217	101
296.448	87
296.679	87
296.909	91
297.14	89
297.37	82
297.601	94
297.831	95
298.062	100
298.292	109
298.523	92
298.753	86
298.984	79
299.214	83
299.445	102
299.675	83
299.905	75
300.136	89
300.366	86
300.597	90
300.827	102
301.057	91
301.288	85
301.518	87
301.748	105
301.979	86
302.209	79
302.439	85
302.669	74
302.9	85
303.13	75
303.36	85
303.59	82
303.82	86
304.051	83
304.281	87
304.511	89
304.741	84
304.971	89
305.201	85
305.431	90
305.661	91
305.891	88
306.121	87
306.352	79
306.582	95
306.812	83
307.042	91
307.272	87
307.502	80
307.731	91
307.961	86
308.191	93
308.421	91
308.651	91
308.881	93
309.111	95
309.341	89
309.571	96
309.8	90
310.03	90
310.26	85
310.49	100
310.72	100
310.949	87
311.179	84
311.409	85
311.639	87
311.868	92
312.098	96
312.328	80
312.557	90
312.787	94
313.017	92
313.246	89
313.476	99
313.706	95
313.935	102
314.165	96
314.394	94
314.624	90
314.853	87
315.083	85
315.312	85
315.542	88
315.771	89
316.001	91
316.23	88
316.46	90
316.689	84
316.919	78
317.148	83
317.377	106
317.607	95
317.836	92
318.065	93
318.295	103
318.524	83
318.753	97
318.983	99
319.212	84
319.441	77
319.67	85
319.9	91
320.129	95
320.358	104
320.587	80
320.816	85
321.046	89
321.275	96
321.504	93
321.733	91
321.962	86
322.191	74
322.42	88
322.649	100
322.878	89
323.108	97
323.337	100
323.566	96
323.795	97
324.024	90
324.253	87
324.482	110
324.71	92
324.939	103
325.168	92
325.397	95
325.626	94
325.855	83
326.084	81
326.313	101
326.542	91
326.77	94
326.999	83
327.228	87
327.457	77
327.686	90
327.914	95
328.143	99
328.372	82
328.6	84
328.829	94
329.058	80
329.287	93
329.515	86
329.744	88
329.972	88
330.201	87
330.43	105
330.658	91
330.887	97
331.115	71
331.344	97
331.572	96
331.801	93
332.03	92
332.258	103
332.486	106
332.715	95
332.943	93
333.172	77
333.4	97
333.629	83
333.857	99
334.085	87
334.314	92
334.542	95
334.771	89
334.999	96
335.227	99
335.455	86
335.684	75
335.912	87
336.14	104
336.369	99
336.597	107
336.825	91
337.053	93
337.281	87
337.51	89
337.738	86
337.966	80
338.194	88
338.422	83
338.65	77
338.878	82
339.106	77
339.334	76
339.562	90
339.79	91
340.018	96
340.246	89
340.474	94
340.702	88
340.93	93
341.158	81
341.386	87
341.614	101
341.842	93
342.07	92
342.298	102
342.526	97
342.754	91
342.981	88
343.209	85
343.437	101
343.665	95
343.893	106
344.12	97
344.348	88
344.576	81
344.804	95
345.031	82
345.259	76
345.487	86
345.714	90
345.942	102
346.17	109
346.397	93
346.625	100
346.853	88
347.08	98
347.308	85
347.535	76
347.763	92
347.99	104
348.218	90
348.445	102
348.673	95
348.9	85
349.128	89
349.355	87
349.583	83
349.81	95
350.037	81
350.265	103
350.492	95
350.72	87
350.947	92
351.174	83
351.402	102
351.629	85
351.856	98
352.083	96
352.311	96
352.538	85
352.765	94
352.992	80
353.22	92
353.447	93
353.674	88
353.901	89
354.128	83
354.355	81
354.583	94
354.81	92
355.037	96
355.264	96
355.491	83
355.718	94
355.945	89
356.172	75
356.399	81
356.626	89
356.853	82
357.08	112
357.307	82
357.534	93
357.761	97
357.988	94
358.215	97
358.441	102
358.668	78
358.895	105
359.122	81
359.349	80
359.576	78
359.802	81
360.029	85
360.256	87
360.483	80
360.709	96
360.936	74
361.163	95
361.39	85
361.616	101
361.843	89
362.07	89
362.296	101
362.523	92
362.749	95
362.976	85
363.203	91
363.429	81
363.656	78
363.882	75
364.109	89
364.335	87
364.562	84
364.788	86
365.015	74
365.241	92
365.468	93
365.694	71
365.92	78
366.147	93
366.373	94
366.599	97
366.826	94
367.052	91
367.278	81
367.505	80
367.731	92
367.957	77
368.184	94
368.41	86
368.636	98
368.862	87
369.089	76
369.315	92
369.541	102
369.767	84
369.993	84
370.219	96
370.445	100
370.672	90
370.898	87
371.124	92
371.35	80
371.576	91
371.802	94
372.028	81
372.254	91
372.48	106
372.706	97
372.932	87
373.158	87
373.384	90
373.61	83
373.835	81
374.061	89
374.287	79
374.513	89
374.739	91
374.965	91
375.191	92
375.416	87
375.642	75
375.868	104
376.094	91
376.319	92
376.545	80
376.771	80
376.997	81
377.222	91
377.448	76
377.674	81
377.899	99
378.125	79
378.35	88
378.576	81
378.802	97
379.027	93
379.253	97
379.478	91
379.704	83
379.929	83
380.155	73
380.38	81
380.606	75
380.831	86
381.057	98
381.282	97
381.507	75
381.733	100
381.958	84
382.184	90
382.409	86
382.634	91
382.86	99
383.085	85
383.31	87
383.535	91
383.761	87
383.986	84
384.211	86
384.436	88
384.662	99
384.887	92
385.112	80
385.337	84
385.562	75
385.787	88
386.013	94
386.238	86
386.463	107
386.688	81
386.913	97
387.138	84
387.363	67
387.588	84
387.813	71
388.038	76
388.263	84
388.488	95
388.713	86
388.938	92
389.163	83
389.387	68
389.612	86
389.837	97
390.062	90
390.287	80
390.512	76
390.736	79
390.961	99
391.186	99
391.411	81
391.636	91
391.86	90
392.085	81
392.31	91
392.534	96
392.759	77
392.984	77
393.208	78
393.433	96
393.658	90
393.882	81
394.107	77
394.331	80
394.556	78
394.78	84
395.005	99
395.229	102
395.454	101
395.678	95
395.903	97
396.127	111
396.352	78
396.576	72
396.801	88
397.025	73
397.249	89
397.474	95
397.698	97
397.922	87
398.147	103
398.371	83
398.595	99
398.82	85
399.044	95
399.268	104
399.492	95
399.717	89
399.941	95
400.165	93
400.389	97
400.613	87
400.837	104
401.062	91
401.286	81
401.51	90
401.734	83
401.958	87
402.182	94
402.406	107
402.63	90
402.854	95
403.078	102
403.302	99
403.526	89
403.75	83
403.974	84
404.198	74
404.422	92
404.645	79
404.869	94
405.093	95
405.317	89
405.541	85
405.765	89
405.988	94
406.212	95
406.436	76
406.66	96
406.883	73
407.107	80
407.331	92
407.555	82
407.778	74
408.002	99
408.226	93
408.449	101
408.673	86
408.896	84
409.12	83
409.344	98
409.567	99
409.791	80
410.014	71
410.238	99
410.461	80
410.685	99
410.908	83
411.132	87
411.355	91
411.578	90
411.802	89
412.025	86
412.249	89
412.472	90
412.695	88
412.919	108
413.142	77
413.365	82
413.589	80
413.812	97
414.035	88
414.258	77
414.482	83
414.705	82
414.928	96
415.151	98
415.374	87
415.597	89
415.821	89
416.044	95
416.267	88
416.49	90
416.713	92
416.936	100
417.159	82
417.382	97
417.605	81
417.828	86
418.051	85
418.274	79
418.497	74
418.72	91
418.943	103
419.166	81
419.389	92
419.611	105
419.834	88
420.057	84
420.28	98
420.503	83
420.726	92
420.948	94
421.171	91
421.394	88
421.617	83
421.839	79
422.062	80
422.285	85
422.507	90
422.73	89
422.953	85
423.175	94
423.398	83
423.621	99
423.843	82
424.066	86
424.288	106
424.511	87
424.733	88
424.956	105
425.178	86
425.401	95
425.623	87
425.846	89
426.068	87
426.291	91
426.513	96
426.735	88
426.958	101
427.18	86
427.402	94
427.625	94
427.847	83
428.069	85
428.292	84
428.514	97
428.736	96
428.958	98
429.181	90
429.403	97
429.625	81
429.847	84
430.069	87
430.292	87
430.514	94
430.736	100
430.958	89
431.18	95
431.402	102
431.624	76
431.846	96
432.068	107
432.29	93
432.512	95
432.734	102
432.956	97
433.178	93
433.4	104
433.622	105
433.844	94
434.066	85
434.287	86
434.509	92
434.731	102
434.953	85
435.175	85
435.397	100
435.618	91
435.84	77
436.062	95
436.284	73
436.505	83
436.727	99
436.949	90
437.17	104
437.392	99
437.614	88
437.835	75
438.057	104
438.278	72
438.5	90
438.721	82
438.943	98
439.165	89
439.386	99
439.608	85
439.829	85
440.05	94
440.272	89
440.493	92
440.715	85
440.936	94
441.158	93
441.379	100
441.6	101
441.822	103
442.043	100
442.264	85
442.486	100
442.707	89
442.928	96
443.149	79
443.371	94
443.592	76
443.813	102
444.034	91
444.255	91
444.476	86
444.698	97
444.919	100
445.14	209
445.361	139
445.582	99
445.803	94
446.024	86
446.245	94
446.466	105
446.687	95
446.908	91
447.129	90
447.35	84
447.571	90
447.792	78
448.013	81
448.234	89
448.455	84
448.675	92
448.896	91
449.117	83
449.338	87
449.559	89
449.779	94
450	91
450.221	93
450.442	95
450.662	83
450.883	86
451.104	81
451.324	93
451.545	100
451.766	85
451.986	84
452.207	93
452.428	96
452.648	92
452.869	84
453.089	86
453.31	85
453.53	87
453.751	79
453.971	89
454.192	94
454.412	83
454.633	83
454.853	87
455.073	84
455.294	76
455.514	81
455.734	94
455.955	100
456.175	84
456.395	94
456.616	85
456.836	99
457.056	76
457.276	83
457.497	87
457.717	82
457.937	90
458.157	99
458.377	93
458.598	90
458.818	83
459.038	95
459.258	92
459.478	85
459.698	86
459.918	88
460.138	95
460.358	97
460.578	93
460.798	83
461.018	72
461.238	74
461.458	96
461.678	84
461.898	86
462.118	100
462.338	100
462.558	96
462.777	80
462.997	85
463.217	83
463.437	89
463.657	93
463.876	85
464.096	97
464.316	95
464.536	89
464.755	88
464.975	83
465.195	102
465.414	95
465.634	81
465.854	87
466.073	87
466.293	90
466.512	100
466.732	82
466.951	93
467.171	93
467.391	89
467.61	96
467.829	100
468.049	101
468.268	82
468.488	89
468.707	89
468.927	86
469.146	96
469.365	100
469.585	84
469.804	86
470.023	95
470.243	97
470.462	95
470.681	99
470.901	94
471.12	97
471.339	96
471.558	86
471.777	96
471.997	103
472.216	110
472.435	100
472.654	98
472.873	91
473.092	81
473.311	98
473.53	89
473.749	92
473.968	100
474.187	92
474.406	87
474.625	82
474.844	84
475.063	92
475.282	92
475.501	95
475.72	94
475.939	96
476.158	81
476.377	69
476.596	93
476.814	92
477.033	83
477.252	94
477.471	102
477.69	96
477.908	90
478.127	98
478.346	99
478.564	88
478.783	83
479.002	101
479.22	96
479.439	88
479.658	97
479.876	102
480.095	102
480.313	101
480.532	93
480.751	87
480.969	106
481.188	91
481.406	89
481.624	88
481.843	91
482.061	102
482.28	105
482.498	104
482.717	105
482.935	96
483.153	97
483.372	99
483.59	109
483.808	95
484.027	98
484.245	107
484.463	103
484.681	91
484.9	100
485.118	98
485.336	91
485.554	100
485.772	92
485.99	97
486.209	91
486.427	105
486.645	88
486.863	100
487.081	92
487.299	100
487.517	93
487.735	100
487.953	107
488.171	100
488.389	97
488.607	93
488.825	97
489.043	108
489.261	111
489.479	104
489.696	95
489.914	89
490.132	86
490.35	104
490.568	104
490.786	101
491.003	99
491.221	107
491.439	106
491.657	96
491.874	101
492.092	105
492.31	110
492.527	100
492.745	82
492.963	95
493.18	117
493.398	91
493.615	100
493.833	109
494.05	108
494.268	102
494.485	108
494.703	109
494.92	100
495.138	103
495.355	107
495.573	108
495.79	88
496.008	102
496.225	109
496.442	110
496.66	120
496.877	110
497.094	118
497.312	107
497.529	108
497.746	110
497.963	103
498.181	102
498.398	95
498.615	97
498.832	100
499.049	96
499.267	104
499.484	116
499.701	111
499.918	115
500.135	103
500.352	108
500.569	120
500.786	125
501.003	125
501.22	126
501.437	117
501.654	120
501.871	104
502.088	121
502.305	107
502.522	112
502.739	94
502.956	100
503.172	92
503.389	86
503.606	116
503.823	102
504.04	92
504.256	88
504.473	100
504.69	103
504.907	116
505.123	120
505.34	85
505.557	102
505.773	101
505.99	106
506.207	100
506.423	102
506.64	90
506.856	88
507.073	98
507.289	98
507.506	107
507.722	99
507.939	89
508.155	102
508.372	104
508.588	93
508.805	105
509.021	95
509.238	99
509.454	100
509.67	91
509.887	85
510.103	96
510.319	94
510.536	104
510.752	91
510.968	115
511.184	81
511.401	99
511.617	107
511.833	98
512.049	110
512.265	95
512.481	105
512.698	94
512.914	96
513.13	93
513.346	97
513.562	96
513.778	101
513.994	108
514.21	97
514.426	108
514.642	101
514.858	92
515.074	84
515.29	104
515.506	90
515.721	83
515.937	89
516.153	106
516.369	93
516.585	81
516.801	103
517.016	105
517.232	104
517.448	99
517.664	87
517.879	103
518.095	97
518.311	95
518.527	92
518.742	96
518.958	95
519.173	104
519.389	108
519.605	93
519.82	94
520.036	106
520.251	103
520.467	107
520.682	88
520.898	91
521.113	101
521.329	100
521.544	84
521.76	107
521.975	96
522.19	88
522.406	96
522.621	86
522.836	88
523.052	91
523.267	92
523.482	89
523.698	96
523.913	108
524.128	107
524.343	100
524.559	101
524.774	90
524.989	103
525.204	94
525.419	99
525.634	99
525.849	109
526.064	97
526.28	103
526.495	91
526.71	92
526.925	88
527.14	85
527.355	99
527.57	115
527.785	101
527.999	95
528.214	83
528.429	95
528.644	91
528.859	93
529.074	80
529.289	95
529.503	97
529.718	87
529.933	108
530.148	95
530.363	95
530.577	83
530.792	102
531.007	95
531.221	86
531.436	92
531.651	94
531.865	92
532.08	84
532.295	111
532.509	90
532.724	104
532.938	84
533.153	86
533.367	92
533.582	94
533.796	95
534.011	94
534.225	92
534.44	73
534.654	92
534.868	97
535.083	111
535.297	93
535.511	115
535.726	91
535.94	92
536.154	101
536.369	89
536.583	79
536.797	86
537.011	94
537.225	94
537.44	92
537.654	92
537.868	89
538.082	96
538.296	98
538.51	88
538.724	108
538.938	104
539.153	83
539.367	91
539.581	91
539.795	86
540.009	93
540.222	81
540.436	93
540.65	97
540.864	99
541.078	97
541.292	99
541.506	105
541.72	91
541.934	96
542.147	91
542.361	99
542.575	99
542.789	102
543.002	94
543.216	108
543.43	98
543.644	98
543.857	94
544.071	89
544.285	96
544.498	108
544.712	100
544.925	87
545.139	83
545.352	98
545.566	87
545.779	106
545.993	88
546.206	102
546.42	102
546.633	96
546.847	105
547.06	94
547.274	103
547.487	99
547.7	101
547.914	81
548.127	94
548.34	95
548.554	90
548.767	92
548.98	112
549.193	98
549.407	103
549.62	93
549.833	86
550.046	84
550.259	91
550.473	95
550.686	93
550.899	96
551.112	93
551.325	96
551.538	85
551.751	97
551.964	89
552.177	91
552.39	94
552.603	84
552.816	96
553.029	97
553.242	91
553.455	89
553.667	101
553.88	102
554.093	87
554.306	102
554.519	100
554.732	97
554.944	96
555.157	81
555.37	95
555.583	98
555.795	101
556.008	90
556.221	93
556.433	92
556.646	100
556.859	97
557.071	97
557.284	81
557.496	82
557.709	85
557.921	105
558.134	81
558.346	96
558.559	103
558.771	92
558.984	84
559.196	100
559.409	88
559.621	88
559.833	88
560.046	93
560.258	94
560.47	95
560.683	98
560.895	90
561.107	106
561.32	91
561.532	96
561.744	97
561.956	107
562.168	99
562.381	87
562.593	99
562.805	104
563.017	96
563.229	103
563.441	97
563.653	108
563.865	100
564.077	91
564.289	94
564.501	83
564.713	90
564.925	88
565.137	93
565.349	104
565.561	89
565.773	96
565.985	87
566.197	93
566.408	99
566.62	85
566.832	98
567.044	96
567.255	88
567.467	99
567.679	104
567.891	103
568.102	85
568.314	109
568.526	110
568.737	90
568.949	90
569.161	91
569.372	90
569.584	104
569.795	100
570.007	102
570.218	88
570.43	97
570.641	87
570.853	107
571.064	103
571.276	75
571.487	86
571.698	94
571.91	93
572.121	107
572.333	93
572.544	79
572.755	91
572.966	94
573.178	94
573.389	85
573.6	75
573.811	111
574.023	84
574.234	86
574.445	69
574.656	96
574.867	96
575.078	92
575.289	99
575.501	82
575.712	84
575.923	80
576.134	88
576.345	85
576.556	91
576.767	91
576.978	92
577.188	95
577.399	91
577.61	92
577.821	86
578.032	97
578.243	86
578.454	92
578.665	85
578.875	76
579.086	93
579.297	93
579.508	94
579.718	100
579.929	90
580.14	80
580.35	88
580.561	85
580.772	91
580.982	101
581.193	89
581.403	97
581.614	98
581.825	87
582.035	99
582.246	79
582.456	88
582.667	109
582.877	89
583.087	93
583.298	97
583.508	96
583.719	87
583.929	91
584.139	87
584.35	91
584.56	83
584.77	81
584.981	82
585.191	79
585.401	80
585.611	76
585.821	89
586.032	79
586.242	92
586.452	94
586.662	97
586.872	96
587.082	91
587.292	85
587.502	90
587.713	85
587.923	102
588.133	78
588.343	84
588.553	87
588.762	87
588.972	94
589.182	86
589.392	87
589.602	84
589.812	84
590.022	91
590.232	85
590.441	96
590.651	103
590.861	99
591.071	101
591.281	86
591.49	84
591.7	79
591.91	90
592.119	87
592.329	88
592.539	81
592.748	98
592.958	94
593.167	95
593.377	97
593.587	102
593.796	76
594.006	85
594.215	85
594.424	82
594.634	79
594.843	86
595.053	91
595.262	80
595.472	81
595.681	91
595.89	88
596.1	96
596.309	88
596.518	91
596.727	91
596.937	89
597.146	94
597.355	97
597.564	88
597.774	81
597.983	89
598.192	88
598.401	92
598.61	88
598.819	86
599.028	82
599.237	77
599.446	88
599.655	101
599.864	90
600.073	75
600.282	91
600.491	85
600.7	90
600.909	100
601.118	89
601.327	96
601.536	87
601.745	95
601.953	91
602.162	89
602.371	93
602.58	90
602.789	91
602.997	88
603.206	98
603.415	86
603.623	83
603.832	86
604.041	80
604.249	81
604.458	80
604.666	80
604.875	81
605.084	89
605.292	92
605.501	85
605.709	95
605.918	85
606.126	89
606.334	89
606.543	89
606.751	83
606.96	85
607.168	76
607.376	88
607.585	92
607.793	85
608.001	88
608.21	110
608.418	86
608.626	104
608.834	88
609.043	90
609.251	80
609.459	87
609.667	99
609.875	78
610.083	77
610.291	86
610.499	81
610.707	85
610.916	81
611.124	84
611.332	94
611.54	96
611.748	85
611.955	94
612.163	97
612.371	95
612.579	80
612.787	80
612.995	69
613.203	85
613.411	84
613.618	79
613.826	80
614.034	85
614.242	95
614.449	79
614.657	82
614.865	80
615.072	83
615.28	88
615.488	83
615.695	92
615.903	85
616.111	85
616.318	89
616.526	80
616.733	69
616.941	90
617.148	91
617.356	95
617.563	86
617.771	95
617.978	83
618.185	101
618.393	80
618.6	95
618.807	84
619.015	89
619.222	83
619.429	83
619.637	96
619.844	72
620.051	86
620.258	86
620.466	88
620.673	86
620.88	64
621.087	95
621.294	93
621.501	96
621.708	96
621.915	88
622.122	97
622.329	85
622.536	91
622.743	94
622.95	78
623.157	99
623.364	92
623.571	94
623.778	95
623.985	95
624.192	89
624.399	85
624.606	96
624.812	87
625.019	101
625.226	91
625.433	101
625.639	87
625.846	72
626.053	74
626.259	91
626.466	90
626.673	83
626.879	91
627.086	95
627.293	84
627.499	98
627.706	77
627.912	91
628.119	93
628.325	88
628.532	98
628.738	85
628.945	93
629.151	79
629.357	88
629.564	97
629.77	89
629.976	93
630.183	94
630.389	87
630.595	72
630.802	96
631.008	84
631.214	79
631.42	95
631.627	79
631.833	89
632.039	83
632.245	87
632.451	102
632.657	93
632.863	78
633.069	86
633.275	99
633.481	82
633.688	84
633.893	82
634.099	90
634.305	84
634.511	93
634.717	92
634.923	86
635.129	97
635.335	83
635.541	84
635.747	82
635.952	91
636.158	85
636.364	78
636.57	83
636.775	82
636.981	93
637.187	82
637.392	96
637.598	94
637.804	90
638.009	77
638.215	87
638.421	91
638.626	86
638.832	85
639.037	76
639.243	76
639.448	76
639.654	86
639.859	78
640.065	77
640.27	90
640.475	80
640.681	89
640.886	82
641.091	80
641.297	90
641.502	75
641.707	100
641.913	96
642.118	85
642.323	84
642.528	89
642.733	102
642.939	76
643.144	97
643.349	68
643.554	101
643.759	81
643.964	89
644.169	86
644.374	81
644.579	92
644.784	93
644.989	86
645.194	92
645.399	82
645.604	99
645.809	98
646.014	86
646.219	74
646.423	78
646.628	80
646.833	84
647.038	93
647.243	92
647.447	96
647.652	84
647.857	92
648.062	97
648.266	88
648.471	78
648.676	84
648.88	86
649.085	82
649.289	92
649.494	91
649.698	81
649.903	84
650.107	81
650.312	89
650.516	80
650.721	71
650.925	101
651.13	88
651.334	83
651.539	74
651.743	81
651.947	92
652.152	87
652.356	86
652.56	94
652.764	79
652.969	92
653.173	82
653.377	86
653.581	83
653.785	90
653.99	93
654.194	90
654.398	88
654.602	80
654.806	81
655.01	86
655.214	90
655.418	80
655.622	91
655.826	76
656.03	84
656.234	88
656.438	70
656.642	83
656.846	85
657.049	76
657.253	78
657.457	81
657.661	80
657.865	97
658.068	77
658.272	87
658.476	64
658.68	95
658.883	92
659.087	85
659.291	92
659.494	81
659.698	102
659.901	87
660.105	89
660.309	78
660.512	85
660.716	87
660.919	84
661.123	86
661.326	74
661.53	86
661.733	85
661.936	81
662.14	83
662.343	84
662.546	83
662.75	94
662.953	99
663.156	108
663.36	83
663.563	77
663.766	87
663.969	87
664.173	90
664.376	84
664.579	85
664.782	85
664.985	92
665.188	82
665.391	95
665.594	90
665.797	98
666	82
666.203	103
666.406	83
666.609	76
666.812	79
667.015	96
667.218	97
667.421	86
667.624	84
667.827	85
668.03	100
668.232	89
668.435	88
668.638	85
668.841	82
669.043	96
669.246	77
669.449	88
669.651	81
669.854	89
670.057	84
670.259	96
670.462	92
670.665	76
670.867	82
671.07	85
671.272	90
671.475	93
671.677	77
671.88	82
672.082	100
672.284	86
672.487	86
672.689	88
672.892	67
