Data from Ni(NO3)2Standard.Agarose3%.GreenCap.LampEnergy5.5.E.O_HRD10591_14-41-11-188.txt Node
Date: Mon Jul 22 14:41:11 EDT 2019
User: cochatt
Spectrometer: HR+D1059
Trigger mode: 1
Integration Time (sec): 1.000000E-1
Scans to average: 1
Electric dark correction enabled: true
Nonlinearity correction enabled: false
Boxcar width: 0
XAxis mode: Wavelengths
Number of Pixels in Spectrum: 2048
>>>>>Begin Spectral Data<<<<<
223.165	-22
223.4	-22
223.635	-22
223.869	-16
224.104	-14
224.338	-13
224.573	-15
224.808	-7
225.042	-7
225.277	-11
225.511	-13
225.746	2
225.98	18
226.215	7
226.449	17
226.683	18
226.918	25
227.152	31
227.387	33
227.621	39
227.856	57
228.09	44
228.324	51
228.559	49
228.793	57
229.027	61
229.262	52
229.496	76
229.73	75
229.964	68
230.199	63
230.433	63
230.667	83
230.901	82
231.136	70
231.37	63
231.604	71
231.838	78
232.072	76
232.306	75
232.541	75
232.775	81
233.009	72
233.243	74
233.477	64
233.711	71
233.945	84
234.179	84
234.413	73
234.647	75
234.881	73
235.115	84
235.349	80
235.583	86
235.817	83
236.051	68
236.285	76
236.519	75
236.753	75
236.987	74
237.221	74
237.455	83
237.689	84
237.922	82
238.156	72
238.39	72
238.624	72
238.858	78
239.091	80
239.325	63
239.559	78
239.793	72
240.027	74
240.26	79
240.494	70
240.728	82
240.961	81
241.195	80
241.429	75
241.662	73
241.896	80
242.13	73
242.363	73
242.597	94
242.83	67
243.064	72
243.298	80
243.531	74
243.765	67
243.998	66
244.232	72
244.465	90
244.699	87
244.932	78
245.166	76
245.399	68
245.633	79
245.866	82
246.099	78
246.333	81
246.566	67
246.8	88
247.033	59
247.266	69
247.5	68
247.733	75
247.966	75
248.2	66
248.433	68
248.666	63
248.899	56
249.133	77
249.366	76
249.599	66
249.832	91
250.066	88
250.299	97
250.532	87
250.765	66
250.998	81
251.231	58
251.465	74
251.698	76
251.931	79
252.164	84
252.397	74
252.63	71
252.863	71
253.096	80
253.329	77
253.562	81
253.795	83
254.028	86
254.261	88
254.494	74
254.727	89
254.96	96
255.193	82
255.426	72
255.659	67
255.892	84
256.124	86
256.357	86
256.59	84
256.823	79
257.056	80
257.289	88
257.521	81
257.754	83
257.987	88
258.22	84
258.452	69
258.685	73
258.918	80
259.151	86
259.383	78
259.616	75
259.849	62
260.081	75
260.314	86
260.547	84
260.779	75
261.012	75
261.244	83
261.477	81
261.71	83
261.942	81
262.175	75
262.407	88
262.64	64
262.872	75
263.105	73
263.337	95
263.57	91
263.802	92
264.035	75
264.267	80
264.499	68
264.732	93
264.964	79
265.197	87
265.429	76
265.661	74
265.894	75
266.126	80
266.358	70
266.591	80
266.823	99
267.055	73
267.287	79
267.52	72
267.752	79
267.984	87
268.216	86
268.448	88
268.681	97
268.913	81
269.145	84
269.377	91
269.609	79
269.841	84
270.073	77
270.306	85
270.538	92
270.77	79
271.002	69
271.234	78
271.466	78
271.698	87
271.93	83
272.162	98
272.394	75
272.626	70
272.858	79
273.09	88
273.322	86
273.553	92
273.785	82
274.017	71
274.249	90
274.481	76
274.713	85
274.945	97
275.176	69
275.408	77
275.64	84
275.872	71
276.104	89
276.335	73
276.567	73
276.799	84
277.031	75
277.262	78
277.494	86
277.726	83
277.957	84
278.189	86
278.421	86
278.652	90
278.884	90
279.115	85
279.347	75
279.579	82
279.81	74
280.042	71
280.273	73
280.505	91
280.736	77
280.968	86
281.199	93
281.431	75
281.662	73
281.894	85
282.125	72
282.356	70
282.588	62
282.819	82
283.051	83
283.282	77
283.513	78
283.745	85
283.976	76
284.207	73
284.439	84
284.67	99
284.901	87
285.132	94
285.364	86
285.595	83
285.826	82
286.057	87
286.288	75
286.52	82
286.751	76
286.982	78
287.213	73
287.444	90
287.675	82
287.906	81
288.138	88
288.369	75
288.6	74
288.831	80
289.062	83
289.293	89
289.524	90
289.755	100
289.986	82
290.217	81
290.448	73
290.679	88
290.91	85
291.141	87
291.371	68
291.602	86
291.833	85
292.064	86
292.295	89
292.526	93
292.757	80
292.987	83
293.218	86
293.449	87
293.68	94
293.91	92
294.141	76
294.372	91
294.603	82
294.833	73
295.064	72
295.295	77
295.525	96
295.756	91
295.987	80
296.217	69
296.448	84
296.679	92
296.909	90
297.14	82
297.37	82
297.601	66
297.831	76
298.062	89
298.292	89
298.523	98
298.753	80
298.984	91
299.214	81
299.445	84
299.675	95
299.905	86
300.136	88
300.366	83
300.597	87
300.827	89
301.057	76
301.288	83
301.518	81
301.748	79
301.979	80
302.209	86
302.439	85
302.669	84
302.9	70
303.13	85
303.36	83
303.59	86
303.82	82
304.051	88
304.281	83
304.511	81
304.741	71
304.971	78
305.201	102
305.431	94
305.661	74
305.891	82
306.121	71
306.352	82
306.582	74
306.812	93
307.042	92
307.272	69
307.502	80
307.731	86
307.961	85
308.191	93
308.421	86
308.651	83
308.881	73
309.111	82
309.341	100
309.571	72
309.8	92
310.03	89
310.26	89
310.49	91
310.72	83
310.949	75
311.179	87
311.409	103
311.639	70
311.868	98
312.098	85
312.328	94
312.557	79
312.787	70
313.017	95
313.246	98
313.476	78
313.706	88
313.935	98
314.165	86
314.394	103
314.624	95
314.853	85
315.083	89
315.312	73
315.542	82
315.771	85
316.001	86
316.23	77
316.46	84
316.689	77
316.919	71
317.148	78
317.377	81
317.607	85
317.836	86
318.065	95
318.295	81
318.524	90
318.753	82
318.983	98
319.212	88
319.441	70
319.67	89
319.9	78
320.129	86
320.358	72
320.587	92
320.816	73
321.046	68
321.275	96
321.504	82
321.733	90
321.962	91
322.191	79
322.42	66
322.649	83
322.878	96
323.108	95
323.337	89
323.566	94
323.795	77
324.024	95
324.253	88
324.482	87
324.71	95
324.939	84
325.168	71
325.397	84
325.626	78
325.855	90
326.084	101
326.313	82
326.542	74
326.77	88
326.999	94
327.228	79
327.457	81
327.686	69
327.914	87
328.143	96
328.372	87
328.6	83
328.829	88
329.058	85
329.287	82
329.515	76
329.744	83
329.972	86
330.201	99
330.43	81
330.658	98
330.887	95
331.115	85
331.344	84
331.572	90
331.801	88
332.03	81
332.258	74
332.486	84
332.715	81
332.943	66
333.172	91
333.4	72
333.629	85
333.857	84
334.085	80
334.314	86
334.542	89
334.771	76
334.999	94
335.227	91
335.455	84
335.684	68
335.912	99
336.14	80
336.369	77
336.597	90
336.825	80
337.053	94
337.281	87
337.51	82
337.738	87
337.966	81
338.194	79
338.422	78
338.65	84
338.878	83
339.106	71
339.334	80
339.562	92
339.79	90
340.018	80
340.246	88
340.474	100
340.702	75
340.93	82
341.158	83
341.386	83
341.614	94
341.842	77
342.07	103
342.298	85
342.526	82
342.754	89
342.981	89
343.209	86
343.437	90
343.665	72
343.893	76
344.12	103
344.348	82
344.576	86
344.804	101
345.031	85
345.259	76
345.487	74
345.714	77
345.942	83
346.17	78
346.397	72
346.625	101
346.853	83
347.08	91
347.308	88
347.535	88
347.763	77
347.99	79
348.218	80
348.445	90
348.673	85
348.9	71
349.128	93
349.355	81
349.583	84
349.81	93
350.037	90
350.265	79
350.492	106
350.72	89
350.947	94
351.174	80
351.402	80
351.629	89
351.856	83
352.083	80
352.311	84
352.538	90
352.765	82
352.992	97
353.22	84
353.447	81
353.674	95
353.901	91
354.128	92
354.355	86
354.583	72
354.81	87
355.037	75
355.264	81
355.491	85
355.718	94
355.945	95
356.172	84
356.399	98
356.626	95
356.853	79
357.08	87
357.307	87
357.534	80
357.761	92
357.988	85
358.215	94
358.441	84
358.668	81
358.895	95
359.122	94
359.349	75
359.576	99
359.802	71
360.029	86
360.256	76
360.483	91
360.709	88
360.936	89
361.163	80
361.39	80
361.616	91
361.843	74
362.07	85
362.296	89
362.523	99
362.749	80
362.976	80
363.203	88
363.429	75
363.656	74
363.882	84
364.109	92
364.335	85
364.562	94
364.788	83
365.015	71
365.241	78
365.468	80
365.694	82
365.92	76
366.147	77
366.373	79
366.599	84
366.826	88
367.052	89
367.278	85
367.505	84
367.731	82
367.957	82
368.184	91
368.41	86
368.636	90
368.862	87
369.089	69
369.315	79
369.541	79
369.767	78
369.993	90
370.219	87
370.445	83
370.672	93
370.898	104
371.124	87
371.35	85
371.576	91
371.802	74
372.028	91
372.254	81
372.48	83
372.706	82
372.932	87
373.158	85
373.384	80
373.61	86
373.835	67
374.061	88
374.287	92
374.513	94
374.739	81
374.965	76
375.191	92
375.416	82
375.642	90
375.868	83
376.094	73
376.319	84
376.545	86
376.771	79
376.997	98
377.222	85
377.448	80
377.674	80
377.899	85
378.125	87
378.35	79
378.576	75
378.802	71
379.027	90
379.253	89
379.478	91
379.704	90
379.929	72
380.155	82
380.38	74
380.606	74
380.831	83
381.057	96
381.282	79
381.507	73
381.733	72
381.958	71
382.184	75
382.409	83
382.634	80
382.86	87
383.085	97
383.31	95
383.535	80
383.761	80
383.986	70
384.211	71
384.436	79
384.662	90
384.887	78
385.112	94
385.337	81
385.562	79
385.787	92
386.013	91
386.238	76
386.463	91
386.688	89
386.913	76
387.138	70
387.363	73
387.588	83
387.813	93
388.038	104
388.263	80
388.488	62
388.713	75
388.938	107
389.163	75
389.387	74
389.612	92
389.837	82
390.062	89
390.287	80
390.512	79
390.736	80
390.961	73
391.186	95
391.411	92
391.636	90
391.86	71
392.085	82
392.31	68
392.534	77
392.759	88
392.984	84
393.208	88
393.433	76
393.658	82
393.882	79
394.107	67
394.331	87
394.556	75
394.78	86
395.005	80
395.229	81
395.454	83
395.678	76
395.903	80
396.127	87
396.352	81
396.576	89
396.801	86
397.025	79
397.249	84
397.474	85
397.698	73
397.922	79
398.147	92
398.371	95
398.595	82
398.82	84
399.044	86
399.268	84
399.492	85
399.717	87
399.941	85
400.165	83
400.389	86
400.613	80
400.837	89
401.062	83
401.286	86
401.51	72
401.734	71
401.958	85
402.182	81
402.406	78
402.63	75
402.854	96
403.078	86
403.302	84
403.526	84
403.75	72
403.974	86
404.198	94
404.422	76
404.645	93
404.869	92
405.093	77
405.317	83
405.541	95
405.765	74
405.988	92
406.212	92
406.436	90
406.66	87
406.883	81
407.107	80
407.331	77
407.555	96
407.778	86
408.002	82
408.226	89
408.449	69
408.673	84
408.896	84
409.12	91
409.344	74
409.567	90
409.791	82
410.014	89
410.238	78
410.461	75
410.685	75
410.908	88
411.132	99
411.355	70
411.578	90
411.802	83
412.025	83
412.249	87
412.472	75
412.695	62
412.919	91
413.142	82
413.365	90
413.589	70
413.812	92
414.035	92
414.258	97
414.482	99
414.705	87
414.928	77
415.151	77
415.374	83
415.597	83
415.821	91
416.044	80
416.267	75
416.49	71
416.713	84
416.936	80
417.159	75
417.382	76
417.605	86
417.828	94
418.051	83
418.274	100
418.497	97
418.72	88
418.943	81
419.166	75
419.389	88
419.611	80
419.834	85
420.057	91
420.28	84
420.503	93
420.726	91
420.948	82
421.171	82
421.394	87
421.617	93
421.839	85
422.062	94
422.285	67
422.507	75
422.73	81
422.953	83
423.175	72
423.398	72
423.621	78
423.843	87
424.066	86
424.288	92
424.511	86
424.733	86
424.956	91
425.178	100
425.401	79
425.623	91
425.846	84
426.068	95
426.291	85
426.513	95
426.735	90
426.958	87
427.18	83
427.402	83
427.625	87
427.847	86
428.069	85
428.292	94
428.514	84
428.736	81
428.958	77
429.181	88
429.403	76
429.625	94
429.847	78
430.069	71
430.292	82
430.514	78
430.736	84
430.958	90
431.18	82
431.402	81
431.624	78
431.846	81
432.068	89
432.29	84
432.512	86
432.734	82
432.956	88
433.178	75
433.4	96
433.622	80
433.844	96
434.066	91
434.287	95
434.509	94
434.731	95
434.953	88
435.175	88
435.397	85
435.618	85
435.84	81
436.062	79
436.284	70
436.505	86
436.727	94
436.949	80
437.17	78
437.392	71
437.614	82
437.835	78
438.057	101
438.278	89
438.5	92
438.721	95
438.943	79
439.165	91
439.386	60
439.608	89
439.829	84
440.05	75
440.272	95
440.493	73
440.715	77
440.936	87
441.158	93
441.379	87
441.6	87
441.822	76
442.043	77
442.264	87
442.486	84
442.707	94
442.928	85
443.149	81
443.371	83
443.592	82
443.813	85
444.034	82
444.255	96
444.476	87
444.698	80
444.919	88
445.14	196
445.361	127
445.582	76
445.803	92
446.024	95
446.245	90
446.466	89
446.687	100
446.908	84
447.129	87
447.35	96
447.571	70
447.792	99
448.013	92
448.234	83
448.455	89
448.675	81
448.896	85
449.117	86
449.338	79
449.559	85
449.779	91
450	88
450.221	80
450.442	73
450.662	75
450.883	85
451.104	78
451.324	81
451.545	77
451.766	86
451.986	81
452.207	88
452.428	81
452.648	88
452.869	68
453.089	77
453.31	76
453.53	83
453.751	88
453.971	94
454.192	78
454.412	86
454.633	90
454.853	79
455.073	87
455.294	81
455.514	81
455.734	87
455.955	91
456.175	73
456.395	81
456.616	71
456.836	90
457.056	73
457.276	90
457.497	81
457.717	93
457.937	84
458.157	98
458.377	78
458.598	70
458.818	95
459.038	88
459.258	89
459.478	90
459.698	80
459.918	93
460.138	83
460.358	87
460.578	72
460.798	87
461.018	78
461.238	90
461.458	91
461.678	96
461.898	87
462.118	83
462.338	101
462.558	98
462.777	98
462.997	101
463.217	81
463.437	95
463.657	96
463.876	72
464.096	95
464.316	91
464.536	101
464.755	102
464.975	86
465.195	80
465.414	79
465.634	86
465.854	86
466.073	87
466.293	96
466.512	82
466.732	101
466.951	96
467.171	92
467.391	92
467.61	101
467.829	84
468.049	74
468.268	93
468.488	88
468.707	64
468.927	67
469.146	73
469.365	85
469.585	89
469.804	83
470.023	76
470.243	82
470.462	95
470.681	80
470.901	85
471.12	92
471.339	71
471.558	94
471.777	94
471.997	100
472.216	80
472.435	96
472.654	96
472.873	87
473.092	95
473.311	80
473.53	93
473.749	84
473.968	71
474.187	94
474.406	80
474.625	81
474.844	91
475.063	87
475.282	100
475.501	91
475.72	92
475.939	94
476.158	76
476.377	84
476.596	85
476.814	82
477.033	90
477.252	80
477.471	92
477.69	87
477.908	81
478.127	91
478.346	99
478.564	78
478.783	95
479.002	96
479.22	83
479.439	93
479.658	86
479.876	75
480.095	90
480.313	99
480.532	96
480.751	89
480.969	84
481.188	72
481.406	98
481.624	101
481.843	91
482.061	82
482.28	107
482.498	82
482.717	80
482.935	92
483.153	95
483.372	86
483.59	89
483.808	77
484.027	79
484.245	79
484.463	88
484.681	74
484.9	98
485.118	89
485.336	91
485.554	79
485.772	99
485.99	88
486.209	84
486.427	92
486.645	84
486.863	76
487.081	90
487.299	89
487.517	79
487.735	76
487.953	94
488.171	86
488.389	90
488.607	78
488.825	88
489.043	101
489.261	97
489.479	85
489.696	94
489.914	104
490.132	90
490.35	93
490.568	75
490.786	92
491.003	90
491.221	103
491.439	94
491.657	97
491.874	89
492.092	94
492.31	98
492.527	92
492.745	87
492.963	88
493.18	89
493.398	101
493.615	90
493.833	88
494.05	88
494.268	104
494.485	97
494.703	96
494.92	83
495.138	66
495.355	88
495.573	88
495.79	95
496.008	82
496.225	87
496.442	103
496.66	110
496.877	96
497.094	104
497.312	121
497.529	102
497.746	96
497.963	90
498.181	98
498.398	90
498.615	104
498.832	98
499.049	101
499.267	97
499.484	93
499.701	100
499.918	85
500.135	119
500.352	117
500.569	101
500.786	107
501.003	103
501.22	103
501.437	91
501.654	94
501.871	108
502.088	102
502.305	95
502.522	90
502.739	96
502.956	91
503.172	91
503.389	98
503.606	96
503.823	86
504.04	93
504.256	89
504.473	110
504.69	89
504.907	95
505.123	88
505.34	83
505.557	88
505.773	91
505.99	99
506.207	94
506.423	84
506.64	101
506.856	103
507.073	98
507.289	86
507.506	95
507.722	101
507.939	77
508.155	94
508.372	79
508.588	101
508.805	94
509.021	94
509.238	88
509.454	95
509.67	86
509.887	91
510.103	84
510.319	91
510.536	76
510.752	90
510.968	85
511.184	99
511.401	96
511.617	99
511.833	88
512.049	88
512.265	91
512.481	98
512.698	99
512.914	91
513.13	88
513.346	82
513.562	96
513.778	85
513.994	91
514.21	83
514.426	83
514.642	72
514.858	87
515.074	74
515.29	86
515.506	91
515.721	81
515.937	88
516.153	88
516.369	98
516.585	87
516.801	99
517.016	90
517.232	82
517.448	93
517.664	90
517.879	102
518.095	77
518.311	91
518.527	83
518.742	81
518.958	89
519.173	96
519.389	99
519.605	98
519.82	89
520.036	83
520.251	89
520.467	89
520.682	92
520.898	94
521.113	86
521.329	88
521.544	89
521.76	84
521.975	82
522.19	98
522.406	87
522.621	93
522.836	80
523.052	93
523.267	95
523.482	100
523.698	79
523.913	97
524.128	82
524.343	80
524.559	98
524.774	92
524.989	106
525.204	92
525.419	74
525.634	75
525.849	77
526.064	84
526.28	88
526.495	94
526.71	85
526.925	89
527.14	92
527.355	76
527.57	100
527.785	81
527.999	90
528.214	98
528.429	91
528.644	96
528.859	96
529.074	104
529.289	95
529.503	76
529.718	96
529.933	80
530.148	69
530.363	75
530.577	93
530.792	73
531.007	95
531.221	82
531.436	85
531.651	96
531.865	98
532.08	82
532.295	111
532.509	93
532.724	89
532.938	98
533.153	86
533.367	88
533.582	83
533.796	85
534.011	84
534.225	82
534.44	96
534.654	88
534.868	90
535.083	86
535.297	72
535.511	87
535.726	91
535.94	82
536.154	87
536.369	85
536.583	84
536.797	82
537.011	95
537.225	89
537.44	90
537.654	71
537.868	79
538.082	82
538.296	66
538.51	86
538.724	78
538.938	89
539.153	90
539.367	86
539.581	94
539.795	99
540.009	77
540.222	100
540.436	84
540.65	78
540.864	93
541.078	95
541.292	89
541.506	95
541.72	102
541.934	90
542.147	95
542.361	99
542.575	88
542.789	86
543.002	83
543.216	94
543.43	85
543.644	93
543.857	105
544.071	82
544.285	105
544.498	87
544.712	91
544.925	91
545.139	93
545.352	84
545.566	95
545.779	82
545.993	83
546.206	85
546.42	100
546.633	101
546.847	88
547.06	87
547.274	99
547.487	91
547.7	68
547.914	94
548.127	88
548.34	91
548.554	97
548.767	90
548.98	102
549.193	89
549.407	85
549.62	101
549.833	87
550.046	78
550.259	95
550.473	83
550.686	88
550.899	79
551.112	99
551.325	93
551.538	98
551.751	78
551.964	86
552.177	95
552.39	89
552.603	104
552.816	84
553.029	94
553.242	79
553.455	77
553.667	102
553.88	89
554.093	84
554.306	103
554.519	102
554.732	96
554.944	95
555.157	93
555.37	89
555.583	84
555.795	91
556.008	87
556.221	83
556.433	82
556.646	91
556.859	80
557.071	95
557.284	87
557.496	89
557.709	85
557.921	96
558.134	90
558.346	88
558.559	92
558.771	89
558.984	86
559.196	82
559.409	86
559.621	97
559.833	95
560.046	74
560.258	86
560.47	79
560.683	89
560.895	80
561.107	81
561.32	84
561.532	74
561.744	100
561.956	98
562.168	103
562.381	90
562.593	80
562.805	90
563.017	85
563.229	84
563.441	89
563.653	75
563.865	88
564.077	104
564.289	84
564.501	85
564.713	99
564.925	91
565.137	94
565.349	93
565.561	77
565.773	97
565.985	93
566.197	75
566.408	96
566.62	84
566.832	82
567.044	96
567.255	86
567.467	99
567.679	82
567.891	74
568.102	85
568.314	83
568.526	88
568.737	86
568.949	102
569.161	76
569.372	78
569.584	92
569.795	81
570.007	78
570.218	87
570.43	79
570.641	64
570.853	92
571.064	96
571.276	73
571.487	96
571.698	89
571.91	71
572.121	101
572.333	95
572.544	85
572.755	85
572.966	100
573.178	84
573.389	86
573.6	81
573.811	89
574.023	84
574.234	91
574.445	76
574.656	78
574.867	83
575.078	99
575.289	87
575.501	83
575.712	88
575.923	82
576.134	72
576.345	80
576.556	80
576.767	90
576.978	89
577.188	94
577.399	89
577.61	89
577.821	82
578.032	80
578.243	77
578.454	85
578.665	103
578.875	79
579.086	75
579.297	84
579.508	84
579.718	84
579.929	96
580.14	78
580.35	92
580.561	86
580.772	86
580.982	86
581.193	87
581.403	80
581.614	84
581.825	74
582.035	81
582.246	83
582.456	77
582.667	74
582.877	73
583.087	82
583.298	84
583.508	81
583.719	87
583.929	85
584.139	80
584.35	76
584.56	77
584.77	90
584.981	89
585.191	87
585.401	81
585.611	77
585.821	95
586.032	82
586.242	86
586.452	89
586.662	85
586.872	71
587.082	87
587.292	91
587.502	86
587.713	73
587.923	88
588.133	68
588.343	87
588.553	82
588.762	96
588.972	109
589.182	75
589.392	97
589.602	83
589.812	85
590.022	82
590.232	82
590.441	84
590.651	71
590.861	87
591.071	78
591.281	83
591.49	89
591.7	91
591.91	90
592.119	94
592.329	83
592.539	73
592.748	82
592.958	82
593.167	75
593.377	83
593.587	95
593.796	87
594.006	88
594.215	94
594.424	78
594.634	87
594.843	77
595.053	82
595.262	87
595.472	88
595.681	86
595.89	91
596.1	81
596.309	86
596.518	82
596.727	94
596.937	92
597.146	79
597.355	92
597.564	86
597.774	104
597.983	85
598.192	82
598.401	88
598.61	88
598.819	79
599.028	82
599.237	70
599.446	80
599.655	91
599.864	78
600.073	79
600.282	92
600.491	86
600.7	92
600.909	84
601.118	84
601.327	84
601.536	80
601.745	79
601.953	74
602.162	91
602.371	90
602.58	84
602.789	86
602.997	92
603.206	92
603.415	74
603.623	82
603.832	72
604.041	87
604.249	66
604.458	77
604.666	85
604.875	83
605.084	84
605.292	83
605.501	63
605.709	82
605.918	88
606.126	87
606.334	82
606.543	73
606.751	85
606.96	76
607.168	72
607.376	72
607.585	83
607.793	89
608.001	81
608.21	72
608.418	77
608.626	78
608.834	74
609.043	81
609.251	78
609.459	75
609.667	95
609.875	93
610.083	102
610.291	73
610.499	90
610.707	75
610.916	92
611.124	92
611.332	85
611.54	84
611.748	88
611.955	86
612.163	74
612.371	86
612.579	85
612.787	81
612.995	91
613.203	86
613.411	83
613.618	74
613.826	94
614.034	98
614.242	82
614.449	66
614.657	95
614.865	74
615.072	71
615.28	71
615.488	77
615.695	84
615.903	93
616.111	78
616.318	98
616.526	94
616.733	89
616.941	69
617.148	83
617.356	83
617.563	91
617.771	91
617.978	91
618.185	65
618.393	77
618.6	62
618.807	65
619.015	92
619.222	91
619.429	89
619.637	81
619.844	81
620.051	92
620.258	94
620.466	98
620.673	84
620.88	84
621.087	92
621.294	73
621.501	75
621.708	88
621.915	87
622.122	94
622.329	75
622.536	78
622.743	82
622.95	100
623.157	90
623.364	84
623.571	86
623.778	81
623.985	72
624.192	72
624.399	75
624.606	86
624.812	80
625.019	86
625.226	91
625.433	96
625.639	74
625.846	75
626.053	83
626.259	67
626.466	84
626.673	89
626.879	69
627.086	92
627.293	88
627.499	77
627.706	83
627.912	80
628.119	80
628.325	80
628.532	89
628.738	81
628.945	81
629.151	91
629.357	89
629.564	80
629.77	80
629.976	91
630.183	82
630.389	84
630.595	84
630.802	76
631.008	78
631.214	77
631.42	78
631.627	82
631.833	79
632.039	86
632.245	76
632.451	75
632.657	104
632.863	87
633.069	85
633.275	106
633.481	64
633.688	82
633.893	90
634.099	95
634.305	91
634.511	77
634.717	79
634.923	80
635.129	91
635.335	88
635.541	83
635.747	79
635.952	82
636.158	80
636.364	90
636.57	71
636.775	77
636.981	79
637.187	78
637.392	75
637.598	86
637.804	83
638.009	68
638.215	86
638.421	79
638.626	78
638.832	74
639.037	76
639.243	85
639.448	80
639.654	79
639.859	76
640.065	86
640.27	98
640.475	89
640.681	75
640.886	91
641.091	78
641.297	88
641.502	83
641.707	87
641.913	89
642.118	84
642.323	86
642.528	91
642.733	79
642.939	78
643.144	86
643.349	74
643.554	76
643.759	69
643.964	84
644.169	83
644.374	78
644.579	73
644.784	82
644.989	70
645.194	73
645.399	87
645.604	74
645.809	85
646.014	71
646.219	84
646.423	87
646.628	95
646.833	82
647.038	80
647.243	82
647.447	82
647.652	91
647.857	79
648.062	67
648.266	74
648.471	81
648.676	92
648.88	94
649.085	84
649.289	80
649.494	85
649.698	85
649.903	85
650.107	88
650.312	88
650.516	73
650.721	66
650.925	81
651.13	89
651.334	83
651.539	81
651.743	78
651.947	89
652.152	81
652.356	82
652.56	84
652.764	82
652.969	89
653.173	78
653.377	71
653.581	82
653.785	87
653.99	88
654.194	73
654.398	87
654.602	88
654.806	77
655.01	68
655.214	86
655.418	70
655.622	78
655.826	78
656.03	76
656.234	75
656.438	86
656.642	74
656.846	79
657.049	75
657.253	75
657.457	80
657.661	77
657.865	70
658.068	90
658.272	73
658.476	83
658.68	87
658.883	82
659.087	79
659.291	80
659.494	73
659.698	82
659.901	83
660.105	75
660.309	78
660.512	87
660.716	78
660.919	81
661.123	78
661.326	86
661.53	86
661.733	81
661.936	74
662.14	79
662.343	68
662.546	67
662.75	91
662.953	83
663.156	75
663.36	86
663.563	89
663.766	74
663.969	75
664.173	72
664.376	81
664.579	84
664.782	71
664.985	86
665.188	89
665.391	81
665.594	83
665.797	79
666	85
666.203	77
666.406	86
666.609	86
666.812	77
667.015	80
667.218	82
667.421	87
667.624	85
667.827	73
668.03	76
668.232	71
668.435	88
668.638	77
668.841	82
669.043	86
669.246	83
669.449	89
669.651	78
669.854	79
670.057	66
670.259	78
670.462	71
670.665	80
670.867	74
671.07	79
671.272	85
671.475	66
671.677	98
671.88	80
672.082	81
672.284	87
672.487	74
672.689	75
672.892	73
