Data from Ni(NO3)2@0.25M.TitratingCurve.Agarose3%dH2O.NegLispCup.LampEnergy10.LIBS07252019_HRD10591_18-04-43-566.txt Node
Date: Thu Jul 25 18:04:43 EDT 2019
User: cochatt
Spectrometer: HR+D1059
Trigger mode: 1
Integration Time (sec): 1.000000E-1
Scans to average: 1
Electric dark correction enabled: true
Nonlinearity correction enabled: false
Boxcar width: 0
XAxis mode: Wavelengths
Number of Pixels in Spectrum: 2048
>>>>>Begin Spectral Data<<<<<
223.165	-32
223.4	-32
223.635	-32
223.869	-10
224.104	-17
224.338	-11
224.573	-17
224.808	-12
225.042	-8
225.277	-7
225.511	-4
225.746	9
225.98	12
226.215	4
226.449	18
226.683	14
226.918	21
227.152	40
227.387	37
227.621	28
227.856	41
228.09	54
228.324	30
228.559	51
228.793	86
229.027	127
229.262	135
229.496	136
229.73	136
229.964	135
230.199	148
230.433	158
230.667	165
230.901	161
231.136	153
231.37	176
231.604	158
231.838	178
232.072	155
232.306	156
232.541	163
232.775	177
233.009	173
233.243	170
233.477	164
233.711	161
233.945	176
234.179	173
234.413	185
234.647	183
234.881	184
235.115	183
235.349	183
235.583	178
235.817	177
236.051	174
236.285	173
236.519	192
236.753	180
236.987	196
237.221	197
237.455	179
237.689	190
237.922	191
238.156	187
238.39	193
238.624	196
238.858	181
239.091	187
239.325	206
239.559	209
239.793	232
240.027	213
240.26	231
240.494	213
240.728	216
240.961	229
241.195	235
241.429	230
241.662	230
241.896	223
242.13	221
242.363	225
242.597	233
242.83	230
243.064	235
243.298	250
243.531	244
243.765	250
243.998	250
244.232	269
244.465	256
244.699	235
244.932	260
245.166	242
245.399	264
245.633	275
245.866	276
246.099	263
246.333	280
246.566	283
246.8	282
247.033	288
247.266	277
247.5	271
247.733	289
247.966	310
248.2	289
248.433	293
248.666	296
248.899	298
249.133	308
249.366	323
249.599	314
249.832	305
250.066	348
250.299	317
250.532	325
250.765	328
250.998	330
251.231	331
251.465	328
251.698	340
251.931	347
252.164	354
252.397	372
252.63	352
252.863	350
253.096	361
253.329	348
253.562	358
253.795	376
254.028	364
254.261	377
254.494	375
254.727	381
254.96	380
255.193	374
255.426	363
255.659	393
255.892	384
256.124	400
256.357	401
256.59	385
256.823	398
257.056	402
257.289	402
257.521	400
257.754	407
257.987	420
258.22	395
258.452	416
258.685	407
258.918	419
259.151	421
259.383	427
259.616	436
259.849	413
260.081	439
260.314	451
260.547	417
260.779	419
261.012	423
261.244	429
261.477	449
261.71	461
261.942	451
262.175	442
262.407	470
262.64	456
262.872	450
263.105	443
263.337	489
263.57	455
263.802	463
264.035	472
264.267	472
264.499	466
264.732	453
264.964	500
265.197	477
265.429	458
265.661	481
265.894	489
266.126	472
266.358	485
266.591	484
266.823	496
267.055	500
267.287	493
267.52	519
267.752	517
267.984	515
268.216	511
268.448	513
268.681	509
268.913	526
269.145	504
269.377	529
269.609	537
269.841	537
270.073	503
270.306	521
270.538	527
270.77	532
271.002	519
271.234	535
271.466	544
271.698	512
271.93	546
272.162	522
272.394	550
272.626	564
272.858	559
273.09	547
273.322	554
273.553	539
273.785	549
274.017	574
274.249	556
274.481	553
274.713	568
274.945	575
275.176	566
275.408	584
275.64	584
275.872	579
276.104	581
276.335	585
276.567	587
276.799	579
277.031	597
277.262	608
277.494	589
277.726	608
277.957	604
278.189	606
278.421	601
278.652	618
278.884	622
279.115	634
279.347	627
279.579	604
279.81	637
280.042	623
280.273	640
280.505	636
280.736	647
280.968	612
281.199	619
281.431	625
281.662	659
281.894	646
282.125	641
282.356	650
282.588	661
282.819	662
283.051	676
283.282	641
283.513	659
283.745	652
283.976	654
284.207	671
284.439	660
284.67	683
284.901	671
285.132	667
285.364	674
285.595	664
285.826	663
286.057	681
286.288	661
286.52	670
286.751	677
286.982	720
287.213	692
287.444	672
287.675	696
287.906	704
288.138	717
288.369	684
288.6	719
288.831	713
289.062	714
289.293	709
289.524	673
289.755	701
289.986	694
290.217	715
290.448	711
290.679	726
290.91	746
291.141	703
291.371	724
291.602	689
291.833	728
292.064	726
292.295	727
292.526	739
292.757	733
292.987	709
293.218	704
293.449	734
293.68	735
293.91	720
294.141	712
294.372	717
294.603	724
294.833	719
295.064	723
295.295	726
295.525	711
295.756	738
295.987	746
296.217	729
296.448	738
296.679	748
296.909	715
297.14	743
297.37	737
297.601	758
297.831	775
298.062	781
298.292	754
298.523	804
298.753	804
298.984	779
299.214	768
299.445	778
299.675	764
299.905	790
300.136	772
300.366	803
300.597	812
300.827	815
301.057	839
301.288	836
301.518	819
301.748	829
301.979	844
302.209	839
302.439	826
302.669	817
302.9	790
303.13	823
303.36	810
303.59	812
303.82	839
304.051	868
304.281	820
304.511	831
304.741	842
304.971	842
305.201	821
305.431	816
305.661	831
305.891	845
306.121	828
306.352	831
306.582	797
306.812	825
307.042	823
307.272	813
307.502	814
307.731	826
307.961	823
308.191	821
308.421	795
308.651	809
308.881	822
309.111	820
309.341	833
309.571	796
309.8	813
310.03	840
310.26	836
310.49	858
310.72	803
310.949	819
311.179	838
311.409	848
311.639	819
311.868	851
312.098	865
312.328	874
312.557	869
312.787	857
313.017	840
313.246	887
313.476	883
313.706	893
313.935	913
314.165	904
314.394	900
314.624	888
314.853	890
315.083	914
315.312	921
315.542	909
315.771	920
316.001	915
316.23	895
316.46	899
316.689	910
316.919	897
317.148	895
317.377	924
317.607	883
317.836	900
318.065	925
318.295	886
318.524	884
318.753	908
318.983	915
319.212	907
319.441	893
319.67	924
319.9	906
320.129	929
320.358	914
320.587	932
320.816	931
321.046	940
321.275	915
321.504	933
321.733	921
321.962	916
322.191	937
322.42	950
322.649	936
322.878	968
323.108	958
323.337	960
323.566	960
323.795	970
324.024	940
324.253	972
324.482	964
324.71	980
324.939	992
325.168	992
325.397	969
325.626	972
325.855	984
326.084	1025
326.313	1043
326.542	1049
326.77	1044
326.999	1011
327.228	1024
327.457	1042
327.686	1024
327.914	1024
328.143	1044
328.372	1028
328.6	1035
328.829	1030
329.058	1059
329.287	1055
329.515	1093
329.744	1069
329.972	1070
330.201	1068
330.43	1087
330.658	1097
330.887	1096
331.115	1120
331.344	1142
331.572	1125
331.801	1147
332.03	1187
332.258	1169
332.486	1227
332.715	1235
332.943	1250
333.172	1285
333.4	1342
333.629	1384
333.857	1385
334.085	1381
334.314	1427
334.542	1388
334.771	1404
334.999	1384
335.227	1345
335.455	1350
335.684	1374
335.912	1316
336.14	1359
336.369	1351
336.597	1354
336.825	1329
337.053	1347
337.281	1301
337.51	1262
337.738	1277
337.966	1244
338.194	1243
338.422	1229
338.65	1182
338.878	1207
339.106	1242
339.334	1215
339.562	1211
339.79	1163
340.018	1153
340.246	1169
340.474	1156
340.702	1162
340.93	1162
341.158	1165
341.386	1176
341.614	1189
341.842	1156
342.07	1131
342.298	1143
342.526	1139
342.754	1146
342.981	1160
343.209	1184
343.437	1240
343.665	1283
343.893	1349
344.12	1344
344.348	1356
344.576	1301
344.804	1329
345.031	1225
345.259	1171
345.487	1149
345.714	1176
345.942	1195
346.17	1158
346.397	1159
346.625	1115
346.853	1126
347.08	1124
347.308	1120
347.535	1115
347.763	1131
347.99	1087
348.218	1089
348.445	1082
348.673	1103
348.9	1102
349.128	1079
349.355	1085
349.583	1093
349.81	1068
350.037	1071
350.265	1100
350.492	1050
350.72	1090
350.947	1085
351.174	1073
351.402	1077
351.629	1104
351.856	1060
352.083	1085
352.311	1099
352.538	1101
352.765	1095
352.992	1067
353.22	1045
353.447	1066
353.674	1043
353.901	1023
354.128	1037
354.355	1044
354.583	1038
354.81	1052
355.037	1049
355.264	1052
355.491	1088
355.718	1087
355.945	1064
356.172	1078
356.399	1066
356.626	1083
356.853	1096
357.08	1068
357.307	1083
357.534	1080
357.761	1039
357.988	1061
358.215	1084
358.441	1092
358.668	1034
358.895	1052
359.122	1068
359.349	1074
359.576	1056
359.802	1072
360.029	1075
360.256	1053
360.483	1062
360.709	1090
360.936	1061
361.163	1107
361.39	1073
361.616	1061
361.843	1089
362.07	1100
362.296	1091
362.523	1054
362.749	1081
362.976	1061
363.203	1067
363.429	1042
363.656	1067
363.882	1066
364.109	1045
364.335	1056
364.562	1052
364.788	1034
365.015	1029
365.241	1065
365.468	1054
365.694	1037
365.92	1056
366.147	1031
366.373	1044
366.599	1049
366.826	1075
367.052	1034
367.278	1060
367.505	1045
367.731	1073
367.957	1045
368.184	1048
368.41	1047
368.636	1072
368.862	1078
369.089	1077
369.315	1079
369.541	1083
369.767	1071
369.993	1083
370.219	1089
370.445	1100
370.672	1123
370.898	1125
371.124	1140
371.35	1146
371.576	1148
371.802	1145
372.028	1117
372.254	1101
372.48	1144
372.706	1177
372.932	1142
373.158	1162
373.384	1188
373.61	1144
373.835	1106
374.061	1107
374.287	1144
374.513	1177
374.739	1188
374.965	1243
375.191	1228
375.416	1244
375.642	1225
375.868	1206
376.094	1180
376.319	1155
376.545	1142
376.771	1137
376.997	1109
377.222	1105
377.448	1143
377.674	1146
377.899	1128
378.125	1097
378.35	1106
378.576	1113
378.802	1142
379.027	1100
379.253	1130
379.478	1121
379.704	1092
379.929	1112
380.155	1120
380.38	1140
380.606	1123
380.831	1100
381.057	1137
381.282	1093
381.507	1116
381.733	1121
381.958	1138
382.184	1157
382.409	1144
382.634	1127
382.86	1162
383.085	1188
383.31	1189
383.535	1194
383.761	1210
383.986	1215
384.211	1247
384.436	1254
384.662	1271
384.887	1297
385.112	1307
385.337	1332
385.562	1320
385.787	1331
386.013	1379
386.238	1327
386.463	1343
386.688	1360
386.913	1327
387.138	1329
387.363	1314
387.588	1329
387.813	1411
388.038	1360
388.263	1329
388.488	1370
388.713	1341
388.938	1350
389.163	1337
389.387	1378
389.612	1306
389.837	1348
390.062	1321
390.287	1356
390.512	1361
390.736	1329
390.961	1394
391.186	1399
391.411	1430
391.636	1435
391.86	1448
392.085	1532
392.31	1483
392.534	1493
392.759	1444
392.984	1426
393.208	1458
393.433	1460
393.658	1421
393.882	1420
394.107	1416
394.331	1437
394.556	1446
394.78	1462
395.005	1466
395.229	1463
395.454	1485
395.678	1512
395.903	1538
396.127	1523
396.352	1480
396.576	1506
396.801	1484
397.025	1510
397.249	1548
397.474	1547
397.698	1561
397.922	1589
398.147	1579
398.371	1593
398.595	1674
398.82	1739
399.044	1820
399.268	1939
399.492	2155
399.717	2291
399.941	2329
400.165	2232
400.389	2095
400.613	1963
400.837	1869
401.062	1839
401.286	1753
401.51	1767
401.734	1723
401.958	1748
402.182	1739
402.406	1778
402.63	1760
402.854	1757
403.078	1768
403.302	1796
403.526	1804
403.75	1859
403.974	1845
404.198	1834
404.422	1815
404.645	1859
404.869	1836
405.093	1818
405.317	1835
405.541	1870
405.765	1869
405.988	1885
406.212	1899
406.436	1852
406.66	1944
406.883	1914
407.107	2035
407.331	2077
407.555	2149
407.778	2116
408.002	2079
408.226	2092
408.449	2073
408.673	1962
408.896	1960
409.12	1920
409.344	1972
409.567	1912
409.791	1934
410.014	1889
410.238	1880
410.461	1869
410.685	1863
410.908	1841
411.132	1815
411.355	1748
411.578	1786
411.802	1787
412.025	1783
412.249	1793
412.472	1825
412.695	1783
412.919	1697
413.142	1739
413.365	1747
413.589	1785
413.812	1737
414.035	1733
414.258	1712
414.482	1729
414.705	1756
414.928	1750
415.151	1699
415.374	1734
415.597	1714
415.821	1695
416.044	1675
416.267	1667
416.49	1674
416.713	1617
416.936	1619
417.159	1643
417.382	1630
417.605	1645
417.828	1680
418.051	1718
418.274	1693
418.497	1666
418.72	1699
418.943	1711
419.166	1803
419.389	1937
419.611	1937
419.834	1836
420.057	1763
420.28	1725
420.503	1672
420.726	1643
420.948	1700
421.171	1675
421.394	1726
421.617	1705
421.839	1691
422.062	1731
422.285	1664
422.507	1692
422.73	1691
422.953	1757
423.175	1753
423.398	1721
423.621	1731
423.843	1749
424.066	1740
424.288	1718
424.511	1732
424.733	1719
424.956	1704
425.178	1709
425.401	1725
425.623	1715
425.846	1666
426.068	1626
426.291	1645
426.513	1633
426.735	1574
426.958	1651
427.18	1605
427.402	1591
427.625	1586
427.847	1548
428.069	1547
428.292	1572
428.514	1526
428.736	1551
428.958	1588
429.181	1487
429.403	1520
429.625	1497
429.847	1495
430.069	1508
430.292	1519
430.514	1497
430.736	1550
430.958	1532
431.18	1554
431.402	1540
431.624	1537
431.846	1550
432.068	1573
432.29	1558
432.512	1542
432.734	1550
432.956	1546
433.178	1562
433.4	1550
433.622	1580
433.844	1594
434.066	1589
434.287	1577
434.509	1619
434.731	1633
434.953	1668
435.175	1685
435.397	1687
435.618	1632
435.84	1580
436.062	1536
436.284	1562
436.505	1547
436.727	1569
436.949	1542
437.17	1523
437.392	1526
437.614	1538
437.835	1476
438.057	1484
438.278	1465
438.5	1500
438.721	1474
438.943	1494
439.165	1510
439.386	1511
439.608	1546
439.829	1505
440.05	1557
440.272	1562
440.493	1584
440.715	1589
440.936	1616
441.158	1609
441.379	1659
441.6	1665
441.822	1706
442.043	1729
442.264	1675
442.486	1653
442.707	1672
442.928	1689
443.149	1688
443.371	1673
443.592	1662
443.813	1690
444.034	1706
444.255	1754
444.476	1848
444.698	1871
444.919	1928
445.14	1975
445.361	1857
445.582	1769
445.803	1708
446.024	1677
446.245	1652
446.466	1643
446.687	1552
446.908	1587
447.129	1501
447.35	1516
447.571	1521
447.792	1449
448.013	1488
448.234	1447
448.455	1449
448.675	1459
448.896	1386
449.117	1393
449.338	1393
449.559	1402
449.779	1383
450	1403
450.221	1398
450.442	1424
450.662	1424
450.883	1411
451.104	1438
451.324	1405
451.545	1407
451.766	1429
451.986	1395
452.207	1399
452.428	1373
452.648	1372
452.869	1331
453.089	1325
453.31	1337
453.53	1345
453.751	1330
453.971	1342
454.192	1339
454.412	1334
454.633	1320
454.853	1314
455.073	1335
455.294	1306
455.514	1288
455.734	1299
455.955	1295
456.175	1309
456.395	1258
456.616	1280
456.836	1310
457.056	1339
457.276	1307
457.497	1325
457.717	1330
457.937	1322
458.157	1317
458.377	1358
458.598	1393
458.818	1411
459.038	1452
459.258	1508
459.478	1540
459.698	1632
459.918	1629
460.138	1652
460.358	1776
460.578	1747
460.798	1747
461.018	1775
461.238	1779
461.458	1772
461.678	1765
461.898	1835
462.118	1870
462.338	1905
462.558	1972
462.777	2010
462.997	2156
463.217	2224
463.437	2230
463.657	2143
463.876	2163
464.096	2070
464.316	2055
464.536	2002
464.755	2020
464.975	1948
465.195	1829
465.414	1784
465.634	1677
465.854	1606
466.073	1578
466.293	1578
466.512	1541
466.732	1497
466.951	1500
467.171	1484
467.391	1485
467.61	1441
467.829	1489
468.049	1444
468.268	1438
468.488	1393
468.707	1426
468.927	1415
469.146	1416
469.365	1442
469.585	1441
469.804	1463
470.023	1512
470.243	1478
470.462	1483
470.681	1491
470.901	1537
471.12	1483
471.339	1509
471.558	1482
471.777	1458
471.997	1449
472.216	1421
472.435	1404
472.654	1375
472.873	1378
473.092	1366
473.311	1359
473.53	1385
473.749	1393
473.968	1391
474.187	1380
474.406	1395
474.625	1362
474.844	1377
475.063	1392
475.282	1401
475.501	1421
475.72	1387
475.939	1403
476.158	1453
476.377	1463
476.596	1452
476.814	1450
477.033	1481
477.252	1545
477.471	1524
477.69	1564
477.908	1585
478.127	1610
478.346	1643
478.564	1645
478.783	1670
479.002	1697
479.22	1747
479.439	1737
479.658	1741
479.876	1680
480.095	1760
480.313	1814
480.532	1781
480.751	1760
480.969	1748
481.188	1751
481.406	1661
481.624	1665
481.843	1654
482.061	1629
482.28	1589
482.498	1592
482.717	1572
482.935	1569
483.153	1576
483.372	1593
483.59	1606
483.808	1628
484.027	1583
484.245	1572
484.463	1565
484.681	1613
484.9	1659
485.118	1639
485.336	1607
485.554	1631
485.772	1653
485.99	1660
486.209	1683
486.427	1670
486.645	1634
486.863	1663
487.081	1642
487.299	1623
487.517	1660
487.735	1662
487.953	1647
488.171	1659
488.389	1624
488.607	1609
488.825	1635
489.043	1659
489.261	1625
489.479	1656
489.696	1624
489.914	1675
490.132	1670
490.35	1666
490.568	1685
490.786	1647
491.003	1715
491.221	1723
491.439	1713
491.657	1713
491.874	1712
492.092	1700
492.31	1730
492.527	1715
492.745	1739
492.963	1748
493.18	1746
493.398	1757
493.615	1726
493.833	1747
494.05	1766
494.268	1803
494.485	1781
494.703	1810
494.92	1828
495.138	1773
495.355	1837
495.573	1806
495.79	1823
496.008	1875
496.225	1837
496.442	1867
496.66	1912
496.877	1947
497.094	1980
497.312	2059
497.529	2072
497.746	2095
497.963	2171
498.181	2303
498.398	2367
498.615	2537
498.832	2670
499.049	2817
499.267	3040
499.484	3316
499.701	3505
499.918	3812
500.135	4123
500.352	4465
500.569	4535
500.786	4555
501.003	4316
501.22	4053
501.437	3744
501.654	3438
501.871	3188
502.088	2991
502.305	2809
502.522	2691
502.739	2588
502.956	2463
503.172	2327
503.389	2266
503.606	2201
503.823	2162
504.04	2140
504.256	2124
504.473	2103
504.69	2094
504.907	2079
505.123	1984
505.34	1901
505.557	1857
505.773	1796
505.99	1750
506.207	1691
506.423	1659
506.64	1632
506.856	1633
507.073	1602
507.289	1623
507.506	1569
507.722	1578
507.939	1560
508.155	1543
508.372	1547
508.588	1508
508.805	1473
509.021	1486
509.238	1498
509.454	1465
509.67	1476
509.887	1471
510.103	1438
510.319	1444
510.536	1457
510.752	1425
510.968	1463
511.184	1421
511.401	1410
511.617	1468
511.833	1411
512.049	1410
512.265	1443
512.481	1444
512.698	1443
512.914	1412
513.13	1419
513.346	1419
513.562	1417
513.778	1419
513.994	1450
514.21	1447
514.426	1463
514.642	1453
514.858	1497
515.074	1503
515.29	1524
515.506	1542
515.721	1571
515.937	1564
516.153	1578
516.369	1655
516.585	1669
516.801	1721
517.016	1763
517.232	1780
517.448	1815
517.664	1912
517.879	1870
518.095	1883
518.311	1856
518.527	1825
518.742	1763
518.958	1700
519.173	1651
519.389	1624
519.605	1580
519.82	1554
520.036	1536
520.251	1495
520.467	1477
520.682	1431
520.898	1400
521.113	1421
521.329	1379
521.544	1372
521.76	1371
521.975	1372
522.19	1366
522.406	1367
522.621	1312
522.836	1342
523.052	1314
523.267	1344
523.482	1325
523.698	1301
523.913	1309
524.128	1299
524.343	1302
524.559	1284
524.774	1285
524.989	1304
525.204	1324
525.419	1268
525.634	1293
525.849	1297
526.064	1259
526.28	1239
526.495	1282
526.71	1256
526.925	1263
527.14	1251
527.355	1265
527.57	1256
527.785	1238
527.999	1229
528.214	1278
528.429	1263
528.644	1253
528.859	1284
529.074	1268
529.289	1236
529.503	1259
529.718	1278
529.933	1240
530.148	1259
530.363	1255
530.577	1226
530.792	1231
531.007	1243
531.221	1268
531.436	1266
531.651	1292
531.865	1234
532.08	1233
532.295	1238
532.509	1247
532.724	1210
532.938	1267
533.153	1256
533.367	1233
533.582	1249
533.796	1275
534.011	1244
534.225	1233
534.44	1241
534.654	1243
534.868	1243
535.083	1223
535.297	1229
535.511	1168
535.726	1153
535.94	1196
536.154	1194
536.369	1193
536.583	1162
536.797	1178
537.011	1162
537.225	1168
537.44	1149
537.654	1160
537.868	1145
538.082	1111
538.296	1153
538.51	1136
538.724	1146
538.938	1151
539.153	1112
539.367	1146
539.581	1126
539.795	1171
540.009	1145
540.222	1139
540.436	1122
540.65	1105
540.864	1127
541.078	1126
541.292	1091
541.506	1147
541.72	1150
541.934	1153
542.147	1153
542.361	1163
542.575	1137
542.789	1108
543.002	1121
543.216	1131
543.43	1125
543.644	1124
543.857	1098
544.071	1126
544.285	1136
544.498	1104
544.712	1126
544.925	1161
545.139	1143
545.352	1147
545.566	1156
545.779	1120
545.993	1169
546.206	1165
546.42	1154
546.633	1178
546.847	1149
547.06	1138
547.274	1165
547.487	1179
547.7	1183
547.914	1184
548.127	1175
548.34	1153
548.554	1170
548.767	1173
548.98	1181
549.193	1159
549.407	1148
549.62	1172
549.833	1160
550.046	1183
550.259	1173
550.473	1140
550.686	1154
550.899	1151
551.112	1097
551.325	1128
551.538	1162
551.751	1139
551.964	1154
552.177	1143
552.39	1159
552.603	1176
552.816	1214
553.029	1249
553.242	1257
553.455	1227
553.667	1265
553.88	1207
554.093	1191
554.306	1201
554.519	1162
554.732	1128
554.944	1117
555.157	1108
555.37	1080
555.583	1067
555.795	1053
556.008	1020
556.221	1011
556.433	978
556.646	1012
556.859	1010
557.071	1029
557.284	993
557.496	961
557.709	979
557.921	960
558.134	951
558.346	979
558.559	1002
558.771	966
558.984	956
559.196	933
559.409	964
559.621	945
559.833	951
560.046	953
560.258	934
560.47	935
560.683	956
560.895	924
561.107	947
561.32	945
561.532	921
561.744	931
561.956	953
562.168	946
562.381	950
562.593	976
562.805	960
563.017	939
563.229	987
563.441	973
563.653	957
563.865	1001
564.077	964
564.289	994
564.501	1018
564.713	1049
564.925	1029
565.137	1039
565.349	1096
565.561	1124
565.773	1163
565.985	1237
566.197	1243
566.408	1337
566.62	1333
566.832	1445
567.044	1489
567.255	1492
567.467	1519
567.679	1565
567.891	1605
568.102	1580
568.314	1540
568.526	1461
568.737	1379
568.949	1267
569.161	1183
569.372	1136
569.584	1081
569.795	1064
570.007	1048
570.218	1018
570.43	983
570.641	965
570.853	963
571.064	969
571.276	937
571.487	927
571.698	903
571.91	913
572.121	866
572.333	875
572.544	842
572.755	842
572.966	825
573.178	800
573.389	798
573.6	788
573.811	806
574.023	811
574.234	785
574.445	759
574.656	776
574.867	749
575.078	753
575.289	768
575.501	746
575.712	731
575.923	741
576.134	737
576.345	718
576.556	722
576.767	728
576.978	730
577.188	704
577.399	708
577.61	706
577.821	726
578.032	682
578.243	698
578.454	705
578.665	691
578.875	681
579.086	660
579.297	674
579.508	663
579.718	671
579.929	647
580.14	672
580.35	672
580.561	634
580.772	667
580.982	667
581.193	650
581.403	641
581.614	632
581.825	659
582.035	653
582.246	643
582.456	636
582.667	638
582.877	625
583.087	639
583.298	621
583.508	603
583.719	630
583.929	586
584.139	607
584.35	623
584.56	634
584.77	646
584.981	633
585.191	616
585.401	601
585.611	604
585.821	583
586.032	621
586.242	603
586.452	609
586.662	607
586.872	603
587.082	602
587.292	614
587.502	594
587.713	577
587.923	617
588.133	586
588.343	609
588.553	616
588.762	599
588.972	623
589.182	655
589.392	645
589.602	607
589.812	636
590.022	628
590.232	628
590.441	632
590.651	617
590.861	619
591.071	635
591.281	616
591.49	645
591.7	667
591.91	639
592.119	649
592.329	652
592.539	675
592.748	676
592.958	689
593.167	715
593.377	722
593.587	733
593.796	724
594.006	728
594.215	728
594.424	738
594.634	701
594.843	709
595.053	673
595.262	679
595.472	627
595.681	629
595.89	614
596.1	617
596.309	599
596.518	590
596.727	560
596.937	580
597.146	553
597.355	543
597.564	541
597.774	532
597.983	543
598.192	519
598.401	536
598.61	528
598.819	511
599.028	519
599.237	502
599.446	514
599.655	489
599.864	499
600.073	525
600.282	500
600.491	495
600.7	501
600.909	498
601.118	516
601.327	484
601.536	491
601.745	507
601.953	493
602.162	467
602.371	469
602.58	475
602.789	465
602.997	492
603.206	460
603.415	477
603.623	475
603.832	479
604.041	461
604.249	475
604.458	455
604.666	445
604.875	455
605.084	477
605.292	461
605.501	472
605.709	462
605.918	468
606.126	435
606.334	445
606.543	424
606.751	462
606.96	444
607.168	431
607.376	452
607.585	434
607.793	453
608.001	444
608.21	448
608.418	447
608.626	447
608.834	444
609.043	455
609.251	435
609.459	433
609.667	446
609.875	429
610.083	431
610.291	431
610.499	451
610.707	411
610.916	413
611.124	436
611.332	415
611.54	431
611.748	421
611.955	429
612.163	431
612.371	416
612.579	406
612.787	433
612.995	433
613.203	428
613.411	424
613.618	417
613.826	413
614.034	419
614.242	407
614.449	400
614.657	416
614.865	426
615.072	410
615.28	411
615.488	412
615.695	419
615.903	433
616.111	392
616.318	403
616.526	385
616.733	417
616.941	395
617.148	418
617.356	392
617.563	401
617.771	394
617.978	410
618.185	406
618.393	418
618.6	418
618.807	408
619.015	410
619.222	412
619.429	369
619.637	401
619.844	391
620.051	396
620.258	396
620.466	375
620.673	383
620.88	368
621.087	379
621.294	378
621.501	394
621.708	366
621.915	386
622.122	391
622.329	378
622.536	371
622.743	365
622.95	367
623.157	360
623.364	382
623.571	371
623.778	373
623.985	371
624.192	364
624.399	346
624.606	364
624.812	364
625.019	348
625.226	355
625.433	358
625.639	347
625.846	360
626.053	361
626.259	336
626.466	353
626.673	330
626.879	329
627.086	346
627.293	337
627.499	326
627.706	346
627.912	352
628.119	342
628.325	333
628.532	348
628.738	325
628.945	335
629.151	319
629.357	324
629.564	346
629.77	339
629.976	340
630.183	328
630.389	314
630.595	332
630.802	333
631.008	337
631.214	318
631.42	310
631.627	329
631.833	300
632.039	312
632.245	304
632.451	317
632.657	305
632.863	305
633.069	297
633.275	307
633.481	298
633.688	306
633.893	322
634.099	319
634.305	294
634.511	300
634.717	298
634.923	284
635.129	301
635.335	280
635.541	309
635.747	290
635.952	295
636.158	319
636.364	296
636.57	284
636.775	296
636.981	289
637.187	295
637.392	296
637.598	282
637.804	287
638.009	294
638.215	276
638.421	291
638.626	281
638.832	282
639.037	291
639.243	285
639.448	268
639.654	269
639.859	264
640.065	281
640.27	280
640.475	272
640.681	277
640.886	287
641.091	260
641.297	257
641.502	263
641.707	264
641.913	267
642.118	264
642.323	281
642.528	274
642.733	265
642.939	245
643.144	264
643.349	273
643.554	261
643.759	258
643.964	258
644.169	267
644.374	259
644.579	267
644.784	260
644.989	249
645.194	243
645.399	259
645.604	258
645.809	264
646.014	270
646.219	256
646.423	273
646.628	265
646.833	249
647.038	258
647.243	264
647.447	273
647.652	269
647.857	268
648.062	273
648.266	268
648.471	258
648.676	277
648.88	268
649.085	261
649.289	249
649.494	251
649.698	262
649.903	262
650.107	233
650.312	247
650.516	228
650.721	239
650.925	236
651.13	220
651.334	211
651.539	225
651.743	231
651.947	202
652.152	229
652.356	219
652.56	215
652.764	207
652.969	198
653.173	207
653.377	216
653.581	196
653.785	182
653.99	197
654.194	201
654.398	194
654.602	181
654.806	191
655.01	177
655.214	188
655.418	173
655.622	185
655.826	168
656.03	176
656.234	178
656.438	170
656.642	165
656.846	175
657.049	178
657.253	169
657.457	165
657.661	158
657.865	156
658.068	147
658.272	153
658.476	135
658.68	130
658.883	125
659.087	129
659.291	129
659.494	120
659.698	125
659.901	104
660.105	109
660.309	107
660.512	111
660.716	111
660.919	105
661.123	96
661.326	98
661.53	100
661.733	100
661.936	90
662.14	93
662.343	79
662.546	76
662.75	84
662.953	81
663.156	82
663.36	86
663.563	93
663.766	80
663.969	75
664.173	85
664.376	93
664.579	86
664.782	78
664.985	88
665.188	80
665.391	80
665.594	74
665.797	75
666	85
666.203	81
666.406	84
666.609	84
666.812	65
667.015	66
667.218	75
667.421	78
667.624	72
667.827	94
668.03	83
668.232	81
668.435	86
668.638	74
668.841	80
669.043	86
669.246	70
669.449	76
669.651	98
669.854	78
670.057	82
670.259	78
670.462	74
670.665	70
670.867	100
671.07	68
671.272	73
671.475	83
671.677	72
671.88	68
672.082	72
672.284	83
672.487	79
672.689	80
672.892	71
