Data from Ni(NO3)2Standard.Agarose3%.GreenCap.LampEnergy5.5.E.O_HRD10591_14-41-26-189.txt Node
Date: Mon Jul 22 14:41:26 EDT 2019
User: cochatt
Spectrometer: HR+D1059
Trigger mode: 1
Integration Time (sec): 1.000000E-1
Scans to average: 1
Electric dark correction enabled: true
Nonlinearity correction enabled: false
Boxcar width: 0
XAxis mode: Wavelengths
Number of Pixels in Spectrum: 2048
>>>>>Begin Spectral Data<<<<<
223.165	-13
223.4	-13
223.635	-13
223.869	-10
224.104	-2
224.338	-10
224.573	-27
224.808	-26
225.042	-17
225.277	-4
225.511	0
225.746	6
225.98	8
226.215	10
226.449	16
226.683	23
226.918	13
227.152	33
227.387	27
227.621	41
227.856	40
228.09	48
228.324	52
228.559	52
228.793	56
229.027	60
229.262	43
229.496	54
229.73	84
229.964	69
230.199	50
230.433	60
230.667	78
230.901	79
231.136	79
231.37	84
231.604	85
231.838	65
232.072	72
232.306	77
232.541	64
232.775	84
233.009	76
233.243	74
233.477	76
233.711	70
233.945	85
234.179	87
234.413	88
234.647	72
234.881	64
235.115	80
235.349	76
235.583	82
235.817	82
236.051	92
236.285	78
236.519	76
236.753	57
236.987	71
237.221	74
237.455	64
237.689	72
237.922	68
238.156	86
238.39	83
238.624	79
238.858	87
239.091	73
239.325	68
239.559	63
239.793	72
240.027	82
240.26	63
240.494	75
240.728	75
240.961	74
241.195	84
241.429	84
241.662	65
241.896	81
242.13	71
242.363	89
242.597	62
242.83	68
243.064	71
243.298	65
243.531	74
243.765	72
243.998	82
244.232	88
244.465	61
244.699	69
244.932	83
245.166	73
245.399	94
245.633	68
245.866	91
246.099	80
246.333	71
246.566	75
246.8	81
247.033	81
247.266	71
247.5	75
247.733	70
247.966	86
248.2	57
248.433	76
248.666	72
248.899	76
249.133	74
249.366	81
249.599	79
249.832	86
250.066	83
250.299	72
250.532	76
250.765	73
250.998	73
251.231	69
251.465	64
251.698	77
251.931	74
252.164	93
252.397	84
252.63	71
252.863	79
253.096	79
253.329	86
253.562	82
253.795	84
254.028	88
254.261	79
254.494	87
254.727	82
254.96	77
255.193	71
255.426	68
255.659	81
255.892	74
256.124	78
256.357	75
256.59	74
256.823	77
257.056	85
257.289	81
257.521	72
257.754	73
257.987	83
258.22	82
258.452	73
258.685	66
258.918	74
259.151	73
259.383	85
259.616	70
259.849	70
260.081	78
260.314	81
260.547	77
260.779	79
261.012	85
261.244	73
261.477	89
261.71	86
261.942	82
262.175	79
262.407	84
262.64	72
262.872	66
263.105	88
263.337	83
263.57	84
263.802	93
264.035	74
264.267	75
264.499	77
264.732	83
264.964	67
265.197	81
265.429	87
265.661	89
265.894	90
266.126	82
266.358	75
266.591	76
266.823	65
267.055	80
267.287	79
267.52	80
267.752	75
267.984	93
268.216	91
268.448	86
268.681	70
268.913	83
269.145	80
269.377	84
269.609	94
269.841	76
270.073	80
270.306	85
270.538	73
270.77	92
271.002	69
271.234	74
271.466	69
271.698	77
271.93	74
272.162	94
272.394	72
272.626	78
272.858	81
273.09	73
273.322	83
273.553	69
273.785	78
274.017	83
274.249	94
274.481	84
274.713	85
274.945	77
275.176	82
275.408	83
275.64	92
275.872	80
276.104	79
276.335	71
276.567	76
276.799	92
277.031	80
277.262	83
277.494	72
277.726	81
277.957	65
278.189	77
278.421	69
278.652	74
278.884	79
279.115	89
279.347	73
279.579	86
279.81	94
280.042	72
280.273	100
280.505	87
280.736	79
280.968	80
281.199	77
281.431	88
281.662	81
281.894	78
282.125	78
282.356	92
282.588	86
282.819	81
283.051	87
283.282	73
283.513	76
283.745	74
283.976	79
284.207	73
284.439	72
284.67	83
284.901	90
285.132	86
285.364	93
285.595	83
285.826	75
286.057	79
286.288	84
286.52	65
286.751	74
286.982	85
287.213	82
287.444	84
287.675	82
287.906	91
288.138	78
288.369	88
288.6	89
288.831	80
289.062	72
289.293	90
289.524	72
289.755	83
289.986	85
290.217	73
290.448	81
290.679	84
290.91	100
291.141	72
291.371	74
291.602	70
291.833	93
292.064	78
292.295	73
292.526	80
292.757	68
292.987	69
293.218	90
293.449	77
293.68	70
293.91	89
294.141	79
294.372	77
294.603	74
294.833	86
295.064	83
295.295	87
295.525	89
295.756	82
295.987	76
296.217	91
296.448	81
296.679	72
296.909	78
297.14	94
297.37	86
297.601	95
297.831	85
298.062	83
298.292	75
298.523	77
298.753	77
298.984	67
299.214	76
299.445	86
299.675	82
299.905	70
300.136	75
300.366	80
300.597	91
300.827	103
301.057	83
301.288	78
301.518	76
301.748	76
301.979	88
302.209	62
302.439	81
302.669	75
302.9	81
303.13	81
303.36	64
303.59	90
303.82	81
304.051	88
304.281	88
304.511	85
304.741	85
304.971	88
305.201	86
305.431	82
305.661	82
305.891	90
306.121	95
306.352	91
306.582	84
306.812	84
307.042	90
307.272	87
307.502	80
307.731	83
307.961	86
308.191	73
308.421	76
308.651	83
308.881	85
309.111	90
309.341	87
309.571	75
309.8	89
310.03	90
310.26	91
310.49	94
310.72	92
310.949	82
311.179	86
311.409	97
311.639	93
311.868	81
312.098	81
312.328	81
312.557	83
312.787	90
313.017	83
313.246	77
313.476	78
313.706	87
313.935	79
314.165	83
314.394	77
314.624	82
314.853	83
315.083	87
315.312	81
315.542	80
315.771	91
316.001	72
316.23	79
316.46	103
316.689	95
316.919	84
317.148	90
317.377	86
317.607	75
317.836	74
318.065	90
318.295	70
318.524	79
318.753	82
318.983	96
319.212	85
319.441	89
319.67	85
319.9	77
320.129	81
320.358	75
320.587	80
320.816	79
321.046	85
321.275	88
321.504	89
321.733	78
321.962	83
322.191	89
322.42	82
322.649	84
322.878	75
323.108	89
323.337	84
323.566	86
323.795	81
324.024	74
324.253	89
324.482	92
324.71	82
324.939	89
325.168	81
325.397	72
325.626	83
325.855	80
326.084	87
326.313	67
326.542	92
326.77	80
326.999	88
327.228	77
327.457	74
327.686	73
327.914	74
328.143	85
328.372	89
328.6	76
328.829	85
329.058	84
329.287	80
329.515	81
329.744	74
329.972	75
330.201	90
330.43	82
330.658	81
330.887	81
331.115	86
331.344	93
331.572	74
331.801	95
332.03	83
332.258	77
332.486	91
332.715	85
332.943	81
333.172	87
333.4	81
333.629	96
333.857	76
334.085	73
334.314	85
334.542	85
334.771	91
334.999	92
335.227	76
335.455	87
335.684	95
335.912	88
336.14	78
336.369	75
336.597	78
336.825	80
337.053	77
337.281	79
337.51	90
337.738	67
337.966	79
338.194	78
338.422	90
338.65	86
338.878	79
339.106	88
339.334	82
339.562	71
339.79	71
340.018	68
340.246	73
340.474	78
340.702	89
340.93	87
341.158	83
341.386	83
341.614	88
341.842	76
342.07	87
342.298	81
342.526	75
342.754	72
342.981	93
343.209	87
343.437	88
343.665	81
343.893	95
344.12	73
344.348	76
344.576	95
344.804	80
345.031	87
345.259	76
345.487	82
345.714	84
345.942	82
346.17	72
346.397	86
346.625	73
346.853	77
347.08	74
347.308	80
347.535	83
347.763	94
347.99	98
348.218	85
348.445	83
348.673	77
348.9	76
349.128	81
349.355	82
349.583	89
349.81	72
350.037	68
350.265	72
350.492	81
350.72	87
350.947	82
351.174	77
351.402	97
351.629	74
351.856	89
352.083	74
352.311	82
352.538	81
352.765	77
352.992	79
353.22	82
353.447	87
353.674	95
353.901	91
354.128	80
354.355	88
354.583	89
354.81	80
355.037	93
355.264	69
355.491	68
355.718	74
355.945	80
356.172	82
356.399	73
356.626	104
356.853	69
357.08	80
357.307	92
357.534	99
357.761	80
357.988	85
358.215	87
358.441	99
358.668	81
358.895	93
359.122	79
359.349	74
359.576	90
359.802	77
360.029	74
360.256	76
360.483	83
360.709	71
360.936	74
361.163	72
361.39	73
361.616	82
361.843	86
362.07	69
362.296	78
362.523	85
362.749	75
362.976	83
363.203	85
363.429	77
363.656	78
363.882	77
364.109	92
364.335	68
364.562	77
364.788	77
365.015	80
365.241	79
365.468	80
365.694	79
365.92	76
366.147	73
366.373	83
366.599	70
366.826	92
367.052	83
367.278	84
367.505	80
367.731	83
367.957	76
368.184	70
368.41	76
368.636	72
368.862	74
369.089	74
369.315	77
369.541	80
369.767	85
369.993	72
370.219	73
370.445	96
370.672	85
370.898	77
371.124	81
371.35	74
371.576	65
371.802	85
372.028	90
372.254	77
372.48	79
372.706	86
372.932	80
373.158	89
373.384	90
373.61	84
373.835	93
374.061	80
374.287	83
374.513	83
374.739	86
374.965	72
375.191	86
375.416	84
375.642	75
375.868	83
376.094	76
376.319	81
376.545	63
376.771	80
376.997	75
377.222	80
377.448	89
377.674	88
377.899	80
378.125	76
378.35	70
378.576	67
378.802	82
379.027	81
379.253	92
379.478	74
379.704	88
379.929	74
380.155	70
380.38	91
380.606	87
380.831	76
381.057	92
381.282	77
381.507	89
381.733	72
381.958	81
382.184	74
382.409	84
382.634	84
382.86	86
383.085	77
383.31	97
383.535	81
383.761	83
383.986	82
384.211	87
384.436	89
384.662	79
384.887	90
385.112	84
385.337	101
385.562	80
385.787	70
386.013	84
386.238	75
386.463	83
386.688	85
386.913	65
387.138	82
387.363	78
387.588	70
387.813	77
388.038	78
388.263	66
388.488	80
388.713	84
388.938	81
389.163	92
389.387	79
389.612	64
389.837	79
390.062	89
390.287	80
390.512	77
390.736	64
390.961	74
391.186	81
391.411	86
391.636	73
391.86	81
392.085	86
392.31	65
392.534	67
392.759	96
392.984	90
393.208	78
393.433	80
393.658	87
393.882	90
394.107	87
394.331	61
394.556	83
394.78	81
395.005	83
395.229	74
395.454	75
395.678	86
395.903	82
396.127	81
396.352	79
396.576	76
396.801	77
397.025	83
397.249	87
397.474	77
397.698	87
397.922	78
398.147	67
398.371	58
398.595	72
398.82	75
399.044	90
399.268	73
399.492	68
399.717	64
399.941	81
400.165	85
400.389	78
400.613	81
400.837	80
401.062	96
401.286	72
401.51	84
401.734	84
401.958	90
402.182	73
402.406	83
402.63	76
402.854	68
403.078	87
403.302	79
403.526	71
403.75	74
403.974	60
404.198	82
404.422	92
404.645	84
404.869	86
405.093	80
405.317	90
405.541	84
405.765	72
405.988	69
406.212	83
406.436	95
406.66	93
406.883	94
407.107	71
407.331	81
407.555	93
407.778	72
408.002	86
408.226	74
408.449	85
408.673	97
408.896	66
409.12	88
409.344	82
409.567	85
409.791	85
410.014	81
410.238	87
410.461	87
410.685	93
410.908	77
411.132	93
411.355	85
411.578	90
411.802	84
412.025	80
412.249	72
412.472	80
412.695	74
412.919	83
413.142	81
413.365	82
413.589	85
413.812	79
414.035	68
414.258	81
414.482	82
414.705	83
414.928	74
415.151	102
415.374	81
415.597	81
415.821	84
416.044	82
416.267	89
416.49	99
416.713	79
416.936	81
417.159	78
417.382	84
417.605	67
417.828	84
418.051	92
418.274	86
418.497	76
418.72	81
418.943	75
419.166	75
419.389	70
419.611	76
419.834	80
420.057	73
420.28	75
420.503	87
420.726	71
420.948	81
421.171	76
421.394	83
421.617	83
421.839	76
422.062	88
422.285	77
422.507	80
422.73	87
422.953	75
423.175	71
423.398	71
423.621	77
423.843	92
424.066	84
424.288	66
424.511	99
424.733	69
424.956	66
425.178	77
425.401	93
425.623	77
425.846	93
426.068	101
426.291	85
426.513	72
426.735	80
426.958	71
427.18	66
427.402	73
427.625	78
427.847	81
428.069	96
428.292	77
428.514	71
428.736	84
428.958	66
429.181	83
429.403	84
429.625	80
429.847	66
430.069	76
430.292	74
430.514	89
430.736	75
430.958	85
431.18	77
431.402	81
431.624	60
431.846	80
432.068	74
432.29	80
432.512	87
432.734	72
432.956	92
433.178	80
433.4	82
433.622	85
433.844	79
434.066	84
434.287	65
434.509	77
434.731	66
434.953	87
435.175	74
435.397	85
435.618	65
435.84	78
436.062	88
436.284	78
436.505	72
436.727	73
436.949	82
437.17	77
437.392	78
437.614	68
437.835	81
438.057	79
438.278	79
438.5	82
438.721	77
438.943	75
439.165	72
439.386	72
439.608	83
439.829	69
440.05	89
440.272	63
440.493	77
440.715	86
440.936	84
441.158	75
441.379	80
441.6	83
441.822	101
442.043	94
442.264	90
442.486	64
442.707	70
442.928	81
443.149	75
443.371	97
443.592	90
443.813	79
444.034	82
444.255	90
444.476	95
444.698	78
444.919	92
445.14	178
445.361	142
445.582	79
445.803	73
446.024	79
446.245	90
446.466	79
446.687	91
446.908	84
447.129	89
447.35	82
447.571	92
447.792	88
448.013	70
448.234	70
448.455	79
448.675	79
448.896	83
449.117	71
449.338	81
449.559	74
449.779	69
450	77
450.221	55
450.442	74
450.662	72
450.883	87
451.104	82
451.324	76
451.545	77
451.766	86
451.986	69
452.207	74
452.428	89
452.648	89
452.869	80
453.089	76
453.31	73
453.53	82
453.751	86
453.971	81
454.192	84
454.412	84
454.633	88
454.853	91
455.073	80
455.294	72
455.514	72
455.734	83
455.955	80
456.175	90
456.395	90
456.616	88
456.836	82
457.056	79
457.276	78
457.497	82
457.717	91
457.937	76
458.157	73
458.377	88
458.598	72
458.818	77
459.038	94
459.258	74
459.478	93
459.698	88
459.918	96
460.138	78
460.358	82
460.578	93
460.798	94
461.018	72
461.238	82
461.458	75
461.678	84
461.898	95
462.118	79
462.338	82
462.558	89
462.777	73
462.997	79
463.217	74
463.437	87
463.657	79
463.876	95
464.096	77
464.316	80
464.536	89
464.755	74
464.975	83
465.195	80
465.414	80
465.634	86
465.854	96
466.073	81
466.293	83
466.512	85
466.732	95
466.951	82
467.171	87
467.391	76
467.61	86
467.829	88
468.049	89
468.268	78
468.488	80
468.707	69
468.927	73
469.146	94
469.365	83
469.585	82
469.804	84
470.023	74
470.243	85
470.462	77
470.681	76
470.901	90
471.12	80
471.339	85
471.558	69
471.777	90
471.997	69
472.216	84
472.435	97
472.654	71
472.873	80
473.092	83
473.311	62
473.53	78
473.749	92
473.968	99
474.187	86
474.406	83
474.625	91
474.844	88
475.063	81
475.282	82
475.501	82
475.72	80
475.939	85
476.158	85
476.377	72
476.596	83
476.814	81
477.033	90
477.252	92
477.471	102
477.69	86
477.908	80
478.127	79
478.346	89
478.564	89
478.783	77
479.002	86
479.22	105
479.439	89
479.658	94
479.876	97
480.095	72
480.313	86
480.532	88
480.751	78
480.969	77
481.188	90
481.406	99
481.624	95
481.843	93
482.061	77
482.28	85
482.498	94
482.717	82
482.935	75
483.153	96
483.372	93
483.59	79
483.808	86
484.027	77
484.245	90
484.463	87
484.681	88
484.9	86
485.118	99
485.336	86
485.554	92
485.772	94
485.99	75
486.209	77
486.427	82
486.645	85
486.863	97
487.081	83
487.299	98
487.517	87
487.735	84
487.953	84
488.171	79
488.389	84
488.607	78
488.825	83
489.043	80
489.261	86
489.479	91
489.696	106
489.914	93
490.132	85
490.35	92
490.568	81
490.786	88
491.003	87
491.221	91
491.439	77
491.657	89
491.874	88
492.092	98
492.31	94
492.527	102
492.745	85
492.963	104
493.18	95
493.398	95
493.615	92
493.833	84
494.05	84
494.268	83
494.485	85
494.703	102
494.92	91
495.138	90
495.355	95
495.573	93
495.79	90
496.008	91
496.225	78
496.442	94
496.66	89
496.877	111
497.094	94
497.312	108
497.529	89
497.746	96
497.963	103
498.181	91
498.398	82
498.615	96
498.832	105
499.049	105
499.267	112
499.484	81
499.701	90
499.918	100
500.135	104
500.352	113
500.569	120
500.786	121
501.003	97
501.22	105
501.437	98
501.654	99
501.871	92
502.088	85
502.305	95
502.522	68
502.739	97
502.956	98
503.172	88
503.389	89
503.606	92
503.823	84
504.04	91
504.256	96
504.473	98
504.69	98
504.907	88
505.123	76
505.34	84
505.557	88
505.773	89
505.99	98
506.207	89
506.423	97
506.64	94
506.856	94
507.073	85
507.289	94
507.506	79
507.722	85
507.939	82
508.155	88
508.372	89
508.588	88
508.805	87
509.021	90
509.238	86
509.454	89
509.67	78
509.887	95
510.103	98
510.319	89
510.536	85
510.752	80
510.968	92
511.184	85
511.401	85
511.617	100
511.833	89
512.049	85
512.265	89
512.481	83
512.698	86
512.914	83
513.13	89
513.346	89
513.562	75
513.778	87
513.994	91
514.21	80
514.426	96
514.642	89
514.858	85
515.074	86
515.29	89
515.506	81
515.721	81
515.937	102
516.153	92
516.369	79
516.585	93
516.801	73
517.016	83
517.232	96
517.448	85
517.664	84
517.879	86
518.095	81
518.311	83
518.527	92
518.742	90
518.958	83
519.173	96
519.389	80
519.605	91
519.82	93
520.036	70
520.251	82
520.467	91
520.682	84
520.898	82
521.113	96
521.329	82
521.544	87
521.76	96
521.975	92
522.19	89
522.406	93
522.621	73
522.836	81
523.052	85
523.267	86
523.482	101
523.698	87
523.913	101
524.128	94
524.343	89
524.559	93
524.774	90
524.989	88
525.204	87
525.419	87
525.634	83
525.849	81
526.064	81
526.28	86
526.495	99
526.71	80
526.925	98
527.14	78
527.355	80
527.57	87
527.785	95
527.999	84
528.214	93
528.429	90
528.644	84
528.859	85
529.074	98
529.289	105
529.503	93
529.718	87
529.933	97
530.148	99
530.363	88
530.577	79
530.792	93
531.007	89
531.221	74
531.436	71
531.651	80
531.865	84
532.08	87
532.295	88
532.509	87
532.724	94
532.938	89
533.153	68
533.367	96
533.582	89
533.796	90
534.011	88
534.225	88
534.44	106
534.654	87
534.868	81
535.083	91
535.297	88
535.511	70
535.726	80
535.94	87
536.154	85
536.369	89
536.583	96
536.797	95
537.011	82
537.225	82
537.44	75
537.654	89
537.868	84
538.082	81
538.296	59
538.51	86
538.724	97
538.938	90
539.153	97
539.367	97
539.581	82
539.795	96
540.009	89
540.222	75
540.436	81
540.65	79
540.864	81
541.078	94
541.292	97
541.506	118
541.72	92
541.934	86
542.147	75
542.361	80
542.575	97
542.789	84
543.002	78
543.216	105
543.43	79
543.644	92
543.857	103
544.071	87
544.285	90
544.498	98
544.712	89
544.925	73
545.139	69
545.352	88
545.566	81
545.779	89
545.993	80
546.206	79
546.42	95
546.633	81
546.847	87
547.06	95
547.274	81
547.487	73
547.7	82
547.914	85
548.127	85
548.34	87
548.554	86
548.767	86
548.98	77
549.193	80
549.407	72
549.62	83
549.833	89
550.046	72
550.259	98
550.473	75
550.686	93
550.899	74
551.112	90
551.325	84
551.538	78
551.751	87
551.964	97
552.177	103
552.39	86
552.603	96
552.816	88
553.029	100
553.242	75
553.455	85
553.667	93
553.88	94
554.093	78
554.306	90
554.519	98
554.732	92
554.944	94
555.157	84
555.37	78
555.583	92
555.795	89
556.008	93
556.221	106
556.433	83
556.646	84
556.859	86
557.071	89
557.284	92
557.496	87
557.709	89
557.921	93
558.134	100
558.346	89
558.559	89
558.771	70
558.984	84
559.196	81
559.409	91
559.621	84
559.833	80
560.046	97
560.258	86
560.47	86
560.683	86
560.895	88
561.107	81
561.32	80
561.532	78
561.744	84
561.956	101
562.168	97
562.381	101
562.593	82
562.805	68
563.017	89
563.229	76
563.441	75
563.653	72
563.865	83
564.077	80
564.289	90
564.501	68
564.713	70
564.925	86
565.137	81
565.349	81
565.561	93
565.773	90
565.985	92
566.197	80
566.408	85
566.62	96
566.832	92
567.044	90
567.255	84
567.467	83
567.679	90
567.891	76
568.102	82
568.314	80
568.526	95
568.737	82
568.949	86
569.161	77
569.372	81
569.584	93
569.795	82
570.007	95
570.218	85
570.43	77
570.641	82
570.853	85
571.064	84
571.276	77
571.487	82
571.698	84
571.91	99
572.121	85
572.333	78
572.544	82
572.755	103
572.966	80
573.178	80
573.389	89
573.6	77
573.811	72
574.023	84
574.234	76
574.445	74
574.656	88
574.867	88
575.078	98
575.289	85
575.501	96
575.712	88
575.923	85
576.134	89
576.345	84
576.556	90
576.767	80
576.978	88
577.188	80
577.399	100
577.61	83
577.821	83
578.032	88
578.243	85
578.454	91
578.665	84
578.875	80
579.086	90
579.297	93
579.508	81
579.718	78
579.929	81
580.14	93
580.35	84
580.561	81
580.772	81
580.982	88
581.193	74
581.403	98
581.614	84
581.825	85
582.035	75
582.246	82
582.456	87
582.667	75
582.877	66
583.087	76
583.298	92
583.508	83
583.719	77
583.929	68
584.139	68
584.35	63
584.56	84
584.77	80
584.981	72
585.191	86
585.401	82
585.611	74
585.821	90
586.032	84
586.242	75
586.452	79
586.662	75
586.872	81
587.082	66
587.292	79
587.502	74
587.713	89
587.923	85
588.133	86
588.343	85
588.553	85
588.762	103
588.972	104
589.182	80
589.392	78
589.602	89
589.812	95
590.022	80
590.232	83
590.441	82
590.651	79
590.861	85
591.071	86
591.281	93
591.49	81
591.7	73
591.91	91
592.119	67
592.329	71
592.539	87
592.748	85
592.958	81
593.167	86
593.377	87
593.587	90
593.796	81
594.006	93
594.215	81
594.424	80
594.634	88
594.843	82
595.053	84
595.262	84
595.472	91
595.681	84
595.89	81
596.1	96
596.309	78
596.518	87
596.727	91
596.937	69
597.146	93
597.355	97
597.564	82
597.774	83
597.983	75
598.192	83
598.401	70
598.61	83
598.819	81
599.028	78
599.237	88
599.446	86
599.655	79
599.864	84
600.073	77
600.282	77
600.491	77
600.7	85
600.909	86
601.118	97
601.327	93
601.536	80
601.745	74
601.953	76
602.162	74
602.371	86
602.58	105
602.789	78
602.997	81
603.206	98
603.415	80
603.623	81
603.832	83
604.041	92
604.249	86
604.458	88
604.666	78
604.875	83
605.084	95
605.292	80
605.501	84
605.709	89
605.918	87
606.126	87
606.334	90
606.543	79
606.751	89
606.96	95
607.168	78
607.376	80
607.585	80
607.793	83
608.001	86
608.21	86
608.418	83
608.626	71
608.834	80
609.043	91
609.251	79
609.459	80
609.667	84
609.875	71
610.083	87
610.291	77
610.499	97
610.707	87
610.916	70
611.124	90
611.332	88
611.54	76
611.748	97
611.955	82
612.163	85
612.371	90
612.579	85
612.787	76
612.995	90
613.203	85
613.411	70
613.618	83
613.826	74
614.034	88
614.242	82
614.449	92
614.657	78
614.865	77
615.072	74
615.28	81
615.488	80
615.695	89
615.903	92
616.111	79
616.318	88
616.526	66
616.733	87
616.941	88
617.148	91
617.356	90
617.563	86
617.771	87
617.978	67
618.185	77
618.393	91
618.6	78
618.807	81
619.015	91
619.222	72
619.429	78
619.637	86
619.844	76
620.051	77
620.258	77
620.466	94
620.673	87
620.88	70
621.087	89
621.294	86
621.501	84
621.708	78
621.915	88
622.122	80
622.329	74
622.536	75
622.743	84
622.95	79
623.157	90
623.364	70
623.571	79
623.778	79
623.985	96
624.192	73
624.399	73
624.606	80
624.812	85
625.019	89
625.226	91
625.433	68
625.639	84
625.846	88
626.053	66
626.259	85
626.466	82
626.673	84
626.879	87
627.086	89
627.293	72
627.499	73
627.706	76
627.912	81
628.119	79
628.325	96
628.532	74
628.738	92
628.945	81
629.151	79
629.357	81
629.564	88
629.77	89
629.976	74
630.183	82
630.389	78
630.595	78
630.802	92
631.008	87
631.214	73
631.42	83
631.627	67
631.833	90
632.039	86
632.245	67
632.451	86
632.657	79
632.863	85
633.069	80
633.275	82
633.481	69
633.688	82
633.893	64
634.099	69
634.305	90
634.511	92
634.717	88
634.923	80
635.129	81
635.335	77
635.541	77
635.747	77
635.952	84
636.158	96
636.364	82
636.57	76
636.775	71
636.981	74
637.187	86
637.392	81
637.598	77
637.804	76
638.009	85
638.215	84
638.421	85
638.626	90
638.832	88
639.037	84
639.243	74
639.448	77
639.654	86
639.859	81
640.065	66
640.27	79
640.475	72
640.681	81
640.886	91
641.091	91
641.297	79
641.502	76
641.707	75
641.913	77
642.118	77
642.323	94
642.528	81
642.733	72
642.939	88
643.144	83
643.349	75
643.554	83
643.759	79
643.964	80
644.169	76
644.374	84
644.579	94
644.784	76
644.989	76
645.194	78
645.399	79
645.604	58
645.809	66
646.014	86
646.219	85
646.423	89
646.628	87
646.833	86
647.038	85
647.243	68
647.447	84
647.652	69
647.857	69
648.062	87
648.266	87
648.471	87
648.676	80
648.88	71
649.085	88
649.289	87
649.494	81
649.698	75
649.903	84
650.107	84
650.312	88
650.516	74
650.721	69
650.925	82
651.13	85
651.334	90
651.539	85
651.743	81
651.947	74
652.152	72
652.356	78
652.56	82
652.764	81
652.969	84
653.173	70
653.377	71
653.581	71
653.785	73
653.99	70
654.194	74
654.398	75
654.602	70
654.806	90
655.01	76
655.214	85
655.418	85
655.622	80
655.826	82
656.03	69
656.234	83
656.438	78
656.642	81
656.846	87
657.049	92
657.253	80
657.457	78
657.661	84
657.865	80
658.068	75
658.272	74
658.476	82
658.68	71
658.883	78
659.087	80
659.291	72
659.494	63
659.698	80
659.901	84
660.105	85
660.309	84
660.512	84
660.716	83
660.919	82
661.123	95
661.326	86
661.53	71
661.733	79
661.936	82
662.14	72
662.343	87
662.546	88
662.75	83
662.953	83
663.156	72
663.36	74
663.563	88
663.766	83
663.969	87
664.173	79
664.376	62
664.579	79
664.782	86
664.985	85
665.188	74
665.391	75
665.594	81
665.797	78
666	73
666.203	74
666.406	73
666.609	64
666.812	102
667.015	79
667.218	87
667.421	78
667.624	74
667.827	88
668.03	65
668.232	77
668.435	90
668.638	91
668.841	85
669.043	68
669.246	68
669.449	69
669.651	72
669.854	85
670.057	73
670.259	83
670.462	81
670.665	75
670.867	81
671.07	69
671.272	78
671.475	84
671.677	69
671.88	79
672.082	81
672.284	76
672.487	79
672.689	79
672.892	73
