Data from Ni(NO3)2Standard.Agarose3%.GreenCap.LampEnergy5.5.E.O_HRD10591_14-40-26-188.txt Node
Date: Mon Jul 22 14:40:26 EDT 2019
User: cochatt
Spectrometer: HR+D1059
Trigger mode: 1
Integration Time (sec): 1.000000E-1
Scans to average: 1
Electric dark correction enabled: true
Nonlinearity correction enabled: false
Boxcar width: 0
XAxis mode: Wavelengths
Number of Pixels in Spectrum: 2048
>>>>>Begin Spectral Data<<<<<
223.165	-23
223.4	-23
223.635	-23
223.869	-23
224.104	-23
224.338	-3
224.573	-18
224.808	-5
225.042	-2
225.277	-14
225.511	-8
225.746	8
225.98	11
226.215	21
226.449	13
226.683	21
226.918	14
227.152	31
227.387	26
227.621	31
227.856	36
228.09	52
228.324	46
228.559	40
228.793	58
229.027	65
229.262	66
229.496	72
229.73	65
229.964	75
230.199	82
230.433	69
230.667	68
230.901	75
231.136	76
231.37	73
231.604	74
231.838	78
232.072	79
232.306	70
232.541	78
232.775	72
233.009	90
233.243	76
233.477	93
233.711	74
233.945	82
234.179	71
234.413	79
234.647	82
234.881	90
235.115	79
235.349	84
235.583	71
235.817	77
236.051	84
236.285	94
236.519	86
236.753	72
236.987	74
237.221	77
237.455	78
237.689	78
237.922	68
238.156	71
238.39	71
238.624	83
238.858	69
239.091	63
239.325	69
239.559	68
239.793	76
240.027	72
240.26	71
240.494	71
240.728	75
240.961	70
241.195	76
241.429	89
241.662	78
241.896	76
242.13	74
242.363	60
242.597	79
242.83	77
243.064	64
243.298	83
243.531	78
243.765	78
243.998	74
244.232	83
244.465	77
244.699	80
244.932	79
245.166	74
245.399	76
245.633	72
245.866	77
246.099	81
246.333	82
246.566	74
246.8	78
247.033	80
247.266	77
247.5	76
247.733	74
247.966	73
248.2	80
248.433	77
248.666	71
248.899	79
249.133	78
249.366	97
249.599	83
249.832	72
250.066	57
250.299	70
250.532	80
250.765	74
250.998	86
251.231	71
251.465	79
251.698	68
251.931	82
252.164	85
252.397	74
252.63	81
252.863	74
253.096	80
253.329	76
253.562	80
253.795	74
254.028	88
254.261	61
254.494	61
254.727	79
254.96	70
255.193	83
255.426	77
255.659	76
255.892	76
256.124	76
256.357	72
256.59	63
256.823	72
257.056	73
257.289	72
257.521	81
257.754	75
257.987	90
258.22	79
258.452	85
258.685	82
258.918	67
259.151	79
259.383	75
259.616	89
259.849	85
260.081	65
260.314	78
260.547	72
260.779	66
261.012	82
261.244	83
261.477	92
261.71	92
261.942	74
262.175	85
262.407	69
262.64	82
262.872	81
263.105	89
263.337	79
263.57	82
263.802	76
264.035	91
264.267	80
264.499	71
264.732	76
264.964	78
265.197	72
265.429	94
265.661	71
265.894	80
266.126	83
266.358	71
266.591	76
266.823	82
267.055	78
267.287	71
267.52	67
267.752	87
267.984	77
268.216	91
268.448	75
268.681	81
268.913	80
269.145	96
269.377	81
269.609	84
269.841	74
270.073	85
270.306	88
270.538	86
270.77	68
271.002	84
271.234	77
271.466	82
271.698	75
271.93	91
272.162	77
272.394	61
272.626	81
272.858	61
273.09	83
273.322	86
273.553	59
273.785	86
274.017	78
274.249	71
274.481	78
274.713	83
274.945	83
275.176	91
275.408	88
275.64	78
275.872	74
276.104	89
276.335	87
276.567	76
276.799	85
277.031	88
277.262	64
277.494	78
277.726	88
277.957	96
278.189	86
278.421	83
278.652	84
278.884	88
279.115	70
279.347	86
279.579	74
279.81	86
280.042	94
280.273	84
280.505	75
280.736	84
280.968	73
281.199	75
281.431	76
281.662	80
281.894	90
282.125	77
282.356	85
282.588	77
282.819	74
283.051	77
283.282	83
283.513	76
283.745	84
283.976	86
284.207	102
284.439	75
284.67	79
284.901	85
285.132	76
285.364	69
285.595	87
285.826	85
286.057	97
286.288	93
286.52	80
286.751	70
286.982	79
287.213	85
287.444	94
287.675	74
287.906	78
288.138	78
288.369	76
288.6	85
288.831	96
289.062	79
289.293	84
289.524	85
289.755	72
289.986	89
290.217	87
290.448	84
290.679	90
290.91	96
291.141	73
291.371	76
291.602	81
291.833	93
292.064	73
292.295	86
292.526	86
292.757	82
292.987	98
293.218	77
293.449	91
293.68	83
293.91	79
294.141	70
294.372	88
294.603	85
294.833	76
295.064	87
295.295	87
295.525	89
295.756	75
295.987	71
296.217	79
296.448	82
296.679	88
296.909	76
297.14	80
297.37	80
297.601	68
297.831	71
298.062	78
298.292	70
298.523	75
298.753	92
298.984	83
299.214	87
299.445	86
299.675	80
299.905	88
300.136	94
300.366	79
300.597	76
300.827	88
301.057	80
301.288	87
301.518	69
301.748	92
301.979	84
302.209	82
302.439	78
302.669	82
302.9	84
303.13	100
303.36	80
303.59	85
303.82	89
304.051	90
304.281	84
304.511	84
304.741	99
304.971	71
305.201	91
305.431	78
305.661	82
305.891	99
306.121	84
306.352	84
306.582	76
306.812	82
307.042	74
307.272	90
307.502	76
307.731	68
307.961	54
308.191	79
308.421	65
308.651	88
308.881	88
309.111	81
309.341	85
309.571	80
309.8	91
310.03	85
310.26	91
310.49	73
310.72	81
310.949	94
311.179	85
311.409	88
311.639	85
311.868	83
312.098	85
312.328	90
312.557	95
312.787	82
313.017	84
313.246	95
313.476	88
313.706	83
313.935	85
314.165	90
314.394	81
314.624	82
314.853	70
315.083	90
315.312	81
315.542	78
315.771	90
316.001	68
316.23	82
316.46	76
316.689	76
316.919	88
317.148	90
317.377	85
317.607	77
317.836	83
318.065	89
318.295	87
318.524	92
318.753	95
318.983	95
319.212	86
319.441	80
319.67	81
319.9	88
320.129	69
320.358	75
320.587	80
320.816	96
321.046	87
321.275	72
321.504	64
321.733	88
321.962	84
322.191	85
322.42	86
322.649	86
322.878	88
323.108	80
323.337	77
323.566	95
323.795	74
324.024	88
324.253	56
324.482	92
324.71	91
324.939	79
325.168	85
325.397	88
325.626	72
325.855	80
326.084	82
326.313	96
326.542	84
326.77	78
326.999	88
327.228	83
327.457	72
327.686	96
327.914	85
328.143	82
328.372	76
328.6	73
328.829	86
329.058	76
329.287	79
329.515	68
329.744	94
329.972	77
330.201	74
330.43	98
330.658	90
330.887	88
331.115	90
331.344	76
331.572	86
331.801	88
332.03	91
332.258	98
332.486	74
332.715	82
332.943	81
333.172	86
333.4	99
333.629	82
333.857	96
334.085	87
334.314	84
334.542	82
334.771	84
334.999	89
335.227	77
335.455	78
335.684	86
335.912	86
336.14	79
336.369	77
336.597	91
336.825	58
337.053	80
337.281	88
337.51	91
337.738	99
337.966	74
338.194	75
338.422	80
338.65	92
338.878	95
339.106	95
339.334	103
339.562	81
339.79	84
340.018	88
340.246	93
340.474	82
340.702	56
340.93	89
341.158	88
341.386	99
341.614	82
341.842	84
342.07	85
342.298	82
342.526	68
342.754	71
342.981	90
343.209	87
343.437	88
343.665	74
343.893	78
344.12	85
344.348	98
344.576	94
344.804	85
345.031	68
345.259	88
345.487	92
345.714	83
345.942	97
346.17	90
346.397	94
346.625	87
346.853	89
347.08	66
347.308	98
347.535	87
347.763	75
347.99	98
348.218	74
348.445	77
348.673	82
348.9	86
349.128	82
349.355	88
349.583	85
349.81	94
350.037	97
350.265	73
350.492	91
350.72	85
350.947	79
351.174	90
351.402	86
351.629	78
351.856	77
352.083	89
352.311	82
352.538	83
352.765	91
352.992	89
353.22	90
353.447	87
353.674	85
353.901	91
354.128	96
354.355	82
354.583	83
354.81	95
355.037	90
355.264	93
355.491	83
355.718	70
355.945	89
356.172	78
356.399	104
356.626	88
356.853	84
357.08	90
357.307	79
357.534	84
357.761	92
357.988	95
358.215	76
358.441	88
358.668	62
358.895	84
359.122	81
359.349	78
359.576	86
359.802	91
360.029	84
360.256	90
360.483	96
360.709	84
360.936	76
361.163	76
361.39	83
361.616	87
361.843	87
362.07	91
362.296	73
362.523	72
362.749	72
362.976	88
363.203	92
363.429	76
363.656	83
363.882	76
364.109	79
364.335	99
364.562	84
364.788	98
365.015	70
365.241	86
365.468	86
365.694	83
365.92	100
366.147	76
366.373	80
366.599	84
366.826	72
367.052	77
367.278	80
367.505	91
367.731	82
367.957	97
368.184	91
368.41	80
368.636	82
368.862	87
369.089	82
369.315	100
369.541	80
369.767	80
369.993	83
370.219	90
370.445	90
370.672	88
370.898	86
371.124	77
371.35	91
371.576	91
371.802	83
372.028	73
372.254	81
372.48	78
372.706	87
372.932	71
373.158	87
373.384	84
373.61	84
373.835	87
374.061	91
374.287	72
374.513	86
374.739	70
374.965	73
375.191	73
375.416	91
375.642	86
375.868	77
376.094	88
376.319	78
376.545	92
376.771	86
376.997	89
377.222	85
377.448	96
377.674	86
377.899	80
378.125	76
378.35	75
378.576	100
378.802	81
379.027	83
379.253	82
379.478	90
379.704	81
379.929	79
380.155	85
380.38	88
380.606	71
380.831	83
381.057	91
381.282	85
381.507	87
381.733	86
381.958	89
382.184	84
382.409	85
382.634	82
382.86	75
383.085	88
383.31	90
383.535	70
383.761	94
383.986	86
384.211	71
384.436	78
384.662	78
384.887	84
385.112	76
385.337	83
385.562	75
385.787	96
386.013	85
386.238	97
386.463	73
386.688	86
386.913	83
387.138	73
387.363	77
387.588	99
387.813	81
388.038	90
388.263	88
388.488	89
388.713	72
388.938	87
389.163	82
389.387	81
389.612	84
389.837	73
390.062	81
390.287	80
390.512	78
390.736	87
390.961	78
391.186	90
391.411	88
391.636	81
391.86	89
392.085	79
392.31	85
392.534	74
392.759	78
392.984	81
393.208	89
393.433	77
393.658	81
393.882	76
394.107	92
394.331	87
394.556	75
394.78	75
395.005	90
395.229	96
395.454	73
395.678	83
395.903	76
396.127	78
396.352	94
396.576	104
396.801	77
397.025	84
397.249	83
397.474	94
397.698	90
397.922	95
398.147	86
398.371	83
398.595	93
398.82	91
399.044	91
399.268	80
399.492	81
399.717	77
399.941	87
400.165	89
400.389	102
400.613	88
400.837	92
401.062	70
401.286	91
401.51	92
401.734	88
401.958	81
402.182	86
402.406	80
402.63	83
402.854	82
403.078	89
403.302	85
403.526	92
403.75	90
403.974	74
404.198	85
404.422	68
404.645	80
404.869	81
405.093	82
405.317	83
405.541	87
405.765	82
405.988	78
406.212	85
406.436	87
406.66	92
406.883	86
407.107	91
407.331	71
407.555	88
407.778	95
408.002	80
408.226	97
408.449	78
408.673	89
408.896	92
409.12	75
409.344	88
409.567	90
409.791	87
410.014	89
410.238	74
410.461	85
410.685	93
410.908	77
411.132	83
411.355	85
411.578	86
411.802	79
412.025	74
412.249	77
412.472	84
412.695	80
412.919	61
413.142	82
413.365	73
413.589	79
413.812	88
414.035	73
414.258	83
414.482	95
414.705	74
414.928	80
415.151	88
415.374	74
415.597	81
415.821	75
416.044	72
416.267	86
416.49	95
416.713	78
416.936	90
417.159	89
417.382	81
417.605	82
417.828	86
418.051	92
418.274	81
418.497	73
418.72	79
418.943	91
419.166	81
419.389	91
419.611	65
419.834	86
420.057	86
420.28	81
420.503	86
420.726	78
420.948	80
421.171	79
421.394	79
421.617	91
421.839	91
422.062	97
422.285	84
422.507	87
422.73	80
422.953	81
423.175	87
423.398	89
423.621	84
423.843	84
424.066	79
424.288	85
424.511	89
424.733	87
424.956	81
425.178	88
425.401	82
425.623	73
425.846	73
426.068	100
426.291	80
426.513	90
426.735	78
426.958	76
427.18	97
427.402	79
427.625	87
427.847	79
428.069	90
428.292	83
428.514	61
428.736	82
428.958	82
429.181	96
429.403	83
429.625	82
429.847	88
430.069	94
430.292	84
430.514	73
430.736	77
430.958	83
431.18	83
431.402	80
431.624	89
431.846	77
432.068	85
432.29	83
432.512	100
432.734	70
432.956	93
433.178	95
433.4	102
433.622	83
433.844	80
434.066	98
434.287	89
434.509	70
434.731	87
434.953	75
435.175	75
435.397	87
435.618	101
435.84	85
436.062	88
436.284	86
436.505	65
436.727	78
436.949	78
437.17	90
437.392	79
437.614	88
437.835	79
438.057	96
438.278	82
438.5	70
438.721	79
438.943	86
439.165	88
439.386	88
439.608	81
439.829	73
440.05	76
440.272	80
440.493	80
440.715	90
440.936	75
441.158	94
441.379	76
441.6	95
441.822	80
442.043	90
442.264	81
442.486	73
442.707	68
442.928	90
443.149	88
443.371	95
443.592	90
443.813	75
444.034	73
444.255	86
444.476	79
444.698	85
444.919	89
445.14	200
445.361	142
445.582	81
445.803	80
446.024	80
446.245	99
446.466	87
446.687	90
446.908	86
447.129	81
447.35	78
447.571	77
447.792	79
448.013	98
448.234	80
448.455	76
448.675	66
448.896	59
449.117	70
449.338	89
449.559	79
449.779	90
450	87
450.221	80
450.442	94
450.662	83
450.883	97
451.104	94
451.324	112
451.545	81
451.766	63
451.986	76
452.207	80
452.428	80
452.648	93
452.869	80
453.089	89
453.31	84
453.53	81
453.751	85
453.971	87
454.192	82
454.412	81
454.633	83
454.853	83
455.073	89
455.294	93
455.514	86
455.734	79
455.955	72
456.175	80
456.395	88
456.616	85
456.836	84
457.056	83
457.276	81
457.497	92
457.717	87
457.937	75
458.157	69
458.377	99
458.598	94
458.818	93
459.038	69
459.258	87
459.478	82
459.698	84
459.918	87
460.138	90
460.358	91
460.578	81
460.798	86
461.018	104
461.238	74
461.458	94
461.678	96
461.898	87
462.118	95
462.338	81
462.558	91
462.777	66
462.997	89
463.217	85
463.437	95
463.657	79
463.876	71
464.096	79
464.316	92
464.536	92
464.755	80
464.975	94
465.195	84
465.414	83
465.634	82
465.854	84
466.073	92
466.293	91
466.512	74
466.732	83
466.951	71
467.171	90
467.391	85
467.61	86
467.829	83
468.049	80
468.268	83
468.488	63
468.707	88
468.927	90
469.146	87
469.365	99
469.585	86
469.804	77
470.023	76
470.243	86
470.462	73
470.681	84
470.901	90
471.12	92
471.339	97
471.558	74
471.777	95
471.997	84
472.216	86
472.435	98
472.654	92
472.873	96
473.092	90
473.311	87
473.53	88
473.749	73
473.968	89
474.187	90
474.406	93
474.625	101
474.844	83
475.063	86
475.282	84
475.501	81
475.72	97
475.939	94
476.158	84
476.377	81
476.596	84
476.814	78
477.033	82
477.252	87
477.471	89
477.69	79
477.908	91
478.127	84
478.346	70
478.564	92
478.783	95
479.002	93
479.22	89
479.439	95
479.658	81
479.876	82
480.095	82
480.313	93
480.532	112
480.751	94
480.969	84
481.188	90
481.406	87
481.624	92
481.843	99
482.061	86
482.28	82
482.498	81
482.717	80
482.935	92
483.153	84
483.372	89
483.59	91
483.808	101
484.027	98
484.245	74
484.463	86
484.681	104
484.9	71
485.118	84
485.336	99
485.554	86
485.772	103
485.99	106
486.209	92
486.427	85
486.645	94
486.863	97
487.081	84
487.299	92
487.517	99
487.735	94
487.953	104
488.171	92
488.389	86
488.607	88
488.825	95
489.043	85
489.261	106
489.479	93
489.696	90
489.914	75
490.132	95
490.35	84
490.568	85
490.786	83
491.003	94
491.221	90
491.439	92
491.657	88
491.874	110
492.092	86
492.31	97
492.527	100
492.745	91
492.963	106
493.18	99
493.398	78
493.615	84
493.833	90
494.05	105
494.268	84
494.485	87
494.703	96
494.92	80
495.138	94
495.355	99
495.573	102
495.79	99
496.008	91
496.225	102
496.442	78
496.66	103
496.877	88
497.094	100
497.312	96
497.529	97
497.746	103
497.963	104
498.181	93
498.398	102
498.615	98
498.832	103
499.049	91
499.267	99
499.484	107
499.701	98
499.918	100
500.135	108
500.352	118
500.569	108
500.786	103
501.003	105
501.22	99
501.437	106
501.654	108
501.871	95
502.088	116
502.305	95
502.522	92
502.739	91
502.956	88
503.172	101
503.389	83
503.606	87
503.823	89
504.04	95
504.256	96
504.473	87
504.69	104
504.907	95
505.123	92
505.34	108
505.557	97
505.773	92
505.99	87
506.207	78
506.423	92
506.64	92
506.856	94
507.073	84
507.289	100
507.506	91
507.722	100
507.939	103
508.155	89
508.372	89
508.588	103
508.805	92
509.021	76
509.238	100
509.454	106
509.67	87
509.887	94
510.103	76
510.319	75
510.536	92
510.752	87
510.968	81
511.184	106
511.401	96
511.617	80
511.833	96
512.049	86
512.265	81
512.481	89
512.698	96
512.914	94
513.13	86
513.346	91
513.562	84
513.778	83
513.994	88
514.21	86
514.426	94
514.642	98
514.858	89
515.074	90
515.29	95
515.506	79
515.721	84
515.937	79
516.153	95
516.369	101
516.585	85
516.801	87
517.016	96
517.232	86
517.448	102
517.664	90
517.879	85
518.095	100
518.311	85
518.527	102
518.742	94
518.958	86
519.173	84
519.389	79
519.605	97
519.82	87
520.036	89
520.251	98
520.467	92
520.682	97
520.898	93
521.113	83
521.329	104
521.544	96
521.76	88
521.975	94
522.19	91
522.406	89
522.621	87
522.836	74
523.052	68
523.267	86
523.482	82
523.698	92
523.913	92
524.128	101
524.343	97
524.559	83
524.774	93
524.989	83
525.204	111
525.419	72
525.634	94
525.849	100
526.064	95
526.28	87
526.495	82
526.71	82
526.925	88
527.14	82
527.355	109
527.57	76
527.785	103
527.999	98
528.214	78
528.429	86
528.644	96
528.859	88
529.074	87
529.289	101
529.503	86
529.718	87
529.933	86
530.148	92
530.363	97
530.577	99
530.792	97
531.007	86
531.221	97
531.436	81
531.651	75
531.865	90
532.08	89
532.295	79
532.509	91
532.724	100
532.938	74
533.153	91
533.367	92
533.582	97
533.796	97
534.011	87
534.225	90
534.44	78
534.654	84
534.868	81
535.083	89
535.297	90
535.511	100
535.726	90
535.94	90
536.154	75
536.369	92
536.583	89
536.797	101
537.011	99
537.225	78
537.44	83
537.654	88
537.868	97
538.082	93
538.296	92
538.51	90
538.724	79
538.938	96
539.153	86
539.367	98
539.581	83
539.795	91
540.009	99
540.222	99
540.436	91
540.65	90
540.864	79
541.078	73
541.292	104
541.506	93
541.72	89
541.934	88
542.147	88
542.361	90
542.575	91
542.789	99
543.002	96
543.216	84
543.43	89
543.644	92
543.857	98
544.071	98
544.285	82
544.498	77
544.712	90
544.925	81
545.139	96
545.352	82
545.566	98
545.779	92
545.993	91
546.206	87
546.42	81
546.633	80
546.847	78
547.06	91
547.274	101
547.487	94
547.7	86
547.914	97
548.127	84
548.34	85
548.554	89
548.767	88
548.98	97
549.193	74
549.407	89
549.62	77
549.833	88
550.046	73
550.259	97
550.473	76
550.686	84
550.899	87
551.112	97
551.325	92
551.538	98
551.751	82
551.964	98
552.177	83
552.39	74
552.603	82
552.816	82
553.029	91
553.242	93
553.455	91
553.667	89
553.88	86
554.093	88
554.306	95
554.519	80
554.732	80
554.944	83
555.157	81
555.37	90
555.583	84
555.795	95
556.008	97
556.221	87
556.433	95
556.646	83
556.859	88
557.071	87
557.284	95
557.496	83
557.709	90
557.921	82
558.134	87
558.346	91
558.559	76
558.771	91
558.984	83
559.196	87
559.409	86
559.621	88
559.833	90
560.046	87
560.258	80
560.47	79
560.683	87
560.895	98
561.107	89
561.32	74
561.532	88
561.744	88
561.956	90
562.168	83
562.381	91
562.593	78
562.805	87
563.017	82
563.229	82
563.441	77
563.653	91
563.865	79
564.077	91
564.289	74
564.501	95
564.713	86
564.925	74
565.137	83
565.349	82
565.561	83
565.773	87
565.985	91
566.197	91
566.408	92
566.62	87
566.832	92
567.044	93
567.255	83
567.467	92
567.679	81
567.891	98
568.102	74
568.314	76
568.526	84
568.737	86
568.949	82
569.161	84
569.372	72
569.584	80
569.795	71
570.007	92
570.218	87
570.43	79
570.641	91
570.853	92
571.064	94
571.276	83
571.487	87
571.698	83
571.91	82
572.121	95
572.333	88
572.544	83
572.755	84
572.966	97
573.178	84
573.389	83
573.6	83
573.811	103
574.023	88
574.234	96
574.445	95
574.656	75
574.867	82
575.078	87
575.289	75
575.501	87
575.712	82
575.923	86
576.134	95
576.345	81
576.556	87
576.767	84
576.978	81
577.188	95
577.399	82
577.61	82
577.821	87
578.032	87
578.243	79
578.454	80
578.665	86
578.875	98
579.086	89
579.297	88
579.508	87
579.718	81
579.929	88
580.14	90
580.35	95
580.561	73
580.772	79
580.982	76
581.193	91
581.403	91
581.614	95
581.825	86
582.035	94
582.246	83
582.456	81
582.667	81
582.877	82
583.087	75
583.298	79
583.508	84
583.719	92
583.929	86
584.139	93
584.35	76
584.56	92
584.77	89
584.981	92
585.191	90
585.401	91
585.611	97
585.821	85
586.032	91
586.242	78
586.452	87
586.662	90
586.872	82
587.082	73
587.292	78
587.502	81
587.713	81
587.923	83
588.133	86
588.343	81
588.553	74
588.762	92
588.972	91
589.182	80
589.392	81
589.602	95
589.812	83
590.022	86
590.232	87
590.441	92
590.651	86
590.861	77
591.071	79
591.281	82
591.49	72
591.7	88
591.91	99
592.119	87
592.329	84
592.539	67
592.748	90
592.958	88
593.167	87
593.377	81
593.587	89
593.796	84
594.006	94
594.215	85
594.424	81
594.634	95
594.843	90
595.053	92
595.262	87
595.472	97
595.681	87
595.89	85
596.1	88
596.309	94
596.518	87
596.727	94
596.937	88
597.146	84
597.355	86
597.564	74
597.774	85
597.983	93
598.192	83
598.401	84
598.61	92
598.819	86
599.028	70
599.237	69
599.446	84
599.655	74
599.864	89
600.073	93
600.282	94
600.491	87
600.7	76
600.909	86
601.118	87
601.327	86
601.536	82
601.745	90
601.953	97
602.162	84
602.371	90
602.58	75
602.789	77
602.997	88
603.206	94
603.415	99
603.623	82
603.832	88
604.041	94
604.249	96
604.458	91
604.666	88
604.875	74
605.084	70
605.292	67
605.501	87
605.709	70
605.918	86
606.126	83
606.334	88
606.543	80
606.751	82
606.96	82
607.168	65
607.376	86
607.585	90
607.793	90
608.001	95
608.21	94
608.418	64
608.626	77
608.834	86
609.043	81
609.251	79
609.459	82
609.667	65
609.875	75
610.083	85
610.291	88
610.499	72
610.707	86
610.916	89
611.124	93
611.332	87
611.54	80
611.748	96
611.955	80
612.163	81
612.371	66
612.579	91
612.787	85
612.995	87
613.203	76
613.411	91
613.618	76
613.826	71
614.034	88
614.242	90
614.449	72
614.657	82
614.865	82
615.072	76
615.28	76
615.488	89
615.695	102
615.903	82
616.111	83
616.318	79
616.526	82
616.733	87
616.941	83
617.148	74
617.356	89
617.563	81
617.771	82
617.978	86
618.185	95
618.393	88
618.6	73
618.807	81
619.015	82
619.222	72
619.429	88
619.637	97
619.844	73
620.051	91
620.258	78
620.466	64
620.673	71
620.88	91
621.087	73
621.294	79
621.501	90
621.708	82
621.915	75
622.122	92
622.329	81
622.536	91
622.743	75
622.95	81
623.157	87
623.364	85
623.571	93
623.778	94
623.985	83
624.192	78
624.399	84
624.606	94
624.812	74
625.019	72
625.226	81
625.433	81
625.639	83
625.846	88
626.053	84
626.259	76
626.466	85
626.673	88
626.879	87
627.086	96
627.293	82
627.499	86
627.706	82
627.912	78
628.119	96
628.325	89
628.532	91
628.738	90
628.945	85
629.151	84
629.357	78
629.564	81
629.77	87
629.976	78
630.183	80
630.389	87
630.595	90
630.802	84
631.008	86
631.214	86
631.42	97
631.627	84
631.833	79
632.039	93
632.245	82
632.451	73
632.657	78
632.863	85
633.069	91
633.275	58
633.481	80
633.688	71
633.893	99
634.099	87
634.305	86
634.511	82
634.717	92
634.923	81
635.129	85
635.335	80
635.541	80
635.747	77
635.952	86
636.158	81
636.364	87
636.57	88
636.775	87
636.981	92
637.187	76
637.392	87
637.598	94
637.804	74
638.009	71
638.215	90
638.421	84
638.626	79
638.832	76
639.037	71
639.243	95
639.448	81
639.654	77
639.859	83
640.065	80
640.27	100
640.475	81
640.681	71
640.886	81
641.091	98
641.297	91
641.502	86
641.707	77
641.913	83
642.118	92
642.323	77
642.528	80
642.733	79
642.939	74
643.144	83
643.349	83
643.554	71
643.759	73
643.964	82
644.169	83
644.374	76
644.579	74
644.784	85
644.989	91
645.194	73
645.399	82
645.604	95
645.809	72
646.014	67
646.219	73
646.423	72
646.628	87
646.833	74
647.038	91
647.243	86
647.447	81
647.652	114
647.857	82
648.062	100
648.266	87
648.471	83
648.676	92
648.88	81
649.085	89
649.289	78
649.494	94
649.698	95
649.903	82
650.107	84
650.312	85
650.516	79
650.721	72
650.925	77
651.13	76
651.334	77
651.539	84
651.743	82
651.947	80
652.152	77
652.356	82
652.56	85
652.764	83
652.969	86
653.173	75
653.377	83
653.581	83
653.785	68
653.99	89
654.194	77
654.398	84
654.602	74
654.806	85
655.01	77
655.214	81
655.418	84
655.622	77
655.826	79
656.03	75
656.234	80
656.438	82
656.642	73
656.846	75
657.049	81
657.253	76
657.457	88
657.661	83
657.865	92
658.068	88
658.272	82
658.476	94
658.68	91
658.883	74
659.087	76
659.291	79
659.494	79
659.698	78
659.901	84
660.105	81
660.309	82
660.512	90
660.716	85
660.919	67
661.123	91
661.326	80
661.53	82
661.733	89
661.936	80
662.14	85
662.343	87
662.546	73
662.75	86
662.953	68
663.156	87
663.36	66
663.563	88
663.766	87
663.969	87
664.173	81
664.376	86
664.579	83
664.782	71
664.985	76
665.188	73
665.391	78
665.594	88
665.797	78
666	80
666.203	97
666.406	77
666.609	77
666.812	85
667.015	64
667.218	81
667.421	85
667.624	79
667.827	89
668.03	76
668.232	72
668.435	92
668.638	86
668.841	80
669.043	74
669.246	86
669.449	89
669.651	87
669.854	66
670.057	77
670.259	68
670.462	88
670.665	55
670.867	82
671.07	85
671.272	90
671.475	84
671.677	67
671.88	66
672.082	73
672.284	81
672.487	85
672.689	78
672.892	72
