Data from Ni(NO3)2Standard.Agarose3%.GreenCap.LampEnergy5.5.E.O_HRD10591_14-41-14-188.txt Node
Date: Mon Jul 22 14:41:14 EDT 2019
User: cochatt
Spectrometer: HR+D1059
Trigger mode: 1
Integration Time (sec): 1.000000E-1
Scans to average: 1
Electric dark correction enabled: true
Nonlinearity correction enabled: false
Boxcar width: 0
XAxis mode: Wavelengths
Number of Pixels in Spectrum: 2048
>>>>>Begin Spectral Data<<<<<
223.165	-27
223.4	-27
223.635	-27
223.869	-10
224.104	-18
224.338	-14
224.573	-19
224.808	-14
225.042	-5
225.277	-8
225.511	-7
225.746	1
225.98	-2
226.215	12
226.449	21
226.683	31
226.918	22
227.152	37
227.387	39
227.621	21
227.856	33
228.09	47
228.324	39
228.559	71
228.793	61
229.027	61
229.262	58
229.496	61
229.73	69
229.964	52
230.199	64
230.433	69
230.667	74
230.901	76
231.136	81
231.37	92
231.604	83
231.838	72
232.072	81
232.306	65
232.541	72
232.775	67
233.009	84
233.243	86
233.477	87
233.711	90
233.945	75
234.179	85
234.413	85
234.647	75
234.881	82
235.115	83
235.349	76
235.583	74
235.817	67
236.051	86
236.285	92
236.519	78
236.753	76
236.987	72
237.221	83
237.455	83
237.689	79
237.922	80
238.156	75
238.39	68
238.624	79
238.858	66
239.091	71
239.325	95
239.559	82
239.793	72
240.027	73
240.26	68
240.494	67
240.728	77
240.961	76
241.195	70
241.429	79
241.662	65
241.896	66
242.13	74
242.363	79
242.597	63
242.83	69
243.064	73
243.298	76
243.531	65
243.765	67
243.998	83
244.232	77
244.465	73
244.699	99
244.932	87
245.166	104
245.399	63
245.633	75
245.866	80
246.099	76
246.333	81
246.566	77
246.8	76
247.033	87
247.266	69
247.5	79
247.733	82
247.966	71
248.2	84
248.433	91
248.666	74
248.899	74
249.133	81
249.366	84
249.599	77
249.832	75
250.066	95
250.299	64
250.532	77
250.765	76
250.998	72
251.231	86
251.465	75
251.698	67
251.931	92
252.164	72
252.397	89
252.63	65
252.863	69
253.096	72
253.329	72
253.562	91
253.795	74
254.028	79
254.261	81
254.494	78
254.727	73
254.96	83
255.193	89
255.426	88
255.659	95
255.892	85
256.124	80
256.357	69
256.59	91
256.823	75
257.056	63
257.289	77
257.521	84
257.754	75
257.987	72
258.22	85
258.452	82
258.685	80
258.918	68
259.151	84
259.383	64
259.616	74
259.849	75
260.081	69
260.314	77
260.547	74
260.779	79
261.012	76
261.244	86
261.477	80
261.71	90
261.942	79
262.175	72
262.407	69
262.64	87
262.872	79
263.105	75
263.337	88
263.57	82
263.802	89
264.035	78
264.267	87
264.499	68
264.732	89
264.964	76
265.197	84
265.429	76
265.661	83
265.894	87
266.126	75
266.358	66
266.591	73
266.823	80
267.055	71
267.287	85
267.52	87
267.752	79
267.984	85
268.216	83
268.448	89
268.681	87
268.913	81
269.145	69
269.377	87
269.609	73
269.841	100
270.073	89
270.306	79
270.538	90
270.77	86
271.002	98
271.234	84
271.466	87
271.698	98
271.93	74
272.162	96
272.394	85
272.626	86
272.858	74
273.09	84
273.322	65
273.553	81
273.785	78
274.017	69
274.249	91
274.481	87
274.713	77
274.945	83
275.176	74
275.408	76
275.64	82
275.872	77
276.104	86
276.335	95
276.567	82
276.799	75
277.031	84
277.262	89
277.494	83
277.726	74
277.957	94
278.189	82
278.421	96
278.652	79
278.884	75
279.115	67
279.347	89
279.579	82
279.81	77
280.042	71
280.273	81
280.505	93
280.736	76
280.968	92
281.199	78
281.431	84
281.662	84
281.894	88
282.125	89
282.356	80
282.588	68
282.819	83
283.051	85
283.282	75
283.513	87
283.745	77
283.976	81
284.207	71
284.439	79
284.67	72
284.901	86
285.132	86
285.364	87
285.595	80
285.826	83
286.057	77
286.288	83
286.52	90
286.751	84
286.982	93
287.213	79
287.444	88
287.675	103
287.906	79
288.138	84
288.369	90
288.6	81
288.831	82
289.062	91
289.293	68
289.524	91
289.755	78
289.986	81
290.217	87
290.448	77
290.679	85
290.91	101
291.141	97
291.371	83
291.602	90
291.833	70
292.064	80
292.295	85
292.526	88
292.757	85
292.987	88
293.218	95
293.449	79
293.68	74
293.91	87
294.141	85
294.372	86
294.603	82
294.833	72
295.064	105
295.295	79
295.525	76
295.756	91
295.987	83
296.217	83
296.448	85
296.679	81
296.909	95
297.14	85
297.37	91
297.601	80
297.831	80
298.062	80
298.292	88
298.523	84
298.753	95
298.984	85
299.214	106
299.445	98
299.675	79
299.905	81
300.136	75
300.366	92
300.597	97
300.827	97
301.057	82
301.288	83
301.518	80
301.748	83
301.979	101
302.209	101
302.439	81
302.669	87
302.9	90
303.13	98
303.36	67
303.59	92
303.82	85
304.051	84
304.281	98
304.511	87
304.741	94
304.971	84
305.201	81
305.431	73
305.661	76
305.891	90
306.121	83
306.352	84
306.582	92
306.812	80
307.042	90
307.272	81
307.502	102
307.731	81
307.961	74
308.191	82
308.421	85
308.651	84
308.881	69
309.111	76
309.341	86
309.571	90
309.8	85
310.03	79
310.26	84
310.49	79
310.72	75
310.949	78
311.179	87
311.409	88
311.639	78
311.868	83
312.098	92
312.328	95
312.557	78
312.787	109
313.017	83
313.246	87
313.476	101
313.706	74
313.935	97
314.165	84
314.394	88
314.624	93
314.853	83
315.083	86
315.312	77
315.542	92
315.771	93
316.001	78
316.23	78
316.46	87
316.689	90
316.919	76
317.148	91
317.377	81
317.607	89
317.836	89
318.065	90
318.295	88
318.524	66
318.753	94
318.983	82
319.212	78
319.441	88
319.67	78
319.9	79
320.129	77
320.358	83
320.587	75
320.816	88
321.046	91
321.275	84
321.504	85
321.733	105
321.962	83
322.191	91
322.42	82
322.649	88
322.878	88
323.108	95
323.337	77
323.566	72
323.795	82
324.024	92
324.253	78
324.482	77
324.71	66
324.939	89
325.168	85
325.397	80
325.626	78
325.855	89
326.084	79
326.313	77
326.542	99
326.77	84
326.999	111
327.228	93
327.457	77
327.686	90
327.914	89
328.143	80
328.372	84
328.6	88
328.829	95
329.058	93
329.287	81
329.515	83
329.744	90
329.972	83
330.201	91
330.43	84
330.658	84
330.887	93
331.115	82
331.344	77
331.572	78
331.801	94
332.03	83
332.258	79
332.486	73
332.715	76
332.943	83
333.172	81
333.4	84
333.629	84
333.857	85
334.085	95
334.314	71
334.542	86
334.771	88
334.999	89
335.227	88
335.455	87
335.684	100
335.912	86
336.14	66
336.369	91
336.597	85
336.825	91
337.053	77
337.281	87
337.51	84
337.738	91
337.966	94
338.194	84
338.422	79
338.65	92
338.878	87
339.106	72
339.334	80
339.562	85
339.79	98
340.018	89
340.246	86
340.474	68
340.702	87
340.93	80
341.158	84
341.386	84
341.614	83
341.842	94
342.07	73
342.298	88
342.526	80
342.754	93
342.981	82
343.209	74
343.437	85
343.665	87
343.893	91
344.12	87
344.348	89
344.576	88
344.804	71
345.031	85
345.259	90
345.487	74
345.714	74
345.942	87
346.17	87
346.397	95
346.625	84
346.853	65
347.08	67
347.308	90
347.535	80
347.763	82
347.99	92
348.218	72
348.445	77
348.673	76
348.9	71
349.128	69
349.355	83
349.583	85
349.81	80
350.037	96
350.265	89
350.492	86
350.72	75
350.947	83
351.174	79
351.402	82
351.629	92
351.856	83
352.083	85
352.311	70
352.538	90
352.765	84
352.992	91
353.22	87
353.447	84
353.674	84
353.901	80
354.128	91
354.355	91
354.583	81
354.81	77
355.037	79
355.264	81
355.491	88
355.718	86
355.945	91
356.172	88
356.399	82
356.626	82
356.853	80
357.08	83
357.307	83
357.534	96
357.761	90
357.988	85
358.215	88
358.441	75
358.668	86
358.895	95
359.122	84
359.349	74
359.576	85
359.802	77
360.029	96
360.256	89
360.483	83
360.709	86
360.936	85
361.163	77
361.39	83
361.616	72
361.843	85
362.07	95
362.296	79
362.523	80
362.749	72
362.976	88
363.203	85
363.429	100
363.656	97
363.882	79
364.109	87
364.335	100
364.562	92
364.788	87
365.015	74
365.241	85
365.468	79
365.694	63
365.92	72
366.147	85
366.373	88
366.599	84
366.826	86
367.052	79
367.278	85
367.505	85
367.731	89
367.957	94
368.184	93
368.41	80
368.636	88
368.862	89
369.089	82
369.315	82
369.541	87
369.767	100
369.993	83
370.219	93
370.445	73
370.672	89
370.898	87
371.124	71
371.35	60
371.576	84
371.802	64
372.028	81
372.254	96
372.48	78
372.706	79
372.932	80
373.158	86
373.384	88
373.61	86
373.835	91
374.061	73
374.287	73
374.513	85
374.739	97
374.965	76
375.191	73
375.416	74
375.642	82
375.868	87
376.094	77
376.319	85
376.545	67
376.771	88
376.997	78
377.222	83
377.448	82
377.674	71
377.899	89
378.125	73
378.35	82
378.576	83
378.802	65
379.027	74
379.253	72
379.478	76
379.704	94
379.929	92
380.155	79
380.38	75
380.606	82
380.831	84
381.057	77
381.282	82
381.507	77
381.733	87
381.958	95
382.184	84
382.409	89
382.634	86
382.86	80
383.085	82
383.31	86
383.535	87
383.761	82
383.986	80
384.211	73
384.436	89
384.662	88
384.887	88
385.112	69
385.337	72
385.562	82
385.787	85
386.013	100
386.238	86
386.463	83
386.688	93
386.913	80
387.138	82
387.363	76
387.588	75
387.813	75
388.038	94
388.263	91
388.488	89
388.713	76
388.938	82
389.163	78
389.387	80
389.612	92
389.837	84
390.062	90
390.287	85
390.512	86
390.736	83
390.961	77
391.186	85
391.411	82
391.636	98
391.86	87
392.085	75
392.31	89
392.534	91
392.759	73
392.984	89
393.208	91
393.433	92
393.658	83
393.882	70
394.107	79
394.331	89
394.556	74
394.78	95
395.005	100
395.229	69
395.454	64
395.678	87
395.903	71
396.127	88
396.352	74
396.576	80
396.801	73
397.025	86
397.249	84
397.474	91
397.698	83
397.922	78
398.147	93
398.371	89
398.595	91
398.82	95
399.044	76
399.268	81
399.492	85
399.717	86
399.941	79
400.165	84
400.389	74
400.613	87
400.837	96
401.062	94
401.286	76
401.51	89
401.734	71
401.958	80
402.182	79
402.406	91
402.63	88
402.854	76
403.078	82
403.302	83
403.526	85
403.75	95
403.974	76
404.198	89
404.422	79
404.645	83
404.869	89
405.093	82
405.317	88
405.541	76
405.765	87
405.988	100
406.212	91
406.436	86
406.66	93
406.883	71
407.107	71
407.331	70
407.555	89
407.778	83
408.002	85
408.226	101
408.449	82
408.673	81
408.896	89
409.12	76
409.344	84
409.567	83
409.791	82
410.014	84
410.238	87
410.461	81
410.685	81
410.908	88
411.132	95
411.355	96
411.578	77
411.802	89
412.025	80
412.249	75
412.472	95
412.695	95
412.919	89
413.142	81
413.365	80
413.589	84
413.812	87
414.035	77
414.258	87
414.482	80
414.705	90
414.928	87
415.151	79
415.374	73
415.597	84
415.821	84
416.044	84
416.267	89
416.49	82
416.713	96
416.936	93
417.159	90
417.382	81
417.605	80
417.828	85
418.051	92
418.274	95
418.497	89
418.72	85
418.943	74
419.166	86
419.389	87
419.611	87
419.834	80
420.057	90
420.28	82
420.503	101
420.726	94
420.948	91
421.171	86
421.394	95
421.617	88
421.839	77
422.062	81
422.285	83
422.507	110
422.73	88
422.953	96
423.175	92
423.398	80
423.621	72
423.843	82
424.066	87
424.288	81
424.511	86
424.733	89
424.956	89
425.178	92
425.401	85
425.623	85
425.846	84
426.068	90
426.291	95
426.513	88
426.735	89
426.958	93
427.18	69
427.402	83
427.625	85
427.847	96
428.069	78
428.292	82
428.514	78
428.736	82
428.958	86
429.181	89
429.403	89
429.625	95
429.847	71
430.069	71
430.292	76
430.514	80
430.736	77
430.958	81
431.18	65
431.402	75
431.624	89
431.846	92
432.068	66
432.29	100
432.512	98
432.734	88
432.956	73
433.178	83
433.4	85
433.622	89
433.844	87
434.066	83
434.287	76
434.509	92
434.731	96
434.953	89
435.175	78
435.397	94
435.618	78
435.84	74
436.062	68
436.284	82
436.505	89
436.727	98
436.949	91
437.17	71
437.392	97
437.614	89
437.835	86
438.057	90
438.278	71
438.5	87
438.721	74
438.943	82
439.165	94
439.386	85
439.608	80
439.829	85
440.05	98
440.272	99
440.493	105
440.715	80
440.936	88
441.158	81
441.379	79
441.6	85
441.822	87
442.043	78
442.264	89
442.486	87
442.707	89
442.928	87
443.149	75
443.371	92
443.592	81
443.813	65
444.034	96
444.255	92
444.476	85
444.698	72
444.919	81
445.14	212
445.361	144
445.582	80
445.803	81
446.024	72
446.245	70
446.466	81
446.687	78
446.908	86
447.129	88
447.35	86
447.571	87
447.792	90
448.013	95
448.234	93
448.455	93
448.675	88
448.896	81
449.117	82
449.338	84
449.559	87
449.779	101
450	76
450.221	95
450.442	73
450.662	87
450.883	74
451.104	90
451.324	80
451.545	72
451.766	81
451.986	78
452.207	81
452.428	81
452.648	91
452.869	82
453.089	76
453.31	82
453.53	77
453.751	62
453.971	95
454.192	87
454.412	83
454.633	98
454.853	73
455.073	61
455.294	76
455.514	70
455.734	90
455.955	71
456.175	84
456.395	69
456.616	71
456.836	91
457.056	83
457.276	103
457.497	81
457.717	77
457.937	90
458.157	98
458.377	78
458.598	75
458.818	78
459.038	70
459.258	76
459.478	94
459.698	90
459.918	75
460.138	82
460.358	73
460.578	83
460.798	95
461.018	87
461.238	87
461.458	92
461.678	95
461.898	87
462.118	104
462.338	89
462.558	89
462.777	74
462.997	90
463.217	76
463.437	94
463.657	85
463.876	78
464.096	82
464.316	84
464.536	89
464.755	92
464.975	92
465.195	107
465.414	95
465.634	86
465.854	101
466.073	79
466.293	77
466.512	83
466.732	91
466.951	84
467.171	75
467.391	76
467.61	79
467.829	81
468.049	77
468.268	85
468.488	89
468.707	96
468.927	79
469.146	73
469.365	75
469.585	100
469.804	82
470.023	89
470.243	83
470.462	85
470.681	92
470.901	80
471.12	85
471.339	100
471.558	76
471.777	81
471.997	97
472.216	93
472.435	69
472.654	82
472.873	87
473.092	90
473.311	90
473.53	83
473.749	80
473.968	76
474.187	84
474.406	89
474.625	92
474.844	80
475.063	85
475.282	98
475.501	85
475.72	84
475.939	96
476.158	91
476.377	107
476.596	86
476.814	99
477.033	92
477.252	88
477.471	80
477.69	84
477.908	102
478.127	80
478.346	82
478.564	102
478.783	92
479.002	88
479.22	104
479.439	87
479.658	106
479.876	100
480.095	93
480.313	89
480.532	89
480.751	94
480.969	89
481.188	105
481.406	83
481.624	95
481.843	96
482.061	95
482.28	86
482.498	97
482.717	82
482.935	75
483.153	86
483.372	81
483.59	82
483.808	89
484.027	90
484.245	71
484.463	91
484.681	104
484.9	87
485.118	100
485.336	77
485.554	75
485.772	95
485.99	88
486.209	86
486.427	83
486.645	81
486.863	88
487.081	97
487.299	105
487.517	84
487.735	96
487.953	80
488.171	96
488.389	103
488.607	84
488.825	90
489.043	78
489.261	84
489.479	74
489.696	96
489.914	78
490.132	90
490.35	103
490.568	79
490.786	91
491.003	90
491.221	98
491.439	98
491.657	87
491.874	103
492.092	92
492.31	88
492.527	107
492.745	91
492.963	92
493.18	99
493.398	80
493.615	98
493.833	100
494.05	86
494.268	90
494.485	100
494.703	94
494.92	98
495.138	91
495.355	97
495.573	103
495.79	92
496.008	106
496.225	99
496.442	101
496.66	99
496.877	90
497.094	98
497.312	89
497.529	99
497.746	95
497.963	74
498.181	89
498.398	95
498.615	93
498.832	105
499.049	86
499.267	108
499.484	111
499.701	105
499.918	115
500.135	109
500.352	105
500.569	114
500.786	101
501.003	117
501.22	125
501.437	107
501.654	107
501.871	102
502.088	108
502.305	104
502.522	103
502.739	85
502.956	100
503.172	87
503.389	89
503.606	95
503.823	91
504.04	92
504.256	83
504.473	94
504.69	93
504.907	99
505.123	84
505.34	105
505.557	100
505.773	88
505.99	93
506.207	82
506.423	87
506.64	98
506.856	90
507.073	79
507.289	79
507.506	96
507.722	92
507.939	86
508.155	97
508.372	87
508.588	96
508.805	90
509.021	82
509.238	88
509.454	83
509.67	92
509.887	82
510.103	90
510.319	88
510.536	94
510.752	92
510.968	81
511.184	79
511.401	92
511.617	91
511.833	91
512.049	90
512.265	91
512.481	90
512.698	98
512.914	97
513.13	95
513.346	98
513.562	92
513.778	85
513.994	84
514.21	94
514.426	76
514.642	84
514.858	93
515.074	84
515.29	96
515.506	87
515.721	96
515.937	94
516.153	87
516.369	92
516.585	108
516.801	96
517.016	107
517.232	100
517.448	119
517.664	91
517.879	83
518.095	97
518.311	87
518.527	87
518.742	89
518.958	80
519.173	103
519.389	91
519.605	83
519.82	95
520.036	96
520.251	90
520.467	79
520.682	95
520.898	81
521.113	89
521.329	84
521.544	87
521.76	88
521.975	91
522.19	79
522.406	82
522.621	96
522.836	87
523.052	104
523.267	81
523.482	85
523.698	83
523.913	95
524.128	93
524.343	108
524.559	88
524.774	97
524.989	86
525.204	87
525.419	84
525.634	82
525.849	95
526.064	80
526.28	85
526.495	93
526.71	98
526.925	87
527.14	92
527.355	90
527.57	87
527.785	99
527.999	92
528.214	88
528.429	92
528.644	89
528.859	79
529.074	87
529.289	90
529.503	87
529.718	82
529.933	92
530.148	85
530.363	70
530.577	84
530.792	88
531.007	97
531.221	98
531.436	84
531.651	85
531.865	96
532.08	85
532.295	97
532.509	99
532.724	96
532.938	98
533.153	90
533.367	82
533.582	95
533.796	85
534.011	88
534.225	87
534.44	95
534.654	81
534.868	94
535.083	81
535.297	91
535.511	95
535.726	83
535.94	89
536.154	97
536.369	95
536.583	69
536.797	100
537.011	100
537.225	83
537.44	84
537.654	92
537.868	78
538.082	82
538.296	85
538.51	88
538.724	91
538.938	98
539.153	93
539.367	89
539.581	92
539.795	93
540.009	98
540.222	99
540.436	86
540.65	98
540.864	101
541.078	87
541.292	100
541.506	102
541.72	74
541.934	67
542.147	81
542.361	92
542.575	106
542.789	88
543.002	89
543.216	75
543.43	79
543.644	95
543.857	84
544.071	93
544.285	89
544.498	95
544.712	83
544.925	82
545.139	103
545.352	86
545.566	84
545.779	99
545.993	90
546.206	99
546.42	87
546.633	84
546.847	92
547.06	96
547.274	84
547.487	104
547.7	97
547.914	88
548.127	90
548.34	77
548.554	75
548.767	91
548.98	111
549.193	97
549.407	93
549.62	91
549.833	91
550.046	77
550.259	96
550.473	89
550.686	100
550.899	88
551.112	91
551.325	92
551.538	77
551.751	84
551.964	84
552.177	92
552.39	101
552.603	86
552.816	73
553.029	89
553.242	78
553.455	87
553.667	101
553.88	85
554.093	80
554.306	90
554.519	79
554.732	88
554.944	82
555.157	85
555.37	102
555.583	75
555.795	85
556.008	91
556.221	86
556.433	97
556.646	86
556.859	94
557.071	83
557.284	100
557.496	83
557.709	91
557.921	92
558.134	92
558.346	85
558.559	93
558.771	105
558.984	79
559.196	101
559.409	84
559.621	92
559.833	90
560.046	77
560.258	78
560.47	85
560.683	88
560.895	91
561.107	72
561.32	89
561.532	100
561.744	103
561.956	93
562.168	87
562.381	87
562.593	88
562.805	90
563.017	95
563.229	93
563.441	83
563.653	88
563.865	84
564.077	78
564.289	83
564.501	94
564.713	93
564.925	95
565.137	88
565.349	92
565.561	88
565.773	112
565.985	98
566.197	90
566.408	99
566.62	97
566.832	93
567.044	85
567.255	92
567.467	115
567.679	85
567.891	89
568.102	82
568.314	95
568.526	91
568.737	98
568.949	88
569.161	88
569.372	74
569.584	90
569.795	81
570.007	92
570.218	76
570.43	82
570.641	87
570.853	91
571.064	84
571.276	88
571.487	75
571.698	80
571.91	94
572.121	76
572.333	87
572.544	97
572.755	108
572.966	89
573.178	101
573.389	88
573.6	83
573.811	83
574.023	84
574.234	78
574.445	90
574.656	104
574.867	77
575.078	82
575.289	83
575.501	89
575.712	79
575.923	89
576.134	90
576.345	85
576.556	92
576.767	74
576.978	80
577.188	94
577.399	84
577.61	89
577.821	71
578.032	86
578.243	88
578.454	79
578.665	69
578.875	73
579.086	89
579.297	93
579.508	85
579.718	100
579.929	103
580.14	88
580.35	79
580.561	82
580.772	86
580.982	84
581.193	89
581.403	88
581.614	81
581.825	69
582.035	93
582.246	92
582.456	82
582.667	74
582.877	90
583.087	89
583.298	84
583.508	101
583.719	87
583.929	91
584.139	88
584.35	75
584.56	90
584.77	80
584.981	79
585.191	96
585.401	84
585.611	90
585.821	83
586.032	84
586.242	74
586.452	97
586.662	90
586.872	84
587.082	76
587.292	80
587.502	84
587.713	83
587.923	94
588.133	83
588.343	83
588.553	100
588.762	84
588.972	87
589.182	82
589.392	91
589.602	79
589.812	92
590.022	89
590.232	83
590.441	84
590.651	76
590.861	83
591.071	79
591.281	95
591.49	75
591.7	90
591.91	84
592.119	87
592.329	94
592.539	93
592.748	81
592.958	98
593.167	91
593.377	90
593.587	77
593.796	87
594.006	81
594.215	82
594.424	76
594.634	82
594.843	107
595.053	90
595.262	79
595.472	90
595.681	85
595.89	74
596.1	73
596.309	97
596.518	71
596.727	98
596.937	91
597.146	90
597.355	83
597.564	83
597.774	63
597.983	92
598.192	75
598.401	87
598.61	111
598.819	114
599.028	89
599.237	73
599.446	95
599.655	74
599.864	88
600.073	75
600.282	75
600.491	82
600.7	83
600.909	92
601.118	85
601.327	83
601.536	75
601.745	84
601.953	74
602.162	84
602.371	80
602.58	77
602.789	85
602.997	89
603.206	96
603.415	80
603.623	87
603.832	87
604.041	83
604.249	78
604.458	94
604.666	88
604.875	79
605.084	94
605.292	95
605.501	90
605.709	90
605.918	80
606.126	105
606.334	100
606.543	92
606.751	91
606.96	78
607.168	83
607.376	81
607.585	86
607.793	84
608.001	75
608.21	82
608.418	77
608.626	77
608.834	87
609.043	88
609.251	74
609.459	87
609.667	90
609.875	85
610.083	82
610.291	73
610.499	85
610.707	82
610.916	101
611.124	88
611.332	72
611.54	76
611.748	90
611.955	82
612.163	87
612.371	89
612.579	89
612.787	81
612.995	85
613.203	91
613.411	70
613.618	91
613.826	72
614.034	81
614.242	85
614.449	84
614.657	93
614.865	83
615.072	92
615.28	88
615.488	88
615.695	88
615.903	95
616.111	81
616.318	84
616.526	90
616.733	80
616.941	81
617.148	80
617.356	79
617.563	76
617.771	92
617.978	81
618.185	88
618.393	97
618.6	86
618.807	98
619.015	101
619.222	85
619.429	77
619.637	77
619.844	72
620.051	78
620.258	83
620.466	68
620.673	82
620.88	90
621.087	94
621.294	82
621.501	78
621.708	78
621.915	87
622.122	83
622.329	89
622.536	86
622.743	79
622.95	82
623.157	84
623.364	84
623.571	92
623.778	85
623.985	92
624.192	82
624.399	91
624.606	79
624.812	76
625.019	78
625.226	86
625.433	75
625.639	89
625.846	97
626.053	73
626.259	102
626.466	94
626.673	85
626.879	82
627.086	86
627.293	89
627.499	84
627.706	96
627.912	95
628.119	82
628.325	94
628.532	81
628.738	65
628.945	82
629.151	93
629.357	83
629.564	70
629.77	92
629.976	83
630.183	84
630.389	89
630.595	74
630.802	84
631.008	83
631.214	68
631.42	78
631.627	82
631.833	84
632.039	87
632.245	79
632.451	93
632.657	82
632.863	71
633.069	83
633.275	90
633.481	84
633.688	94
633.893	75
634.099	88
634.305	86
634.511	78
634.717	71
634.923	80
635.129	87
635.335	84
635.541	76
635.747	80
635.952	89
636.158	84
636.364	76
636.57	76
636.775	81
636.981	85
637.187	91
637.392	69
637.598	91
637.804	73
638.009	72
638.215	86
638.421	86
638.626	80
638.832	86
639.037	89
639.243	74
639.448	76
639.654	77
639.859	61
640.065	75
640.27	72
640.475	78
640.681	68
640.886	88
641.091	69
641.297	74
641.502	83
641.707	85
641.913	86
642.118	84
642.323	79
642.528	88
642.733	94
642.939	90
643.144	84
643.349	80
643.554	84
643.759	81
643.964	83
644.169	77
644.374	81
644.579	78
644.784	85
644.989	83
645.194	72
645.399	84
645.604	72
645.809	85
646.014	81
646.219	80
646.423	73
646.628	80
646.833	99
647.038	79
647.243	85
647.447	80
647.652	71
647.857	84
648.062	67
648.266	90
648.471	87
648.676	80
648.88	78
649.085	80
649.289	82
649.494	74
649.698	76
649.903	80
650.107	79
650.312	81
650.516	82
650.721	78
650.925	80
651.13	96
651.334	86
651.539	91
651.743	78
651.947	87
652.152	85
652.356	98
652.56	77
652.764	91
652.969	80
653.173	82
653.377	83
653.581	73
653.785	72
653.99	79
654.194	91
654.398	95
654.602	94
654.806	78
655.01	67
655.214	74
655.418	80
655.622	77
655.826	93
656.03	91
656.234	88
656.438	72
656.642	73
656.846	86
657.049	96
657.253	83
657.457	74
657.661	75
657.865	79
658.068	82
658.272	87
658.476	77
658.68	77
658.883	83
659.087	82
659.291	89
659.494	84
659.698	71
659.901	94
660.105	74
660.309	74
660.512	78
660.716	77
660.919	87
661.123	91
661.326	80
661.53	88
661.733	86
661.936	84
662.14	79
662.343	85
662.546	77
662.75	89
662.953	83
663.156	84
663.36	77
663.563	86
663.766	81
663.969	84
664.173	92
664.376	76
664.579	74
664.782	84
664.985	85
665.188	92
665.391	80
665.594	80
665.797	69
666	91
666.203	84
666.406	71
666.609	80
666.812	79
667.015	79
667.218	104
667.421	79
667.624	61
667.827	83
668.03	82
668.232	77
668.435	67
668.638	85
668.841	90
669.043	68
669.246	83
669.449	69
669.651	77
669.854	70
670.057	77
670.259	75
670.462	93
670.665	75
670.867	75
671.07	83
671.272	85
671.475	84
671.677	89
671.88	91
672.082	89
672.284	83
672.487	75
672.689	74
672.892	77
