Data from Ni(NO3)2Standard.Agarose3%.GreenCap.LampEnergy5.5.E.O_HRD10591_14-41-13-187.txt Node
Date: Mon Jul 22 14:41:13 EDT 2019
User: cochatt
Spectrometer: HR+D1059
Trigger mode: 1
Integration Time (sec): 1.000000E-1
Scans to average: 1
Electric dark correction enabled: true
Nonlinearity correction enabled: false
Boxcar width: 0
XAxis mode: Wavelengths
Number of Pixels in Spectrum: 2048
>>>>>Begin Spectral Data<<<<<
223.165	-24
223.4	-24
223.635	-24
223.869	-9
224.104	-14
224.338	-12
224.573	-14
224.808	-22
225.042	-1
225.277	0
225.511	1
225.746	-4
225.98	9
226.215	7
226.449	11
226.683	21
226.918	25
227.152	26
227.387	37
227.621	37
227.856	47
228.09	37
228.324	52
228.559	63
228.793	56
229.027	64
229.262	62
229.496	66
229.73	67
229.964	58
230.199	70
230.433	79
230.667	70
230.901	71
231.136	85
231.37	69
231.604	68
231.838	67
232.072	87
232.306	86
232.541	85
232.775	71
233.009	87
233.243	87
233.477	83
233.711	77
233.945	98
234.179	84
234.413	92
234.647	85
234.881	78
235.115	70
235.349	79
235.583	76
235.817	88
236.051	82
236.285	83
236.519	78
236.753	87
236.987	86
237.221	73
237.455	78
237.689	89
237.922	70
238.156	74
238.39	61
238.624	65
238.858	79
239.091	78
239.325	64
239.559	70
239.793	79
240.027	72
240.26	79
240.494	98
240.728	72
240.961	88
241.195	79
241.429	79
241.662	79
241.896	73
242.13	78
242.363	85
242.597	72
242.83	86
243.064	73
243.298	85
243.531	76
243.765	71
243.998	82
244.232	75
244.465	79
244.699	71
244.932	68
245.166	82
245.399	65
245.633	82
245.866	80
246.099	75
246.333	73
246.566	75
246.8	64
247.033	86
247.266	72
247.5	80
247.733	83
247.966	84
248.2	76
248.433	84
248.666	84
248.899	79
249.133	80
249.366	80
249.599	91
249.832	78
250.066	81
250.299	84
250.532	89
250.765	93
250.998	71
251.231	68
251.465	69
251.698	75
251.931	77
252.164	90
252.397	82
252.63	83
252.863	81
253.096	78
253.329	83
253.562	70
253.795	86
254.028	79
254.261	71
254.494	84
254.727	94
254.96	88
255.193	75
255.426	85
255.659	84
255.892	86
256.124	82
256.357	85
256.59	81
256.823	69
257.056	79
257.289	88
257.521	69
257.754	84
257.987	84
258.22	80
258.452	106
258.685	88
258.918	81
259.151	87
259.383	82
259.616	74
259.849	81
260.081	90
260.314	87
260.547	77
260.779	78
261.012	76
261.244	80
261.477	81
261.71	75
261.942	72
262.175	87
262.407	83
262.64	87
262.872	91
263.105	80
263.337	85
263.57	89
263.802	78
264.035	82
264.267	82
264.499	67
264.732	80
264.964	95
265.197	92
265.429	85
265.661	95
265.894	88
266.126	78
266.358	77
266.591	94
266.823	81
267.055	80
267.287	98
267.52	89
267.752	68
267.984	80
268.216	81
268.448	95
268.681	91
268.913	68
269.145	66
269.377	72
269.609	84
269.841	86
270.073	94
270.306	90
270.538	93
270.77	88
271.002	91
271.234	92
271.466	96
271.698	98
271.93	82
272.162	87
272.394	83
272.626	79
272.858	77
273.09	70
273.322	76
273.553	81
273.785	78
274.017	90
274.249	84
274.481	76
274.713	96
274.945	75
275.176	94
275.408	83
275.64	83
275.872	84
276.104	85
276.335	88
276.567	93
276.799	87
277.031	75
277.262	77
277.494	76
277.726	70
277.957	94
278.189	98
278.421	72
278.652	82
278.884	72
279.115	79
279.347	74
279.579	86
279.81	96
280.042	94
280.273	90
280.505	75
280.736	73
280.968	95
281.199	93
281.431	75
281.662	96
281.894	89
282.125	83
282.356	76
282.588	82
282.819	86
283.051	97
283.282	87
283.513	87
283.745	89
283.976	83
284.207	87
284.439	106
284.67	80
284.901	78
285.132	82
285.364	78
285.595	78
285.826	75
286.057	93
286.288	87
286.52	86
286.751	89
286.982	87
287.213	76
287.444	84
287.675	94
287.906	78
288.138	93
288.369	89
288.6	90
288.831	79
289.062	75
289.293	82
289.524	83
289.755	80
289.986	80
290.217	84
290.448	106
290.679	85
290.91	90
291.141	80
291.371	70
291.602	97
291.833	80
292.064	92
292.295	95
292.526	93
292.757	91
292.987	87
293.218	92
293.449	84
293.68	90
293.91	89
294.141	85
294.372	93
294.603	101
294.833	80
295.064	80
295.295	90
295.525	85
295.756	80
295.987	94
296.217	92
296.448	85
296.679	93
296.909	87
297.14	87
297.37	94
297.601	92
297.831	86
298.062	84
298.292	84
298.523	77
298.753	72
298.984	78
299.214	79
299.445	103
299.675	82
299.905	95
300.136	92
300.366	74
300.597	103
300.827	78
301.057	83
301.288	86
301.518	88
301.748	99
301.979	90
302.209	88
302.439	90
302.669	99
302.9	80
303.13	81
303.36	79
303.59	72
303.82	85
304.051	85
304.281	92
304.511	83
304.741	89
304.971	84
305.201	92
305.431	94
305.661	86
305.891	80
306.121	88
306.352	100
306.582	77
306.812	88
307.042	102
307.272	92
307.502	91
307.731	80
307.961	81
308.191	87
308.421	74
308.651	100
308.881	86
309.111	86
309.341	67
309.571	83
309.8	87
310.03	90
310.26	79
310.49	99
310.72	81
310.949	94
311.179	89
311.409	92
311.639	91
311.868	84
312.098	80
312.328	98
312.557	102
312.787	94
313.017	86
313.246	81
313.476	76
313.706	84
313.935	97
314.165	72
314.394	90
314.624	81
314.853	86
315.083	94
315.312	90
315.542	83
315.771	78
316.001	78
316.23	89
316.46	99
316.689	75
316.919	82
317.148	94
317.377	84
317.607	73
317.836	86
318.065	80
318.295	93
318.524	92
318.753	80
318.983	87
319.212	78
319.441	74
319.67	103
319.9	82
320.129	90
320.358	92
320.587	85
320.816	85
321.046	79
321.275	77
321.504	100
321.733	98
321.962	77
322.191	86
322.42	94
322.649	70
322.878	94
323.108	97
323.337	92
323.566	96
323.795	94
324.024	87
324.253	90
324.482	84
324.71	88
324.939	89
325.168	94
325.397	96
325.626	96
325.855	87
326.084	83
326.313	76
326.542	80
326.77	82
326.999	80
327.228	93
327.457	83
327.686	104
327.914	89
328.143	87
328.372	79
328.6	87
328.829	84
329.058	94
329.287	87
329.515	91
329.744	93
329.972	79
330.201	92
330.43	84
330.658	81
330.887	80
331.115	93
331.344	85
331.572	68
331.801	86
332.03	92
332.258	86
332.486	103
332.715	76
332.943	84
333.172	85
333.4	90
333.629	77
333.857	78
334.085	90
334.314	84
334.542	94
334.771	88
334.999	88
335.227	89
335.455	86
335.684	89
335.912	77
336.14	84
336.369	88
336.597	88
336.825	90
337.053	87
337.281	80
337.51	106
337.738	97
337.966	84
338.194	87
338.422	85
338.65	90
338.878	98
339.106	87
339.334	76
339.562	85
339.79	79
340.018	89
340.246	81
340.474	76
340.702	101
340.93	91
341.158	84
341.386	92
341.614	82
341.842	107
342.07	103
342.298	99
342.526	73
342.754	86
342.981	98
343.209	86
343.437	76
343.665	76
343.893	92
344.12	104
344.348	78
344.576	81
344.804	94
345.031	87
345.259	84
345.487	89
345.714	90
345.942	91
346.17	84
346.397	97
346.625	72
346.853	77
347.08	82
347.308	107
347.535	76
347.763	82
347.99	86
348.218	95
348.445	80
348.673	81
348.9	106
349.128	79
349.355	95
349.583	86
349.81	91
350.037	89
350.265	92
350.492	91
350.72	88
350.947	87
351.174	97
351.402	92
351.629	81
351.856	86
352.083	91
352.311	95
352.538	82
352.765	86
352.992	93
353.22	90
353.447	81
353.674	78
353.901	107
354.128	80
354.355	89
354.583	89
354.81	81
355.037	84
355.264	94
355.491	82
355.718	87
355.945	68
356.172	77
356.399	76
356.626	90
356.853	94
357.08	95
357.307	95
357.534	90
357.761	78
357.988	98
358.215	82
358.441	86
358.668	88
358.895	82
359.122	86
359.349	89
359.576	72
359.802	89
360.029	88
360.256	88
360.483	70
360.709	86
360.936	87
361.163	86
361.39	94
361.616	81
361.843	74
362.07	83
362.296	74
362.523	89
362.749	94
362.976	85
363.203	96
363.429	90
363.656	84
363.882	88
364.109	92
364.335	83
364.562	72
364.788	88
365.015	89
365.241	90
365.468	74
365.694	90
365.92	83
366.147	81
366.373	87
366.599	94
366.826	92
367.052	71
367.278	79
367.505	73
367.731	78
367.957	88
368.184	94
368.41	92
368.636	81
368.862	94
369.089	82
369.315	98
369.541	86
369.767	87
369.993	82
370.219	91
370.445	77
370.672	78
370.898	85
371.124	93
371.35	82
371.576	85
371.802	98
372.028	79
372.254	90
372.48	81
372.706	77
372.932	72
373.158	84
373.384	94
373.61	99
373.835	90
374.061	75
374.287	86
374.513	79
374.739	76
374.965	83
375.191	91
375.416	85
375.642	100
375.868	86
376.094	80
376.319	99
376.545	92
376.771	86
376.997	84
377.222	85
377.448	93
377.674	86
377.899	80
378.125	78
378.35	80
378.576	93
378.802	82
379.027	70
379.253	91
379.478	76
379.704	92
379.929	83
380.155	87
380.38	80
380.606	75
380.831	64
381.057	90
381.282	78
381.507	93
381.733	82
381.958	93
382.184	77
382.409	93
382.634	89
382.86	73
383.085	91
383.31	89
383.535	77
383.761	90
383.986	95
384.211	77
384.436	91
384.662	80
384.887	67
385.112	87
385.337	84
385.562	88
385.787	85
386.013	81
386.238	83
386.463	88
386.688	82
386.913	77
387.138	82
387.363	78
387.588	83
387.813	89
388.038	86
388.263	78
388.488	80
388.713	80
388.938	75
389.163	78
389.387	83
389.612	90
389.837	82
390.062	91
390.287	87
390.512	80
390.736	85
390.961	92
391.186	100
391.411	91
391.636	89
391.86	89
392.085	84
392.31	74
392.534	86
392.759	99
392.984	91
393.208	87
393.433	78
393.658	79
393.882	77
394.107	89
394.331	93
394.556	87
394.78	89
395.005	89
395.229	90
395.454	102
395.678	82
395.903	84
396.127	83
396.352	84
396.576	82
396.801	80
397.025	93
397.249	90
397.474	88
397.698	100
397.922	85
398.147	80
398.371	96
398.595	98
398.82	79
399.044	83
399.268	88
399.492	82
399.717	86
399.941	91
400.165	82
400.389	84
400.613	79
400.837	83
401.062	80
401.286	91
401.51	88
401.734	87
401.958	94
402.182	85
402.406	85
402.63	87
402.854	78
403.078	79
403.302	76
403.526	109
403.75	90
403.974	82
404.198	93
404.422	83
404.645	91
404.869	93
405.093	89
405.317	94
405.541	78
405.765	98
405.988	90
406.212	83
406.436	80
406.66	83
406.883	86
407.107	73
407.331	95
407.555	111
407.778	97
408.002	91
408.226	90
408.449	74
408.673	79
408.896	87
409.12	92
409.344	75
409.567	84
409.791	77
410.014	75
410.238	94
410.461	86
410.685	82
410.908	89
411.132	86
411.355	94
411.578	93
411.802	89
412.025	80
412.249	102
412.472	88
412.695	83
412.919	86
413.142	90
413.365	89
413.589	102
413.812	96
414.035	87
414.258	91
414.482	88
414.705	83
414.928	84
415.151	92
415.374	91
415.597	93
415.821	88
416.044	100
416.267	88
416.49	89
416.713	72
416.936	97
417.159	86
417.382	83
417.605	97
417.828	71
418.051	89
418.274	95
418.497	90
418.72	81
418.943	95
419.166	92
419.389	87
419.611	81
419.834	76
420.057	88
420.28	91
420.503	75
420.726	86
420.948	79
421.171	94
421.394	84
421.617	87
421.839	90
422.062	79
422.285	85
422.507	92
422.73	90
422.953	81
423.175	89
423.398	86
423.621	94
423.843	87
424.066	88
424.288	95
424.511	85
424.733	91
424.956	82
425.178	88
425.401	96
425.623	86
425.846	91
426.068	84
426.291	79
426.513	84
426.735	88
426.958	108
427.18	105
427.402	88
427.625	81
427.847	85
428.069	94
428.292	86
428.514	85
428.736	89
428.958	83
429.181	94
429.403	101
429.625	90
429.847	95
430.069	95
430.292	95
430.514	89
430.736	91
430.958	81
431.18	76
431.402	89
431.624	72
431.846	82
432.068	91
432.29	86
432.512	88
432.734	91
432.956	79
433.178	79
433.4	81
433.622	94
433.844	96
434.066	80
434.287	80
434.509	79
434.731	106
434.953	80
435.175	76
435.397	81
435.618	88
435.84	91
436.062	92
436.284	98
436.505	87
436.727	74
436.949	88
437.17	88
437.392	85
437.614	76
437.835	91
438.057	91
438.278	83
438.5	87
438.721	85
438.943	83
439.165	86
439.386	92
439.608	85
439.829	79
440.05	93
440.272	88
440.493	83
440.715	75
440.936	84
441.158	90
441.379	77
441.6	87
441.822	94
442.043	101
442.264	83
442.486	103
442.707	72
442.928	90
443.149	87
443.371	95
443.592	81
443.813	104
444.034	86
444.255	58
444.476	78
444.698	90
444.919	89
445.14	207
445.361	130
445.582	99
445.803	89
446.024	96
446.245	90
446.466	89
446.687	82
446.908	85
447.129	79
447.35	93
447.571	100
447.792	85
448.013	77
448.234	73
448.455	88
448.675	84
448.896	91
449.117	81
449.338	93
449.559	87
449.779	78
450	90
450.221	68
450.442	85
450.662	93
450.883	89
451.104	94
451.324	90
451.545	91
451.766	83
451.986	84
452.207	79
452.428	83
452.648	89
452.869	79
453.089	100
453.31	71
453.53	94
453.751	87
453.971	85
454.192	80
454.412	91
454.633	100
454.853	95
455.073	99
455.294	92
455.514	76
455.734	76
455.955	103
456.175	91
456.395	98
456.616	95
456.836	80
457.056	92
457.276	99
457.497	92
457.717	92
457.937	88
458.157	88
458.377	91
458.598	90
458.818	84
459.038	86
459.258	91
459.478	80
459.698	100
459.918	89
460.138	106
460.358	80
460.578	86
460.798	86
461.018	87
461.238	89
461.458	78
461.678	95
461.898	84
462.118	88
462.338	77
462.558	87
462.777	89
462.997	88
463.217	92
463.437	102
463.657	103
463.876	94
464.096	96
464.316	77
464.536	80
464.755	100
464.975	81
465.195	98
465.414	81
465.634	94
465.854	76
466.073	75
466.293	86
466.512	88
466.732	93
466.951	88
467.171	90
467.391	78
467.61	82
467.829	78
468.049	79
468.268	82
468.488	95
468.707	85
468.927	88
469.146	84
469.365	91
469.585	87
469.804	86
470.023	98
470.243	88
470.462	94
470.681	86
470.901	88
471.12	107
471.339	82
471.558	86
471.777	90
471.997	77
472.216	98
472.435	84
472.654	75
472.873	84
473.092	74
473.311	93
473.53	82
473.749	90
473.968	83
474.187	90
474.406	95
474.625	82
474.844	89
475.063	89
475.282	81
475.501	84
475.72	93
475.939	85
476.158	82
476.377	88
476.596	96
476.814	100
477.033	88
477.252	96
477.471	93
477.69	105
477.908	96
478.127	98
478.346	89
478.564	78
478.783	88
479.002	99
479.22	93
479.439	88
479.658	95
479.876	91
480.095	86
480.313	95
480.532	89
480.751	98
480.969	86
481.188	88
481.406	88
481.624	82
481.843	91
482.061	90
482.28	98
482.498	92
482.717	90
482.935	76
483.153	92
483.372	88
483.59	90
483.808	84
484.027	101
484.245	104
484.463	93
484.681	95
484.9	90
485.118	93
485.336	92
485.554	92
485.772	94
485.99	80
486.209	96
486.427	90
486.645	86
486.863	91
487.081	103
487.299	99
487.517	105
487.735	111
487.953	83
488.171	94
488.389	98
488.607	95
488.825	81
489.043	94
489.261	87
489.479	86
489.696	84
489.914	91
490.132	95
490.35	86
490.568	93
490.786	91
491.003	98
491.221	99
491.439	100
491.657	86
491.874	99
492.092	100
492.31	77
492.527	79
492.745	86
492.963	94
493.18	86
493.398	96
493.615	96
493.833	92
494.05	83
494.268	109
494.485	100
494.703	97
494.92	102
495.138	89
495.355	96
495.573	99
495.79	91
496.008	86
496.225	103
496.442	109
496.66	96
496.877	116
497.094	99
497.312	100
497.529	107
497.746	99
497.963	92
498.181	93
498.398	99
498.615	98
498.832	101
499.049	92
499.267	108
499.484	101
499.701	101
499.918	87
500.135	111
500.352	118
500.569	111
500.786	120
501.003	108
501.22	108
501.437	105
501.654	102
501.871	97
502.088	92
502.305	94
502.522	96
502.739	112
502.956	98
503.172	94
503.389	103
503.606	100
503.823	95
504.04	103
504.256	117
504.473	107
504.69	82
504.907	89
505.123	101
505.34	101
505.557	96
505.773	92
505.99	92
506.207	92
506.423	86
506.64	86
506.856	110
507.073	96
507.289	91
507.506	100
507.722	99
507.939	91
508.155	98
508.372	84
508.588	91
508.805	90
509.021	98
509.238	100
509.454	95
509.67	95
509.887	96
510.103	96
510.319	77
510.536	84
510.752	96
510.968	91
511.184	91
511.401	86
511.617	95
511.833	95
512.049	97
512.265	92
512.481	102
512.698	92
512.914	111
513.13	101
513.346	88
513.562	95
513.778	103
513.994	92
514.21	91
514.426	92
514.642	81
514.858	84
515.074	85
515.29	93
515.506	86
515.721	91
515.937	100
516.153	91
516.369	98
516.585	84
516.801	96
517.016	85
517.232	79
517.448	99
517.664	109
517.879	83
518.095	81
518.311	93
518.527	91
518.742	97
518.958	95
519.173	87
519.389	96
519.605	96
519.82	101
520.036	90
520.251	93
520.467	97
520.682	83
520.898	100
521.113	90
521.329	89
521.544	85
521.76	84
521.975	85
522.19	98
522.406	95
522.621	101
522.836	96
523.052	84
523.267	89
523.482	101
523.698	106
523.913	78
524.128	90
524.343	92
524.559	109
524.774	89
524.989	92
525.204	97
525.419	86
525.634	78
525.849	86
526.064	91
526.28	98
526.495	82
526.71	104
526.925	98
527.14	87
527.355	96
527.57	98
527.785	76
527.999	76
528.214	77
528.429	85
528.644	105
528.859	105
529.074	90
529.289	106
529.503	91
529.718	82
529.933	99
530.148	86
530.363	83
530.577	101
530.792	101
531.007	87
531.221	82
531.436	92
531.651	90
531.865	94
532.08	80
532.295	74
532.509	91
532.724	93
532.938	86
533.153	86
533.367	86
533.582	84
533.796	100
534.011	91
534.225	94
534.44	91
534.654	101
534.868	81
535.083	90
535.297	90
535.511	105
535.726	106
535.94	95
536.154	82
536.369	85
536.583	91
536.797	98
537.011	86
537.225	96
537.44	85
537.654	85
537.868	100
538.082	96
538.296	86
538.51	87
538.724	91
538.938	94
539.153	82
539.367	96
539.581	102
539.795	88
540.009	88
540.222	87
540.436	96
540.65	101
540.864	98
541.078	87
541.292	91
541.506	89
541.72	72
541.934	95
542.147	86
542.361	95
542.575	84
542.789	91
543.002	95
543.216	78
543.43	100
543.644	97
543.857	96
544.071	89
544.285	104
544.498	103
544.712	83
544.925	85
545.139	99
545.352	91
545.566	85
545.779	85
545.993	87
546.206	82
546.42	91
546.633	89
546.847	91
547.06	94
547.274	89
547.487	107
547.7	98
547.914	89
548.127	95
548.34	88
548.554	93
548.767	90
548.98	86
549.193	92
549.407	97
549.62	84
549.833	76
550.046	76
550.259	95
550.473	75
550.686	97
550.899	90
551.112	101
551.325	86
551.538	95
551.751	81
551.964	77
552.177	101
552.39	92
552.603	95
552.816	102
553.029	95
553.242	88
553.455	86
553.667	100
553.88	88
554.093	104
554.306	84
554.519	108
554.732	87
554.944	76
555.157	97
555.37	99
555.583	84
555.795	95
556.008	102
556.221	88
556.433	87
556.646	85
556.859	83
557.071	99
557.284	100
557.496	87
557.709	93
557.921	85
558.134	91
558.346	93
558.559	91
558.771	91
558.984	89
559.196	95
559.409	97
559.621	80
559.833	87
560.046	88
560.258	83
560.47	92
560.683	85
560.895	92
561.107	81
561.32	90
561.532	90
561.744	88
561.956	90
562.168	88
562.381	94
562.593	87
562.805	87
563.017	84
563.229	92
563.441	88
563.653	80
563.865	88
564.077	81
564.289	88
564.501	97
564.713	86
564.925	81
565.137	85
565.349	87
565.561	85
565.773	90
565.985	93
566.197	83
566.408	97
566.62	95
566.832	91
567.044	79
567.255	98
567.467	85
567.679	93
567.891	87
568.102	78
568.314	86
568.526	91
568.737	97
568.949	99
569.161	95
569.372	97
569.584	86
569.795	93
570.007	77
570.218	87
570.43	84
570.641	83
570.853	79
571.064	69
571.276	83
571.487	83
571.698	91
571.91	89
572.121	80
572.333	87
572.544	89
572.755	93
572.966	84
573.178	89
573.389	98
573.6	88
573.811	82
574.023	84
574.234	90
574.445	85
574.656	85
574.867	88
575.078	79
575.289	77
575.501	88
575.712	98
575.923	65
576.134	86
576.345	104
576.556	83
576.767	80
576.978	101
577.188	89
577.399	74
577.61	82
577.821	92
578.032	80
578.243	88
578.454	98
578.665	81
578.875	99
579.086	79
579.297	86
579.508	90
579.718	69
579.929	94
580.14	92
580.35	75
580.561	88
580.772	92
580.982	93
581.193	79
581.403	88
581.614	93
581.825	98
582.035	82
582.246	97
582.456	102
582.667	96
582.877	78
583.087	88
583.298	97
583.508	94
583.719	94
583.929	76
584.139	77
584.35	94
584.56	75
584.77	77
584.981	80
585.191	99
585.401	90
585.611	78
585.821	80
586.032	80
586.242	73
586.452	74
586.662	88
586.872	88
587.082	99
587.292	87
587.502	94
587.713	73
587.923	99
588.133	93
588.343	100
588.553	77
588.762	83
588.972	91
589.182	73
589.392	80
589.602	85
589.812	88
590.022	96
590.232	87
590.441	82
590.651	77
590.861	91
591.071	91
591.281	85
591.49	88
591.7	93
591.91	98
592.119	98
592.329	85
592.539	86
592.748	84
592.958	86
593.167	84
593.377	83
593.587	87
593.796	82
594.006	108
594.215	97
594.424	92
594.634	99
594.843	86
595.053	83
595.262	94
595.472	94
595.681	88
595.89	99
596.1	96
596.309	84
596.518	81
596.727	91
596.937	95
597.146	95
597.355	74
597.564	72
597.774	85
597.983	94
598.192	83
598.401	84
598.61	85
598.819	92
599.028	88
599.237	90
599.446	90
599.655	87
599.864	97
600.073	76
600.282	84
600.491	98
600.7	92
600.909	90
601.118	87
601.327	81
601.536	86
601.745	77
601.953	78
602.162	84
602.371	98
602.58	79
602.789	67
602.997	78
603.206	85
603.415	96
603.623	87
603.832	95
604.041	89
604.249	85
604.458	74
604.666	76
604.875	77
605.084	80
605.292	87
605.501	78
605.709	85
605.918	94
606.126	87
606.334	82
606.543	93
606.751	98
606.96	81
607.168	90
607.376	86
607.585	73
607.793	73
608.001	82
608.21	84
608.418	85
608.626	84
608.834	92
609.043	71
609.251	86
609.459	74
609.667	87
609.875	86
610.083	86
610.291	87
610.499	82
610.707	79
610.916	91
611.124	92
611.332	80
611.54	89
611.748	75
611.955	92
612.163	77
612.371	77
612.579	92
612.787	89
612.995	90
613.203	104
613.411	95
613.618	87
613.826	87
614.034	88
614.242	95
614.449	86
614.657	87
614.865	86
615.072	82
615.28	95
615.488	84
615.695	84
615.903	98
616.111	96
616.318	83
616.526	82
616.733	84
616.941	99
617.148	95
617.356	79
617.563	78
617.771	74
617.978	98
618.185	73
618.393	100
618.6	83
618.807	86
619.015	76
619.222	85
619.429	95
619.637	86
619.844	85
620.051	84
620.258	79
620.466	92
620.673	96
620.88	101
621.087	83
621.294	93
621.501	94
621.708	95
621.915	63
622.122	82
622.329	91
622.536	90
622.743	85
622.95	81
623.157	75
623.364	76
623.571	83
623.778	76
623.985	80
624.192	88
624.399	87
624.606	99
624.812	87
625.019	97
625.226	90
625.433	75
625.639	86
625.846	77
626.053	84
626.259	96
626.466	97
626.673	84
626.879	80
627.086	77
627.293	91
627.499	91
627.706	84
627.912	91
628.119	87
628.325	84
628.532	94
628.738	80
628.945	77
629.151	81
629.357	79
629.564	86
629.77	85
629.976	91
630.183	84
630.389	89
630.595	88
630.802	87
631.008	80
631.214	102
631.42	83
631.627	88
631.833	83
632.039	91
632.245	95
632.451	92
632.657	79
632.863	85
633.069	88
633.275	70
633.481	84
633.688	104
633.893	95
634.099	79
634.305	75
634.511	87
634.717	103
634.923	86
635.129	96
635.335	85
635.541	98
635.747	79
635.952	83
636.158	78
636.364	104
636.57	92
636.775	83
636.981	93
637.187	86
637.392	77
637.598	84
637.804	93
638.009	72
638.215	85
638.421	85
638.626	100
638.832	86
639.037	86
639.243	76
639.448	87
639.654	89
639.859	86
640.065	88
640.27	83
640.475	74
640.681	81
640.886	93
641.091	82
641.297	91
641.502	93
641.707	86
641.913	75
642.118	85
642.323	83
642.528	78
642.733	84
642.939	86
643.144	85
643.349	86
643.554	83
643.759	86
643.964	90
644.169	81
644.374	90
644.579	92
644.784	89
644.989	72
645.194	78
645.399	95
645.604	88
645.809	84
646.014	82
646.219	86
646.423	87
646.628	82
646.833	82
647.038	101
647.243	75
647.447	86
647.652	86
647.857	95
648.062	74
648.266	89
648.471	78
648.676	84
648.88	76
649.085	91
649.289	71
649.494	89
649.698	81
649.903	83
650.107	79
650.312	82
650.516	91
650.721	82
650.925	93
651.13	94
651.334	86
651.539	80
651.743	95
651.947	92
652.152	94
652.356	79
652.56	96
652.764	74
652.969	92
653.173	81
653.377	83
653.581	80
653.785	86
653.99	89
654.194	83
654.398	85
654.602	90
654.806	90
655.01	88
655.214	88
655.418	79
655.622	90
655.826	72
656.03	86
656.234	85
656.438	93
656.642	79
656.846	76
657.049	75
657.253	80
657.457	88
657.661	84
657.865	93
658.068	79
658.272	80
658.476	93
658.68	87
658.883	93
659.087	88
659.291	84
659.494	83
659.698	86
659.901	69
660.105	84
660.309	88
660.512	81
660.716	85
660.919	101
661.123	88
661.326	83
661.53	86
661.733	86
661.936	91
662.14	75
662.343	80
662.546	83
662.75	76
662.953	80
663.156	81
663.36	70
663.563	70
663.766	78
663.969	86
664.173	97
664.376	94
664.579	88
664.782	79
664.985	93
665.188	85
665.391	89
665.594	79
665.797	81
666	80
666.203	87
666.406	82
666.609	89
666.812	83
667.015	84
667.218	76
667.421	69
667.624	85
667.827	84
668.03	85
668.232	89
668.435	74
668.638	96
668.841	83
669.043	91
669.246	85
669.449	81
669.651	80
669.854	84
670.057	85
670.259	70
670.462	79
670.665	85
670.867	75
671.07	82
671.272	80
671.475	94
671.677	93
671.88	102
672.082	92
672.284	75
672.487	89
672.689	83
672.892	92
