Data from NickelSpatula.Lamp.E5.5.P2_HRD10591_11-51-37-560.txt Node
Date: Tue Jul 23 11:51:37 EDT 2019
User: cochatt
Spectrometer: HR+D1059
Trigger mode: 1
Integration Time (sec): 1.000000E-1
Scans to average: 1
Electric dark correction enabled: true
Nonlinearity correction enabled: false
Boxcar width: 0
XAxis mode: Wavelengths
Number of Pixels in Spectrum: 2048
>>>>>Begin Spectral Data<<<<<
223.165	-1.81
223.4	-1.81
223.635	-1.81
223.869	-13.81
224.104	-18.81
224.338	-17.81
224.573	-16.81
224.808	-13.81
225.042	-12.81
225.277	-4.81
225.511	-14.81
225.746	5.19
225.98	20.19
226.215	5.19
226.449	15.19
226.683	28.19
226.918	10.19
227.152	31.19
227.387	18.19
227.621	47.19
227.856	49.19
228.09	54.19
228.324	54.19
228.559	56.19
228.793	55.19
229.027	77.19
229.262	59.19
229.496	81.19
229.73	85.19
229.964	87.19
230.199	101.19
230.433	95.19
230.667	97.19
230.901	99.19
231.136	96.19
231.37	109.19
231.604	102.19
231.838	117.19
232.072	103.19
232.306	112.19
232.541	109.19
232.775	107.19
233.009	114.19
233.243	100.19
233.477	119.19
233.711	137.19
233.945	112.19
234.179	121.19
234.413	121.19
234.647	133.19
234.881	121.19
235.115	141.19
235.349	140.19
235.583	126.19
235.817	129.19
236.051	120.19
236.285	127.19
236.519	132.19
236.753	126.19
236.987	141.19
237.221	133.19
237.455	130.19
237.689	136.19
237.922	131.19
238.156	138.19
238.39	141.19
238.624	168.19
238.858	162.19
239.091	136.19
239.325	145.19
239.559	122.19
239.793	131.19
240.027	159.19
240.26	158.19
240.494	154.19
240.728	135.19
240.961	171.19
241.195	157.19
241.429	154.19
241.662	153.19
241.896	139.19
242.13	140.19
242.363	132.19
242.597	142.19
242.83	146.19
243.064	153.19
243.298	166.19
243.531	152.19
243.765	162.19
243.998	154.19
244.232	163.19
244.465	159.19
244.699	137.19
244.932	173.19
245.166	165.19
245.399	155.19
245.633	156.19
245.866	148.19
246.099	160.19
246.333	169.19
246.566	182.19
246.8	168.19
247.033	179.19
247.266	167.19
247.5	163.19
247.733	168.19
247.966	156.19
248.2	166.19
248.433	181.19
248.666	200.19
248.899	187.19
249.133	196.19
249.366	199.19
249.599	234.19
249.832	212.19
250.066	196.19
250.299	205.19
250.532	197.19
250.765	200.19
250.998	192.19
251.231	154.19
251.465	189.19
251.698	176.19
251.931	182.19
252.164	200.19
252.397	204.19
252.63	227.19
252.863	244.19
253.096	273.19
253.329	240.19
253.562	242.19
253.795	269.19
254.028	274.19
254.261	277.19
254.494	253.19
254.727	238.19
254.96	223.19
255.193	231.19
255.426	215.19
255.659	192.19
255.892	193.19
256.124	199.19
256.357	239.19
256.59	256.19
256.823	247.19
257.056	213.19
257.289	193.19
257.521	216.19
257.754	240.19
257.987	275.19
258.22	252.19
258.452	229.19
258.685	249.19
258.918	259.19
259.151	265.19
259.383	279.19
259.616	316.19
259.849	323.19
260.081	335.19
260.314	382.19
260.547	321.19
260.779	322.19
261.012	375.19
261.244	344.19
261.477	323.19
261.71	333.19
261.942	275.19
262.175	282.19
262.407	270.19
262.64	276.19
262.872	304.19
263.105	329.19
263.337	355.19
263.57	304.19
263.802	223.19
264.035	215.19
264.267	205.19
264.499	197.19
264.732	166.19
264.964	182.19
265.197	183.19
265.429	182.19
265.661	192.19
265.894	193.19
266.126	213.19
266.358	226.19
266.591	268.19
266.823	316.19
267.055	316.19
267.287	264.19
267.52	278.19
267.752	290.19
267.984	296.19
268.216	316.19
268.448	269.19
268.681	245.19
268.913	273.19
269.145	274.19
269.377	290.19
269.609	273.19
269.841	269.19
270.073	283.19
270.306	289.19
270.538	303.19
270.77	287.19
271.002	315.19
271.234	315.19
271.466	324.19
271.698	302.19
271.93	305.19
272.162	288.19
272.394	289.19
272.626	285.19
272.858	290.19
273.09	305.19
273.322	284.19
273.553	251.19
273.785	303.19
274.017	369.19
274.249	448.19
274.481	463.19
274.713	505.19
274.945	561.19
275.176	594.19
275.408	511.19
275.64	504.19
275.872	491.19
276.104	429.19
276.335	382.19
276.567	380.19
276.799	383.19
277.031	396.19
277.262	344.19
277.494	259.19
277.726	262.19
277.957	271.19
278.189	294.19
278.421	292.19
278.652	279.19
278.884	312.19
279.115	273.19
279.347	259.19
279.579	243.19
279.81	273.19
280.042	263.19
280.273	270.19
280.505	249.19
280.736	216.19
280.968	246.19
281.199	238.19
281.431	264.19
281.662	275.19
281.894	260.19
282.125	277.19
282.356	292.19
282.588	287.19
282.819	248.19
283.051	300.19
283.282	341.19
283.513	384.19
283.745	423.19
283.976	425.19
284.207	372.19
284.439	384.19
284.67	384.19
284.901	356.19
285.132	365.19
285.364	401.19
285.595	366.19
285.826	377.19
286.057	380.19
286.288	371.19
286.52	385.19
286.751	398.19
286.982	398.19
287.213	352.19
287.444	354.19
287.675	340.19
287.906	374.19
288.138	333.19
288.369	286.19
288.6	291.19
288.831	293.19
289.062	345.19
289.293	352.19
289.524	333.19
289.755	327.19
289.986	318.19
290.217	315.19
290.448	261.19
290.679	235.19
290.91	221.19
291.141	207.19
291.371	230.19
291.602	238.19
291.833	245.19
292.064	244.19
292.295	286.19
292.526	289.19
292.757	304.19
292.987	325.19
293.218	307.19
293.449	331.19
293.68	348.19
293.91	336.19
294.141	342.19
294.372	312.19
294.603	307.19
294.833	335.19
295.064	381.19
295.295	375.19
295.525	301.19
295.756	242.19
295.987	243.19
296.217	217.19
296.448	240.19
296.679	248.19
296.909	240.19
297.14	270.19
297.37	300.19
297.601	286.19
297.831	251.19
298.062	279.19
298.292	293.19
298.523	313.19
298.753	352.19
298.984	336.19
299.214	277.19
299.445	242.19
299.675	219.19
299.905	241.19
300.136	243.19
300.366	240.19
300.597	237.19
300.827	255.19
301.057	224.19
301.288	229.19
301.518	252.19
301.748	296.19
301.979	305.19
302.209	303.19
302.439	317.19
302.669	291.19
302.9	257.19
303.13	261.19
303.36	260.19
303.59	244.19
303.82	235.19
304.051	281.19
304.281	299.19
304.511	286.19
304.741	252.19
304.971	246.19
305.201	286.19
305.431	264.19
305.661	235.19
305.891	225.19
306.121	240.19
306.352	212.19
306.582	195.19
306.812	216.19
307.042	193.19
307.272	192.19
307.502	205.19
307.731	206.19
307.961	222.19
308.191	217.19
308.421	192.19
308.651	196.19
308.881	196.19
309.111	187.19
309.341	183.19
309.571	205.19
309.8	185.19
310.03	215.19
310.26	239.19
310.49	215.19
310.72	191.19
310.949	194.19
311.179	209.19
311.409	220.19
311.639	241.19
311.868	281.19
312.098	348.19
312.328	377.19
312.557	350.19
312.787	375.19
313.017	331.19
313.246	356.19
313.476	383.19
313.706	333.19
313.935	279.19
314.165	247.19
314.394	223.19
314.624	225.19
314.853	224.19
315.083	229.19
315.312	228.19
315.542	204.19
315.771	216.19
316.001	196.19
316.23	192.19
316.46	194.19
316.689	190.19
316.919	194.19
317.148	205.19
317.377	224.19
317.607	208.19
317.836	223.19
318.065	231.19
318.295	251.19
318.524	248.19
318.753	214.19
318.983	196.19
319.212	203.19
319.441	193.19
319.67	236.19
319.9	255.19
320.129	245.19
320.358	217.19
320.587	208.19
320.816	220.19
321.046	231.19
321.275	277.19
321.504	266.19
321.733	277.19
321.962	247.19
322.191	237.19
322.42	252.19
322.649	245.19
322.878	236.19
323.108	246.19
323.337	251.19
323.566	230.19
323.795	235.19
324.024	222.19
324.253	203.19
324.482	214.19
324.71	239.19
324.939	247.19
325.168	247.19
325.397	223.19
325.626	213.19
325.855	205.19
326.084	203.19
326.313	225.19
326.542	213.19
326.77	209.19
326.999	229.19
327.228	220.19
327.457	235.19
327.686	233.19
327.914	205.19
328.143	204.19
328.372	196.19
328.6	194.19
328.829	232.19
329.058	204.19
329.287	191.19
329.515	220.19
329.744	224.19
329.972	185.19
330.201	195.19
330.43	195.19
330.658	212.19
330.887	214.19
331.115	216.19
331.344	224.19
331.572	228.19
331.801	243.19
332.03	204.19
332.258	210.19
332.486	216.19
332.715	224.19
332.943	231.19
333.172	223.19
333.4	225.19
333.629	250.19
333.857	279.19
334.085	255.19
334.314	241.19
334.542	261.19
334.771	240.19
334.999	227.19
335.227	217.19
335.455	203.19
335.684	247.19
335.912	268.19
336.14	285.19
336.369	276.19
336.597	271.19
336.825	303.19
337.053	319.19
337.281	263.19
337.51	229.19
337.738	219.19
337.966	232.19
338.194	253.19
338.422	245.19
338.65	214.19
338.878	206.19
339.106	205.19
339.334	217.19
339.562	238.19
339.79	215.19
340.018	228.19
340.246	220.19
340.474	261.19
340.702	270.19
340.93	260.19
341.158	281.19
341.386	240.19
341.614	218.19
341.842	245.19
342.07	251.19
342.298	256.19
342.526	287.19
342.754	242.19
342.981	235.19
343.209	236.19
343.437	255.19
343.665	285.19
343.893	269.19
344.12	292.19
344.348	340.19
344.576	321.19
344.804	259.19
345.031	211.19
345.259	221.19
345.487	224.19
345.714	214.19
345.942	255.19
346.17	256.19
346.397	252.19
346.625	232.19
346.853	228.19
347.08	222.19
347.308	235.19
347.535	258.19
347.763	255.19
347.99	257.19
348.218	221.19
348.445	225.19
348.673	253.19
348.9	236.19
349.128	223.19
349.355	255.19
349.583	259.19
349.81	219.19
350.037	237.19
350.265	200.19
350.492	193.19
350.72	193.19
350.947	204.19
351.174	217.19
351.402	214.19
351.629	227.19
351.856	224.19
352.083	204.19
352.311	202.19
352.538	239.19
352.765	253.19
352.992	226.19
353.22	231.19
353.447	209.19
353.674	220.19
353.901	216.19
354.128	216.19
354.355	223.19
354.583	229.19
354.81	219.19
355.037	239.19
355.264	238.19
355.491	236.19
355.718	249.19
355.945	267.19
356.172	255.19
356.399	260.19
356.626	268.19
356.853	334.19
357.08	341.19
357.307	357.19
357.534	282.19
357.761	303.19
357.988	364.19
358.215	389.19
358.441	377.19
358.668	316.19
358.895	321.19
359.122	254.19
359.349	267.19
359.576	296.19
359.802	279.19
360.029	219.19
360.256	227.19
360.483	270.19
360.709	324.19
360.936	329.19
361.163	284.19
361.39	239.19
361.616	226.19
361.843	255.19
362.07	288.19
362.296	272.19
362.523	240.19
362.749	215.19
362.976	219.19
363.203	254.19
363.429	287.19
363.656	241.19
363.882	239.19
364.109	221.19
364.335	242.19
364.562	213.19
364.788	243.19
365.015	282.19
365.241	228.19
365.468	231.19
365.694	199.19
365.92	193.19
366.147	188.19
366.373	189.19
366.599	190.19
366.826	199.19
367.052	201.19
367.278	201.19
367.505	181.19
367.731	193.19
367.957	232.19
368.184	236.19
368.41	199.19
368.636	217.19
368.862	240.19
369.089	237.19
369.315	203.19
369.541	210.19
369.767	221.19
369.993	189.19
370.219	182.19
370.445	200.19
370.672	219.19
370.898	257.19
371.124	234.19
371.35	218.19
371.576	219.19
371.802	208.19
372.028	256.19
372.254	309.19
372.48	236.19
372.706	243.19
372.932	255.19
373.158	248.19
373.384	291.19
373.61	363.19
373.835	358.19
374.061	296.19
374.287	279.19
374.513	322.19
374.739	354.19
374.965	341.19
375.191	336.19
375.416	252.19
375.642	226.19
375.868	269.19
376.094	306.19
376.319	251.19
376.545	285.19
376.771	269.19
376.997	258.19
377.222	210.19
377.448	181.19
377.674	182.19
377.899	207.19
378.125	196.19
378.35	185.19
378.576	205.19
378.802	215.19
379.027	206.19
379.253	212.19
379.478	215.19
379.704	240.19
379.929	251.19
380.155	240.19
380.38	230.19
380.606	229.19
380.831	243.19
381.057	238.19
381.282	233.19
381.507	259.19
381.733	291.19
381.958	309.19
382.184	332.19
382.409	345.19
382.634	346.19
382.86	343.19
383.085	296.19
383.31	257.19
383.535	275.19
383.761	281.19
383.986	257.19
384.211	305.19
384.436	313.19
384.662	237.19
384.887	230.19
385.112	227.19
385.337	251.19
385.562	229.19
385.787	266.19
386.013	289.19
386.238	274.19
386.463	229.19
386.688	233.19
386.913	207.19
387.138	203.19
387.363	238.19
387.588	235.19
387.813	236.19
388.038	249.19
388.263	232.19
388.488	220.19
388.713	257.19
388.938	284.19
389.163	224.19
389.387	215.19
389.612	225.19
389.837	235.19
390.062	239.19
390.287	246.19
390.512	235.19
390.736	240.19
390.961	221.19
391.186	207.19
391.411	218.19
391.636	210.19
391.86	254.19
392.085	260.19
392.31	262.19
392.534	246.19
392.759	228.19
392.984	253.19
393.208	228.19
393.433	216.19
393.658	208.19
393.882	202.19
394.107	204.19
394.331	221.19
394.556	208.19
394.78	194.19
395.005	211.19
395.229	215.19
395.454	216.19
395.678	219.19
395.903	223.19
396.127	216.19
396.352	217.19
396.576	223.19
396.801	239.19
397.025	258.19
397.249	256.19
397.474	224.19
397.698	211.19
397.922	249.19
398.147	246.19
398.371	229.19
398.595	241.19
398.82	252.19
399.044	229.19
399.268	260.19
399.492	284.19
399.717	288.19
399.941	280.19
400.165	299.19
400.389	257.19
400.613	241.19
400.837	247.19
401.062	222.19
401.286	216.19
401.51	238.19
401.734	235.19
401.958	240.19
402.182	224.19
402.406	241.19
402.63	230.19
402.854	239.19
403.078	288.19
403.302	343.19
403.526	373.19
403.75	329.19
403.974	289.19
404.198	294.19
404.422	307.19
404.645	322.19
404.869	342.19
405.093	279.19
405.317	235.19
405.541	249.19
405.765	264.19
405.988	270.19
406.212	262.19
406.436	314.19
406.66	305.19
406.883	280.19
407.107	271.19
407.331	327.19
407.555	314.19
407.778	283.19
408.002	278.19
408.226	270.19
408.449	273.19
408.673	274.19
408.896	234.19
409.12	232.19
409.344	239.19
409.567	227.19
409.791	233.19
410.014	260.19
410.238	257.19
410.461	255.19
410.685	232.19
410.908	231.19
411.132	252.19
411.355	249.19
411.578	254.19
411.802	228.19
412.025	250.19
412.249	256.19
412.472	246.19
412.695	243.19
412.919	256.19
413.142	249.19
413.365	265.19
413.589	269.19
413.812	238.19
414.035	236.19
414.258	234.19
414.482	274.19
414.705	257.19
414.928	228.19
415.151	237.19
415.374	230.19
415.597	222.19
415.821	222.19
416.044	221.19
416.267	243.19
416.49	227.19
416.713	222.19
416.936	222.19
417.159	211.19
417.382	236.19
417.605	227.19
417.828	232.19
418.051	235.19
418.274	237.19
418.497	251.19
418.72	251.19
418.943	237.19
419.166	264.19
419.389	263.19
419.611	248.19
419.834	255.19
420.057	269.19
420.28	262.19
420.503	259.19
420.726	234.19
420.948	239.19
421.171	247.19
421.394	224.19
421.617	231.19
421.839	239.19
422.062	243.19
422.285	240.19
422.507	244.19
422.73	235.19
422.953	260.19
423.175	226.19
423.398	239.19
423.621	269.19
423.843	260.19
424.066	264.19
424.288	241.19
424.511	246.19
424.733	250.19
424.956	238.19
425.178	283.19
425.401	315.19
425.623	345.19
425.846	296.19
426.068	249.19
426.291	260.19
426.513	260.19
426.735	242.19
426.958	261.19
427.18	268.19
427.402	356.19
427.625	348.19
427.847	312.19
428.069	243.19
428.292	219.19
428.514	230.19
428.736	237.19
428.958	242.19
429.181	313.19
429.403	272.19
429.625	239.19
429.847	219.19
430.069	248.19
430.292	239.19
430.514	225.19
430.736	230.19
430.958	272.19
431.18	247.19
431.402	227.19
431.624	219.19
431.846	206.19
432.068	211.19
432.29	220.19
432.512	230.19
432.734	279.19
432.956	285.19
433.178	240.19
433.4	211.19
433.622	223.19
433.844	229.19
434.066	254.19
434.287	245.19
434.509	223.19
434.731	256.19
434.953	230.19
435.175	240.19
435.397	280.19
435.618	238.19
435.84	219.19
436.062	213.19
436.284	221.19
436.505	204.19
436.727	220.19
436.949	210.19
437.17	224.19
437.392	222.19
437.614	216.19
437.835	196.19
438.057	221.19
438.278	258.19
438.5	304.19
438.721	319.19
438.943	225.19
439.165	208.19
439.386	214.19
439.608	205.19
439.829	216.19
440.05	218.19
440.272	222.19
440.493	255.19
440.715	277.19
440.936	230.19
441.158	237.19
441.379	235.19
441.6	244.19
441.822	249.19
442.043	218.19
442.264	226.19
442.486	237.19
442.707	220.19
442.928	231.19
443.149	238.19
443.371	231.19
443.592	247.19
443.813	237.19
444.034	252.19
444.255	262.19
444.476	268.19
444.698	260.19
444.919	258.19
445.14	344.19
445.361	303.19
445.582	240.19
445.803	252.19
446.024	239.19
446.245	232.19
446.466	257.19
446.687	236.19
446.908	213.19
447.129	232.19
447.35	214.19
447.571	227.19
447.792	220.19
448.013	201.19
448.234	206.19
448.455	204.19
448.675	208.19
448.896	210.19
449.117	222.19
449.338	208.19
449.559	205.19
449.779	210.19
450	232.19
450.221	224.19
450.442	214.19
450.662	220.19
450.883	237.19
451.104	211.19
451.324	200.19
451.545	239.19
451.766	222.19
451.986	211.19
452.207	197.19
452.428	199.19
452.648	196.19
452.869	206.19
453.089	236.19
453.31	231.19
453.53	207.19
453.751	197.19
453.971	204.19
454.192	209.19
454.412	212.19
454.633	208.19
454.853	222.19
455.073	210.19
455.294	209.19
455.514	201.19
455.734	213.19
455.955	218.19
456.175	231.19
456.395	201.19
456.616	195.19
456.836	194.19
457.056	198.19
457.276	199.19
457.497	193.19
457.717	198.19
457.937	213.19
458.157	220.19
458.377	202.19
458.598	196.19
458.818	205.19
459.038	228.19
459.258	239.19
459.478	230.19
459.698	249.19
459.918	238.19
460.138	227.19
460.358	240.19
460.578	223.19
460.798	238.19
461.018	251.19
461.238	240.19
461.458	231.19
461.678	248.19
461.898	252.19
462.118	231.19
462.338	251.19
462.558	266.19
462.777	263.19
462.997	274.19
463.217	293.19
463.437	288.19
463.657	262.19
463.876	248.19
464.096	276.19
464.316	276.19
464.536	265.19
464.755	286.19
464.975	283.19
465.195	256.19
465.414	265.19
465.634	246.19
465.854	244.19
466.073	217.19
466.293	217.19
466.512	235.19
466.732	254.19
466.951	269.19
467.171	256.19
467.391	231.19
467.61	218.19
467.829	240.19
468.049	239.19
468.268	226.19
468.488	231.19
468.707	212.19
468.927	255.19
469.146	279.19
469.365	248.19
469.585	238.19
469.804	231.19
470.023	261.19
470.243	239.19
470.462	228.19
470.681	243.19
470.901	219.19
471.12	252.19
471.339	252.19
471.558	226.19
471.777	244.19
471.997	234.19
472.216	273.19
472.435	254.19
472.654	254.19
472.873	240.19
473.092	264.19
473.311	269.19
473.53	235.19
473.749	251.19
473.968	251.19
474.187	239.19
474.406	254.19
474.625	243.19
474.844	235.19
475.063	250.19
475.282	244.19
475.501	296.19
475.72	293.19
475.939	263.19
476.158	280.19
476.377	294.19
476.596	327.19
476.814	342.19
477.033	310.19
477.252	269.19
477.471	242.19
477.69	243.19
477.908	262.19
478.127	257.19
478.346	270.19
478.564	293.19
478.783	260.19
479.002	275.19
479.22	305.19
479.439	337.19
479.658	281.19
479.876	272.19
480.095	301.19
480.313	296.19
480.532	287.19
480.751	278.19
480.969	278.19
481.188	289.19
481.406	306.19
481.624	287.19
481.843	262.19
482.061	274.19
482.28	290.19
482.498	349.19
482.717	338.19
482.935	284.19
483.153	270.19
483.372	267.19
483.59	245.19
483.808	265.19
484.027	240.19
484.245	239.19
484.463	259.19
484.681	249.19
484.9	270.19
485.118	281.19
485.336	261.19
485.554	279.19
485.772	267.19
485.99	288.19
486.209	303.19
486.427	289.19
486.645	262.19
486.863	289.19
487.081	293.19
487.299	313.19
487.517	303.19
487.735	277.19
487.953	271.19
488.171	293.19
488.389	275.19
488.607	270.19
488.825	286.19
489.043	282.19
489.261	309.19
489.479	324.19
489.696	263.19
489.914	275.19
490.132	268.19
490.35	289.19
490.568	269.19
490.786	267.19
491.003	268.19
491.221	293.19
491.439	262.19
491.657	259.19
491.874	275.19
492.092	336.19
492.31	363.19
492.527	355.19
492.745	320.19
492.963	293.19
493.18	297.19
493.398	287.19
493.615	303.19
493.833	280.19
494.05	289.19
494.268	287.19
494.485	292.19
494.703	287.19
494.92	280.19
495.138	265.19
495.355	276.19
495.573	297.19
495.79	303.19
496.008	363.19
496.225	328.19
496.442	293.19
496.66	309.19
496.877	319.19
497.094	304.19
497.312	268.19
497.529	295.19
497.746	297.19
497.963	310.19
498.181	330.19
498.398	340.19
498.615	347.19
498.832	381.19
499.049	376.19
499.267	373.19
499.484	367.19
499.701	424.19
499.918	446.19
500.135	487.19
500.352	540.19
500.569	567.19
500.786	555.19
501.003	545.19
501.22	490.19
501.437	430.19
501.654	404.19
501.871	391.19
502.088	370.19
502.305	357.19
502.522	322.19
502.739	345.19
502.956	320.19
503.172	312.19
503.389	301.19
503.606	300.19
503.823	294.19
504.04	287.19
504.256	295.19
504.473	327.19
504.69	329.19
504.907	304.19
505.123	317.19
505.34	305.19
505.557	309.19
505.773	309.19
505.99	303.19
506.207	305.19
506.423	280.19
506.64	278.19
506.856	282.19
507.073	307.19
507.289	292.19
507.506	311.19
507.722	306.19
507.939	317.19
508.155	327.19
508.372	299.19
508.588	299.19
508.805	288.19
509.021	277.19
509.238	266.19
509.454	273.19
509.67	258.19
509.887	269.19
510.103	273.19
510.319	280.19
510.536	280.19
510.752	270.19
510.968	247.19
511.184	248.19
511.401	242.19
511.617	261.19
511.833	252.19
512.049	248.19
512.265	263.19
512.481	278.19
512.698	269.19
512.914	320.19
513.13	279.19
513.346	269.19
513.562	268.19
513.778	263.19
513.994	294.19
514.21	283.19
514.426	256.19
514.642	261.19
514.858	265.19
515.074	272.19
515.29	292.19
515.506	319.19
515.721	296.19
515.937	289.19
516.153	255.19
516.369	259.19
516.585	285.19
516.801	295.19
517.016	348.19
517.232	346.19
517.448	345.19
517.664	317.19
517.879	319.19
518.095	333.19
518.311	317.19
518.527	336.19
518.742	327.19
518.958	348.19
519.173	307.19
519.389	319.19
519.605	326.19
519.82	343.19
520.036	365.19
520.251	371.19
520.467	366.19
520.682	556.19
520.898	676.19
521.113	659.19
521.329	429.19
521.544	349.19
521.76	336.19
521.975	299.19
522.19	305.19
522.406	301.19
522.621	308.19
522.836	353.19
523.052	335.19
523.267	304.19
523.482	305.19
523.698	316.19
523.913	289.19
524.128	270.19
524.343	263.19
524.559	254.19
524.774	258.19
524.989	275.19
525.204	286.19
525.419	310.19
525.634	285.19
525.849	293.19
526.064	281.19
526.28	286.19
526.495	333.19
526.71	336.19
526.925	301.19
527.14	333.19
527.355	315.19
527.57	269.19
527.785	283.19
527.999	255.19
528.214	264.19
528.429	266.19
528.644	251.19
528.859	257.19
529.074	239.19
529.289	238.19
529.503	245.19
529.718	252.19
529.933	306.19
530.148	320.19
530.363	272.19
530.577	246.19
530.792	240.19
531.007	269.19
531.221	268.19
531.436	256.19
531.651	242.19
531.865	248.19
532.08	273.19
532.295	247.19
532.509	260.19
532.724	278.19
532.938	307.19
533.153	342.19
533.367	272.19
533.582	275.19
533.796	259.19
534.011	262.19
534.225	248.19
534.44	267.19
534.654	290.19
534.868	331.19
535.083	279.19
535.297	254.19
535.511	250.19
535.726	278.19
535.94	249.19
536.154	261.19
536.369	228.19
536.583	251.19
536.797	246.19
537.011	236.19
537.225	260.19
537.44	275.19
537.654	255.19
537.868	249.19
538.082	237.19
538.296	253.19
538.51	263.19
538.724	272.19
538.938	264.19
539.153	235.19
539.367	217.19
539.581	242.19
539.795	261.19
540.009	271.19
540.222	263.19
540.436	244.19
540.65	277.19
540.864	278.19
541.078	280.19
541.292	304.19
541.506	244.19
541.72	260.19
541.934	252.19
542.147	263.19
542.361	255.19
542.575	272.19
542.789	242.19
543.002	229.19
543.216	245.19
543.43	219.19
543.644	232.19
543.857	220.19
544.071	231.19
544.285	241.19
544.498	230.19
544.712	236.19
544.925	259.19
545.139	245.19
545.352	235.19
545.566	229.19
545.779	263.19
545.993	249.19
546.206	202.19
546.42	217.19
546.633	223.19
546.847	211.19
547.06	214.19
547.274	213.19
547.487	224.19
547.7	232.19
547.914	244.19
548.127	268.19
548.34	271.19
548.554	230.19
548.767	241.19
548.98	248.19
549.193	243.19
549.407	236.19
549.62	285.19
549.833	274.19
550.046	286.19
550.259	285.19
550.473	261.19
550.686	241.19
550.899	243.19
551.112	252.19
551.325	261.19
551.538	267.19
551.751	230.19
551.964	231.19
552.177	236.19
552.39	227.19
552.603	214.19
552.816	232.19
553.029	228.19
553.242	243.19
553.455	232.19
553.667	262.19
553.88	253.19
554.093	230.19
554.306	232.19
554.519	206.19
554.732	214.19
554.944	213.19
555.157	205.19
555.37	210.19
555.583	221.19
555.795	215.19
556.008	229.19
556.221	217.19
556.433	210.19
556.646	216.19
556.859	201.19
557.071	202.19
557.284	212.19
557.496	237.19
557.709	209.19
557.921	207.19
558.134	208.19
558.346	193.19
558.559	196.19
558.771	209.19
558.984	217.19
559.196	213.19
559.409	206.19
559.621	210.19
559.833	207.19
560.046	201.19
560.258	209.19
560.47	186.19
560.683	179.19
560.895	187.19
561.107	185.19
561.32	185.19
561.532	195.19
561.744	186.19
561.956	214.19
562.168	208.19
562.381	198.19
562.593	186.19
562.805	205.19
563.017	198.19
563.229	200.19
563.441	176.19
563.653	195.19
563.865	193.19
564.077	191.19
564.289	201.19
564.501	186.19
564.713	217.19
564.925	195.19
565.137	186.19
565.349	197.19
565.561	203.19
565.773	198.19
565.985	204.19
566.197	231.19
566.408	246.19
566.62	261.19
566.832	262.19
567.044	247.19
567.255	269.19
567.467	279.19
567.679	278.19
567.891	276.19
568.102	280.19
568.314	288.19
568.526	261.19
568.737	239.19
568.949	265.19
569.161	235.19
569.372	204.19
569.584	200.19
569.795	193.19
570.007	191.19
570.218	230.19
570.43	214.19
570.641	196.19
570.853	200.19
571.064	195.19
571.276	201.19
571.487	215.19
571.698	188.19
571.91	189.19
572.121	193.19
572.333	169.19
572.544	172.19
572.755	196.19
572.966	187.19
573.178	195.19
573.389	186.19
573.6	190.19
573.811	206.19
574.023	173.19
574.234	173.19
574.445	174.19
574.656	168.19
574.867	173.19
575.078	175.19
575.289	165.19
575.501	189.19
575.712	181.19
575.923	180.19
576.134	177.19
576.345	175.19
576.556	184.19
576.767	189.19
576.978	179.19
577.188	181.19
577.399	175.19
577.61	175.19
577.821	167.19
578.032	171.19
578.243	183.19
578.454	175.19
578.665	162.19
578.875	165.19
579.086	168.19
579.297	179.19
579.508	184.19
579.718	187.19
579.929	182.19
580.14	178.19
580.35	179.19
580.561	154.19
580.772	164.19
580.982	150.19
581.193	157.19
581.403	168.19
581.614	184.19
581.825	163.19
582.035	150.19
582.246	179.19
582.456	173.19
582.667	161.19
582.877	160.19
583.087	154.19
583.298	145.19
583.508	155.19
583.719	180.19
583.929	168.19
584.139	155.19
584.35	156.19
584.56	176.19
584.77	164.19
584.981	161.19
585.191	166.19
585.401	154.19
585.611	164.19
585.821	180.19
586.032	164.19
586.242	164.19
586.452	166.19
586.662	169.19
586.872	161.19
587.082	164.19
587.292	161.19
587.502	155.19
587.713	161.19
587.923	174.19
588.133	173.19
588.343	141.19
588.553	150.19
588.762	167.19
588.972	152.19
589.182	148.19
589.392	169.19
589.602	173.19
589.812	149.19
590.022	174.19
590.232	165.19
590.441	154.19
590.651	145.19
590.861	160.19
591.071	135.19
591.281	166.19
591.49	149.19
591.7	151.19
591.91	167.19
592.119	167.19
592.329	162.19
592.539	159.19
592.748	165.19
592.958	170.19
593.167	168.19
593.377	183.19
593.587	173.19
593.796	179.19
594.006	176.19
594.215	190.19
594.424	187.19
594.634	180.19
594.843	168.19
595.053	160.19
595.262	157.19
595.472	142.19
595.681	161.19
595.89	142.19
596.1	165.19
596.309	171.19
596.518	149.19
596.727	149.19
596.937	157.19
597.146	161.19
597.355	155.19
597.564	149.19
597.774	162.19
597.983	144.19
598.192	162.19
598.401	137.19
598.61	149.19
598.819	153.19
599.028	149.19
599.237	152.19
599.446	151.19
599.655	148.19
599.864	129.19
600.073	143.19
600.282	156.19
600.491	140.19
600.7	142.19
600.909	144.19
601.118	140.19
601.327	152.19
601.536	147.19
601.745	146.19
601.953	171.19
602.162	150.19
602.371	143.19
602.58	136.19
602.789	141.19
602.997	131.19
603.206	135.19
603.415	144.19
603.623	143.19
603.832	137.19
604.041	137.19
604.249	143.19
604.458	134.19
604.666	134.19
604.875	148.19
605.084	148.19
605.292	147.19
605.501	143.19
605.709	145.19
605.918	128.19
606.126	141.19
606.334	145.19
606.543	153.19
606.751	140.19
606.96	141.19
607.168	128.19
607.376	133.19
607.585	134.19
607.793	159.19
608.001	130.19
608.21	140.19
608.418	133.19
608.626	137.19
608.834	130.19
609.043	152.19
609.251	141.19
609.459	144.19
609.667	152.19
609.875	137.19
610.083	132.19
610.291	152.19
610.499	135.19
610.707	126.19
610.916	136.19
611.124	124.19
611.332	132.19
611.54	137.19
611.748	122.19
611.955	141.19
612.163	133.19
612.371	132.19
612.579	131.19
612.787	139.19
612.995	147.19
613.203	125.19
613.411	135.19
613.618	141.19
613.826	125.19
614.034	130.19
614.242	126.19
614.449	138.19
614.657	135.19
614.865	129.19
615.072	133.19
615.28	134.19
615.488	142.19
615.695	124.19
615.903	131.19
616.111	131.19
616.318	149.19
616.526	134.19
616.733	145.19
616.941	135.19
617.148	125.19
617.356	124.19
617.563	129.19
617.771	132.19
617.978	118.19
618.185	127.19
618.393	129.19
618.6	128.19
618.807	136.19
619.015	132.19
619.222	128.19
619.429	127.19
619.637	132.19
619.844	137.19
620.051	123.19
620.258	121.19
620.466	129.19
620.673	131.19
620.88	129.19
621.087	133.19
621.294	135.19
621.501	121.19
621.708	123.19
621.915	123.19
622.122	119.19
622.329	137.19
622.536	138.19
622.743	129.19
622.95	125.19
623.157	120.19
623.364	131.19
623.571	121.19
623.778	135.19
623.985	127.19
624.192	130.19
624.399	122.19
624.606	126.19
624.812	133.19
625.019	125.19
625.226	130.19
625.433	132.19
625.639	126.19
625.846	123.19
626.053	141.19
626.259	123.19
626.466	131.19
626.673	132.19
626.879	125.19
627.086	120.19
627.293	112.19
627.499	120.19
627.706	114.19
627.912	126.19
628.119	126.19
628.325	125.19
628.532	137.19
628.738	125.19
628.945	123.19
629.151	135.19
629.357	110.19
629.564	117.19
629.77	116.19
629.976	124.19
630.183	119.19
630.389	117.19
630.595	111.19
630.802	119.19
631.008	116.19
631.214	122.19
631.42	117.19
631.627	133.19
631.833	123.19
632.039	107.19
632.245	115.19
632.451	123.19
632.657	111.19
632.863	124.19
633.069	115.19
633.275	112.19
633.481	112.19
633.688	125.19
633.893	120.19
634.099	118.19
634.305	110.19
634.511	101.19
634.717	121.19
634.923	112.19
635.129	127.19
635.335	131.19
635.541	109.19
635.747	127.19
635.952	108.19
636.158	103.19
636.364	115.19
636.57	115.19
636.775	119.19
636.981	122.19
637.187	119.19
637.392	115.19
637.598	107.19
637.804	118.19
638.009	112.19
638.215	124.19
638.421	112.19
638.626	109.19
638.832	122.19
639.037	125.19
639.243	112.19
639.448	111.19
639.654	129.19
639.859	112.19
640.065	114.19
640.27	120.19
640.475	111.19
640.681	103.19
640.886	115.19
641.091	109.19
641.297	121.19
641.502	120.19
641.707	97.19
641.913	112.19
642.118	116.19
642.323	116.19
642.528	116.19
642.733	107.19
642.939	112.19
643.144	120.19
643.349	111.19
643.554	110.19
643.759	108.19
643.964	107.19
644.169	108.19
644.374	110.19
644.579	116.19
644.784	122.19
644.989	107.19
645.194	111.19
645.399	117.19
645.604	123.19
645.809	120.19
646.014	112.19
646.219	105.19
646.423	119.19
646.628	112.19
646.833	92.19
647.038	95.19
647.243	108.19
647.447	107.19
647.652	109.19
647.857	111.19
648.062	113.19
648.266	105.19
648.471	107.19
648.676	114.19
648.88	113.19
649.085	112.19
649.289	110.19
649.494	106.19
649.698	105.19
649.903	105.19
650.107	103.19
650.312	113.19
650.516	107.19
650.721	118.19
650.925	94.19
651.13	114.19
651.334	115.19
651.539	98.19
651.743	116.19
651.947	109.19
652.152	108.19
652.356	103.19
652.56	102.19
652.764	106.19
652.969	93.19
653.173	99.19
653.377	104.19
653.581	108.19
653.785	90.19
653.99	96.19
654.194	101.19
654.398	109.19
654.602	102.19
654.806	107.19
655.01	103.19
655.214	92.19
655.418	88.19
655.622	95.19
655.826	115.19
656.03	98.19
656.234	110.19
656.438	89.19
656.642	110.19
656.846	96.19
657.049	92.19
657.253	123.19
657.457	89.19
657.661	86.19
657.865	82.19
658.068	99.19
658.272	87.19
658.476	74.19
658.68	93.19
658.883	97.19
659.087	86.19
659.291	105.19
659.494	79.19
659.698	74.19
659.901	92.19
660.105	90.19
660.309	92.19
660.512	88.19
660.716	81.19
660.919	80.19
661.123	71.19
661.326	89.19
661.53	82.19
661.733	77.19
661.936	81.19
662.14	92.19
662.343	82.19
662.546	77.19
662.75	65.19
662.953	86.19
663.156	71.19
663.36	71.19
663.563	80.19
663.766	89.19
663.969	71.19
664.173	88.19
664.376	88.19
664.579	91.19
664.782	97.19
664.985	87.19
665.188	92.19
665.391	83.19
665.594	87.19
665.797	69.19
666	63.19
666.203	73.19
666.406	80.19
666.609	81.19
666.812	64.19
667.015	79.19
667.218	88.19
667.421	80.19
667.624	81.19
667.827	79.19
668.03	85.19
668.232	80.19
668.435	82.19
668.638	78.19
668.841	84.19
669.043	82.19
669.246	83.19
669.449	77.19
669.651	84.19
669.854	79.19
670.057	88.19
670.259	77.19
670.462	84.19
670.665	75.19
670.867	79.19
671.07	77.19
671.272	72.19
671.475	77.19
671.677	69.19
671.88	68.19
672.082	80.19
672.284	99.19
672.487	101.19
672.689	104.19
672.892	84.19
