Data from NickelSpatula.Lamp.E5.5.P2_HRD10591_11-52-39-553.txt Node
Date: Tue Jul 23 11:52:39 EDT 2019
User: cochatt
Spectrometer: HR+D1059
Trigger mode: 1
Integration Time (sec): 1.000000E-1
Scans to average: 1
Electric dark correction enabled: true
Nonlinearity correction enabled: false
Boxcar width: 0
XAxis mode: Wavelengths
Number of Pixels in Spectrum: 2048
>>>>>Begin Spectral Data<<<<<
223.165	-13
223.4	-13
223.635	-13
223.869	-15
224.104	-15
224.338	-18
224.573	-25
224.808	-11
225.042	0
225.277	-10
225.511	-4
225.746	-4
225.98	13
226.215	6
226.449	19
226.683	21
226.918	33
227.152	23
227.387	30
227.621	40
227.856	48
228.09	50
228.324	45
228.559	62
228.793	67
229.027	72
229.262	66
229.496	90
229.73	100
229.964	92
230.199	89
230.433	94
230.667	103
230.901	101
231.136	95
231.37	104
231.604	100
231.838	103
232.072	111
232.306	111
232.541	91
232.775	98
233.009	101
233.243	115
233.477	119
233.711	134
233.945	127
234.179	136
234.413	121
234.647	116
234.881	128
235.115	126
235.349	143
235.583	124
235.817	118
236.051	123
236.285	124
236.519	147
236.753	141
236.987	137
237.221	136
237.455	136
237.689	147
237.922	138
238.156	144
238.39	148
238.624	179
238.858	177
239.091	140
239.325	140
239.559	137
239.793	159
240.027	179
240.26	147
240.494	175
240.728	165
240.961	195
241.195	170
241.429	168
241.662	165
241.896	161
242.13	147
242.363	139
242.597	147
242.83	140
243.064	159
243.298	166
243.531	169
243.765	184
243.998	171
244.232	163
244.465	159
244.699	153
244.932	164
245.166	178
245.399	167
245.633	161
245.866	138
246.099	167
246.333	183
246.566	186
246.8	188
247.033	183
247.266	167
247.5	191
247.733	180
247.966	171
248.2	173
248.433	194
248.666	188
248.899	200
249.133	198
249.366	225
249.599	253
249.832	235
250.066	194
250.299	192
250.532	195
250.765	177
250.998	194
251.231	178
251.465	204
251.698	216
251.931	203
252.164	197
252.397	229
252.63	265
252.863	257
253.096	268
253.329	261
253.562	260
253.795	272
254.028	313
254.261	307
254.494	289
254.727	283
254.96	267
255.193	271
255.426	255
255.659	199
255.892	197
256.124	223
256.357	252
256.59	269
256.823	273
257.056	234
257.289	232
257.521	231
257.754	271
257.987	326
258.22	272
258.452	227
258.685	258
258.918	295
259.151	273
259.383	289
259.616	342
259.849	347
260.081	340
260.314	417
260.547	342
260.779	345
261.012	383
261.244	344
261.477	363
261.71	344
261.942	290
262.175	288
262.407	277
262.64	275
262.872	321
263.105	364
263.337	377
263.57	347
263.802	262
264.035	227
264.267	252
264.499	196
264.732	175
264.964	183
265.197	178
265.429	185
265.661	168
265.894	208
266.126	226
266.358	230
266.591	289
266.823	328
267.055	319
267.287	289
267.52	273
267.752	304
267.984	341
268.216	314
268.448	250
268.681	255
268.913	261
269.145	292
269.377	297
269.609	287
269.841	257
270.073	299
270.306	308
270.538	320
270.77	306
271.002	300
271.234	327
271.466	331
271.698	299
271.93	314
272.162	321
272.394	305
272.626	287
272.858	311
273.09	312
273.322	281
273.553	257
273.785	321
274.017	393
274.249	468
274.481	495
274.713	547
274.945	593
275.176	629
275.408	547
275.64	508
275.872	540
276.104	438
276.335	394
276.567	387
276.799	411
277.031	420
277.262	352
277.494	267
277.726	255
277.957	280
278.189	322
278.421	297
278.652	315
278.884	293
279.115	282
279.347	272
279.579	259
279.81	290
280.042	279
280.273	278
280.505	262
280.736	257
280.968	234
281.199	260
281.431	292
281.662	276
281.894	272
282.125	263
282.356	291
282.588	295
282.819	282
283.051	300
283.282	343
283.513	402
283.745	454
283.976	439
284.207	411
284.439	437
284.67	415
284.901	372
285.132	383
285.364	406
285.595	370
285.826	409
286.057	414
286.288	407
286.52	409
286.751	426
286.982	425
287.213	394
287.444	371
287.675	374
287.906	387
288.138	333
288.369	303
288.6	289
288.831	295
289.062	348
289.293	379
289.524	350
289.755	331
289.986	341
290.217	295
290.448	257
290.679	220
290.91	223
291.141	231
291.371	231
291.602	228
291.833	244
292.064	243
292.295	273
292.526	298
292.757	298
292.987	335
293.218	345
293.449	355
293.68	371
293.91	360
294.141	372
294.372	347
294.603	325
294.833	360
295.064	409
295.295	420
295.525	295
295.756	244
295.987	236
296.217	211
296.448	239
296.679	255
296.909	257
297.14	289
297.37	321
297.601	294
297.831	252
298.062	290
298.292	305
298.523	330
298.753	362
298.984	339
299.214	273
299.445	248
299.675	248
299.905	231
300.136	259
300.366	263
300.597	250
300.827	224
301.057	231
301.288	257
301.518	259
301.748	287
301.979	288
302.209	312
302.439	310
302.669	287
302.9	279
303.13	251
303.36	235
303.59	240
303.82	254
304.051	285
304.281	297
304.511	284
304.741	257
304.971	286
305.201	294
305.431	269
305.661	232
305.891	261
306.121	244
306.352	227
306.582	222
306.812	205
307.042	213
307.272	194
307.502	194
307.731	214
307.961	221
308.191	204
308.421	194
308.651	200
308.881	188
309.111	171
309.341	199
309.571	219
309.8	222
310.03	222
310.26	208
310.49	228
310.72	218
310.949	202
311.179	193
311.409	203
311.639	241
311.868	309
312.098	360
312.328	386
312.557	362
312.787	381
313.017	333
313.246	377
313.476	427
313.706	340
313.935	271
314.165	253
314.394	198
314.624	227
314.853	220
315.083	233
315.312	231
315.542	216
315.771	211
316.001	216
316.23	209
316.46	206
316.689	208
316.919	203
317.148	200
317.377	220
317.607	212
317.836	202
318.065	244
318.295	267
318.524	241
318.753	217
318.983	204
319.212	208
319.441	218
319.67	219
319.9	258
320.129	255
320.358	223
320.587	205
320.816	243
321.046	265
321.275	281
321.504	275
321.733	249
321.962	250
322.191	249
322.42	223
322.649	228
322.878	248
323.108	251
323.337	228
323.566	253
323.795	226
324.024	228
324.253	223
324.482	214
324.71	232
324.939	269
325.168	245
325.397	225
325.626	222
325.855	213
326.084	215
326.313	209
326.542	210
326.77	205
326.999	223
327.228	228
327.457	221
327.686	225
327.914	212
328.143	210
328.372	192
328.6	188
328.829	196
329.058	195
329.287	196
329.515	211
329.744	202
329.972	199
330.201	210
330.43	219
330.658	201
330.887	255
331.115	229
331.344	228
331.572	230
331.801	220
332.03	204
332.258	209
332.486	237
332.715	224
332.943	227
333.172	214
333.4	219
333.629	235
333.857	244
334.085	242
334.314	257
334.542	247
334.771	225
334.999	224
335.227	219
335.455	217
335.684	244
335.912	286
336.14	289
336.369	284
336.597	267
336.825	281
337.053	309
337.281	265
337.51	234
337.738	242
337.966	242
338.194	249
338.422	251
338.65	233
338.878	213
339.106	205
339.334	226
339.562	236
339.79	223
340.018	216
340.246	235
340.474	241
340.702	263
340.93	288
341.158	294
341.386	229
341.614	256
341.842	253
342.07	230
342.298	289
342.526	303
342.754	258
342.981	240
343.209	229
343.437	242
343.665	257
343.893	268
344.12	301
344.348	358
344.576	333
344.804	262
345.031	226
345.259	228
345.487	236
345.714	231
345.942	265
346.17	263
346.397	260
346.625	245
346.853	235
347.08	241
347.308	240
347.535	260
347.763	266
347.99	220
348.218	225
348.445	241
348.673	225
348.9	238
349.128	230
349.355	247
349.583	243
349.81	245
350.037	225
350.265	195
350.492	207
350.72	201
350.947	217
351.174	214
351.402	231
351.629	228
351.856	214
352.083	212
352.311	227
352.538	226
352.765	242
352.992	232
353.22	231
353.447	235
353.674	211
353.901	207
354.128	205
354.355	230
354.583	235
354.81	242
355.037	239
355.264	200
355.491	239
355.718	255
355.945	230
356.172	255
356.399	236
356.626	281
356.853	339
357.08	349
357.307	354
357.534	287
357.761	316
357.988	380
358.215	414
358.441	383
358.668	353
358.895	320
359.122	266
359.349	266
359.576	323
359.802	268
360.029	220
360.256	253
360.483	278
360.709	332
360.936	362
361.163	302
361.39	248
361.616	237
361.843	273
362.07	327
362.296	273
362.523	242
362.749	215
362.976	228
363.203	263
363.429	282
363.656	231
363.882	225
364.109	228
364.335	233
364.562	239
364.788	257
365.015	267
365.241	246
365.468	227
365.694	193
365.92	192
366.147	199
366.373	183
366.599	191
366.826	183
367.052	205
367.278	197
367.505	196
367.731	211
367.957	230
368.184	239
368.41	241
368.636	230
368.862	236
369.089	234
369.315	220
369.541	218
369.767	208
369.993	206
370.219	217
370.445	214
370.672	238
370.898	260
371.124	247
371.35	220
371.576	209
371.802	223
372.028	270
372.254	298
372.48	265
372.706	237
372.932	227
373.158	245
373.384	303
373.61	371
373.835	384
374.061	302
374.287	251
374.513	300
374.739	370
374.965	373
375.191	357
375.416	259
375.642	257
375.868	263
376.094	290
376.319	231
376.545	268
376.771	273
376.997	258
377.222	213
377.448	198
377.674	214
377.899	190
378.125	201
378.35	185
378.576	183
378.802	223
379.027	223
379.253	219
379.478	217
379.704	241
379.929	257
380.155	263
380.38	215
380.606	231
380.831	246
381.057	241
381.282	228
381.507	248
381.733	289
381.958	311
382.184	330
382.409	345
382.634	355
382.86	357
383.085	312
383.31	255
383.535	273
383.761	291
383.986	245
384.211	282
384.436	280
384.662	237
384.887	250
385.112	233
385.337	239
385.562	236
385.787	268
386.013	281
386.238	294
386.463	236
386.688	232
386.913	221
387.138	221
387.363	228
387.588	232
387.813	217
388.038	255
388.263	224
388.488	227
388.713	264
388.938	275
389.163	234
389.387	205
389.612	214
389.837	229
390.062	231
390.287	234
390.512	229
390.736	214
390.961	237
391.186	195
391.411	219
391.636	236
391.86	223
392.085	249
392.31	255
392.534	242
392.759	234
392.984	242
393.208	242
393.433	222
393.658	230
393.882	202
394.107	206
394.331	198
394.556	203
394.78	211
395.005	202
395.229	212
395.454	203
395.678	201
395.903	225
396.127	219
396.352	219
396.576	226
396.801	220
397.025	258
397.249	258
397.474	225
397.698	210
397.922	213
398.147	215
398.371	220
398.595	244
398.82	230
399.044	240
399.268	241
399.492	268
399.717	290
399.941	285
400.165	256
400.389	259
400.613	263
400.837	246
401.062	226
401.286	218
401.51	212
401.734	211
401.958	232
402.182	218
402.406	225
402.63	224
402.854	245
403.078	313
403.302	345
403.526	371
403.75	325
403.974	269
404.198	273
404.422	291
404.645	332
404.869	338
405.093	277
405.317	265
405.541	245
405.765	268
405.988	255
406.212	252
406.436	291
406.66	320
406.883	274
407.107	273
407.331	328
407.555	317
407.778	275
408.002	266
408.226	255
408.449	266
408.673	250
408.896	247
409.12	219
409.344	233
409.567	227
409.791	232
410.014	241
410.238	232
410.461	228
410.685	236
410.908	233
411.132	241
411.355	244
411.578	236
411.802	242
412.025	241
412.249	249
412.472	251
412.695	210
412.919	230
413.142	250
413.365	236
413.589	236
413.812	223
414.035	237
414.258	248
414.482	263
414.705	259
414.928	223
415.151	212
415.374	218
415.597	220
415.821	234
416.044	211
416.267	217
416.49	233
416.713	234
416.936	219
417.159	218
417.382	224
417.605	244
417.828	236
418.051	239
418.274	239
418.497	223
418.72	227
418.943	248
419.166	239
419.389	243
419.611	254
419.834	245
420.057	268
420.28	263
420.503	256
420.726	243
420.948	226
421.171	232
421.394	223
421.617	229
421.839	223
422.062	242
422.285	242
422.507	228
422.73	241
422.953	231
423.175	233
423.398	241
423.621	252
423.843	267
424.066	249
424.288	243
424.511	243
424.733	234
424.956	239
425.178	259
425.401	301
425.623	343
425.846	300
426.068	250
426.291	271
426.513	235
426.735	215
426.958	243
427.18	268
427.402	315
427.625	362
427.847	304
428.069	224
428.292	240
428.514	223
428.736	230
428.958	242
429.181	293
429.403	258
429.625	221
429.847	210
430.069	216
430.292	222
430.514	234
430.736	259
430.958	274
431.18	241
431.402	212
431.624	213
431.846	219
432.068	201
432.29	226
432.512	230
432.734	264
432.956	250
433.178	227
433.4	216
433.622	220
433.844	226
434.066	253
434.287	241
434.509	225
434.731	232
434.953	244
435.175	241
435.397	256
435.618	247
435.84	215
436.062	210
436.284	211
436.505	204
436.727	202
436.949	199
437.17	226
437.392	222
437.614	225
437.835	209
438.057	214
438.278	244
438.5	305
438.721	296
438.943	244
439.165	214
439.386	207
439.608	211
439.829	203
440.05	219
440.272	219
440.493	221
440.715	287
440.936	236
441.158	229
441.379	228
441.6	265
441.822	239
442.043	253
442.264	257
442.486	217
442.707	228
442.928	230
443.149	232
443.371	244
443.592	235
443.813	247
444.034	240
444.255	239
444.476	257
444.698	251
444.919	247
445.14	352
445.361	293
445.582	263
445.803	252
446.024	241
446.245	249
446.466	240
446.687	223
446.908	234
447.129	191
447.35	215
447.571	205
447.792	206
448.013	213
448.234	211
448.455	213
448.675	195
448.896	215
449.117	212
449.338	204
449.559	205
449.779	229
450	225
450.221	209
450.442	223
450.662	211
450.883	204
451.104	197
451.324	214
451.545	215
451.766	224
451.986	217
452.207	212
452.428	220
452.648	210
452.869	216
453.089	227
453.31	223
453.53	206
453.751	190
453.971	205
454.192	202
454.412	219
454.633	201
454.853	211
455.073	193
455.294	196
455.514	202
455.734	214
455.955	195
456.175	212
456.395	201
456.616	193
456.836	190
457.056	188
457.276	193
457.497	191
457.717	188
457.937	200
458.157	207
458.377	196
458.598	207
458.818	214
459.038	220
459.258	200
459.478	215
459.698	251
459.918	235
460.138	231
460.358	236
460.578	240
460.798	239
461.018	239
461.238	223
461.458	226
461.678	262
461.898	253
462.118	241
462.338	245
462.558	260
462.777	259
462.997	261
463.217	285
463.437	273
463.657	275
463.876	269
464.096	257
464.316	247
464.536	279
464.755	269
464.975	255
465.195	240
465.414	271
465.634	236
465.854	243
466.073	228
466.293	232
466.512	231
466.732	242
466.951	259
467.171	218
467.391	219
467.61	220
467.829	244
468.049	234
468.268	229
468.488	212
468.707	218
468.927	261
469.146	275
469.365	239
469.585	217
469.804	242
470.023	263
470.243	239
470.462	241
470.681	235
470.901	227
471.12	253
471.339	245
471.558	230
471.777	223
471.997	233
472.216	266
472.435	259
472.654	244
472.873	253
473.092	264
473.311	242
473.53	244
473.749	239
473.968	245
474.187	253
474.406	228
474.625	225
474.844	228
475.063	226
475.282	236
475.501	264
475.72	284
475.939	258
476.158	251
476.377	303
476.596	354
476.814	351
477.033	324
477.252	240
477.471	232
477.69	225
477.908	272
478.127	267
478.346	267
478.564	274
478.783	276
479.002	257
479.22	320
479.439	339
479.658	284
479.876	269
480.095	271
480.313	298
480.532	265
480.751	283
480.969	274
481.188	319
481.406	281
481.624	299
481.843	256
482.061	258
482.28	277
482.498	335
482.717	324
482.935	277
483.153	260
483.372	251
483.59	246
483.808	260
484.027	248
484.245	235
484.463	243
484.681	242
484.9	272
485.118	291
485.336	267
485.554	246
485.772	268
485.99	282
486.209	289
486.427	283
486.645	274
486.863	298
487.081	291
487.299	307
487.517	288
487.735	296
487.953	292
488.171	305
488.389	275
488.607	261
488.825	270
489.043	310
489.261	321
489.479	337
489.696	281
489.914	271
490.132	267
490.35	261
490.568	265
490.786	294
491.003	264
491.221	262
491.439	265
491.657	255
491.874	277
492.092	324
492.31	357
492.527	361
492.745	329
492.963	296
493.18	281
493.398	298
493.615	296
493.833	283
494.05	289
494.268	278
494.485	289
494.703	285
494.92	269
495.138	275
495.355	293
495.573	283
495.79	300
496.008	361
496.225	311
496.442	301
496.66	291
496.877	292
497.094	275
497.312	299
497.529	293
497.746	297
497.963	314
498.181	335
498.398	347
498.615	370
498.832	381
499.049	390
499.267	371
499.484	370
499.701	389
499.918	418
500.135	476
500.352	517
500.569	523
500.786	544
501.003	497
501.22	464
501.437	418
501.654	390
501.871	380
502.088	376
502.305	328
502.522	339
502.739	319
502.956	296
503.172	327
503.389	295
503.606	281
503.823	294
504.04	298
504.256	311
504.473	308
504.69	328
504.907	311
505.123	311
505.34	314
505.557	309
505.773	317
505.99	290
506.207	308
506.423	266
506.64	274
506.856	288
507.073	336
507.289	294
507.506	299
507.722	292
507.939	311
508.155	329
508.372	295
508.588	289
508.805	286
509.021	278
509.238	286
509.454	264
509.67	279
509.887	264
510.103	295
510.319	296
510.536	274
510.752	259
510.968	252
511.184	251
511.401	255
511.617	248
511.833	236
512.049	245
512.265	277
512.481	242
512.698	291
512.914	308
513.13	293
513.346	269
513.562	277
513.778	269
513.994	274
514.21	259
514.426	264
514.642	258
514.858	272
515.074	273
515.29	294
515.506	340
515.721	317
515.937	279
516.153	267
516.369	262
516.585	284
516.801	304
517.016	351
517.232	356
517.448	339
517.664	338
517.879	320
518.095	292
518.311	306
518.527	332
518.742	337
518.958	354
519.173	336
519.389	297
519.605	320
519.82	357
520.036	377
520.251	377
520.467	351
520.682	571
520.898	670
521.113	673
521.329	410
521.544	355
521.76	346
521.975	306
522.19	298
522.406	293
522.621	321
522.836	343
523.052	324
523.267	295
523.482	285
523.698	309
523.913	301
524.128	282
524.343	259
524.559	272
524.774	267
524.989	277
525.204	280
525.419	312
525.634	289
525.849	267
526.064	291
526.28	297
526.495	342
526.71	349
526.925	297
527.14	311
527.355	304
527.57	269
527.785	279
527.999	245
528.214	252
528.429	245
528.644	245
528.859	226
529.074	235
529.289	249
529.503	235
529.718	219
529.933	287
530.148	296
530.363	269
530.577	264
530.792	249
531.007	251
531.221	234
531.436	248
531.651	235
531.865	237
532.08	247
532.295	264
532.509	262
532.724	265
532.938	294
533.153	340
533.367	277
533.582	263
533.796	277
534.011	233
534.225	239
534.44	259
534.654	281
534.868	295
535.083	286
535.297	259
535.511	234
535.726	276
535.94	246
536.154	257
536.369	242
536.583	240
536.797	260
537.011	257
537.225	271
537.44	288
537.654	253
537.868	247
538.082	241
538.296	233
538.51	269
538.724	257
538.938	282
539.153	247
539.367	215
539.581	243
539.795	263
540.009	286
540.222	266
540.436	261
540.65	259
540.864	252
541.078	283
541.292	327
541.506	262
541.72	254
541.934	223
542.147	251
542.361	259
542.575	255
542.789	241
543.002	240
543.216	258
543.43	240
543.644	223
543.857	235
544.071	242
544.285	225
544.498	226
544.712	235
544.925	269
545.139	242
545.352	205
545.566	213
545.779	252
545.993	219
546.206	228
546.42	217
546.633	211
546.847	217
547.06	220
547.274	227
547.487	214
547.7	226
547.914	249
548.127	271
548.34	255
548.554	240
548.767	246
548.98	242
549.193	236
549.407	243
549.62	284
549.833	274
550.046	283
550.259	277
550.473	259
550.686	236
550.899	257
551.112	242
551.325	251
551.538	280
551.751	225
551.964	239
552.177	241
552.39	223
552.603	233
552.816	229
553.029	234
553.242	226
553.455	259
553.667	259
553.88	257
554.093	240
554.306	230
554.519	217
554.732	221
554.944	206
555.157	210
555.37	211
555.583	210
555.795	212
556.008	219
556.221	221
556.433	209
556.646	200
556.859	209
557.071	218
557.284	218
557.496	199
557.709	202
557.921	218
558.134	205
558.346	189
558.559	196
558.771	206
558.984	180
559.196	189
559.409	203
559.621	188
559.833	194
560.046	191
560.258	206
560.47	202
560.683	183
560.895	201
561.107	188
561.32	203
561.532	197
561.744	209
561.956	209
562.168	185
562.381	185
562.593	223
562.805	194
563.017	200
563.229	217
563.441	185
563.653	195
563.865	203
564.077	192
564.289	183
564.501	200
564.713	204
564.925	208
565.137	203
565.349	192
565.561	198
565.773	188
565.985	200
566.197	197
566.408	234
566.62	242
566.832	266
567.044	241
567.255	255
567.467	276
567.679	259
567.891	284
568.102	286
568.314	261
568.526	256
568.737	229
568.949	251
569.161	203
569.372	200
569.584	196
569.795	200
570.007	192
570.218	218
570.43	191
570.641	192
570.853	188
571.064	183
571.276	199
571.487	209
571.698	194
571.91	191
572.121	192
572.333	185
572.544	184
572.755	189
572.966	176
573.178	195
573.389	195
573.6	191
573.811	173
574.023	187
574.234	191
574.445	184
574.656	172
574.867	159
575.078	175
575.289	172
575.501	184
575.712	178
575.923	156
576.134	169
576.345	173
576.556	176
576.767	163
576.978	159
577.188	171
577.399	171
577.61	164
577.821	184
578.032	186
578.243	178
578.454	161
578.665	167
578.875	187
579.086	177
579.297	179
579.508	187
579.718	179
579.929	165
580.14	164
580.35	172
580.561	158
580.772	169
580.982	162
581.193	150
581.403	156
581.614	160
581.825	151
582.035	161
582.246	164
582.456	155
582.667	164
582.877	151
583.087	139
583.298	155
583.508	156
583.719	162
583.929	157
584.139	153
584.35	141
584.56	157
584.77	154
584.981	177
585.191	160
585.401	167
585.611	177
585.821	161
586.032	155
586.242	146
586.452	152
586.662	164
586.872	165
587.082	164
587.292	164
587.502	153
587.713	156
587.923	173
588.133	153
588.343	147
588.553	141
588.762	163
588.972	150
589.182	143
589.392	165
589.602	144
589.812	172
590.022	178
590.232	177
590.441	156
590.651	158
590.861	163
591.071	155
591.281	157
591.49	153
591.7	155
591.91	151
592.119	154
592.329	168
592.539	168
592.748	177
592.958	170
593.167	148
593.377	168
593.587	173
593.796	176
594.006	164
594.215	169
594.424	175
594.634	176
594.843	179
595.053	170
595.262	168
595.472	161
595.681	150
595.89	155
596.1	156
596.309	159
596.518	160
596.727	158
596.937	146
597.146	162
597.355	159
597.564	148
597.774	159
597.983	148
598.192	131
598.401	171
598.61	150
598.819	149
599.028	154
599.237	148
599.446	140
599.655	138
599.864	155
600.073	139
600.282	146
600.491	155
600.7	131
600.909	136
601.118	155
601.327	143
601.536	120
601.745	146
601.953	140
602.162	150
602.371	136
602.58	150
602.789	134
602.997	138
603.206	144
603.415	145
603.623	146
603.832	145
604.041	133
604.249	137
604.458	145
604.666	129
604.875	141
605.084	146
605.292	135
605.501	144
605.709	161
605.918	141
606.126	149
606.334	140
606.543	124
606.751	143
606.96	147
607.168	134
607.376	145
607.585	135
607.793	124
608.001	152
608.21	140
608.418	143
608.626	134
608.834	141
609.043	134
609.251	147
609.459	135
609.667	128
609.875	142
610.083	119
610.291	141
610.499	133
610.707	127
610.916	140
611.124	132
611.332	128
611.54	125
611.748	133
611.955	132
612.163	130
612.371	130
612.579	137
612.787	119
612.995	141
613.203	133
613.411	135
613.618	133
613.826	140
614.034	147
614.242	132
614.449	133
614.657	143
614.865	139
615.072	129
615.28	133
615.488	113
615.695	125
615.903	148
616.111	140
616.318	152
616.526	133
616.733	127
616.941	138
617.148	141
617.356	138
617.563	148
617.771	133
617.978	141
618.185	132
618.393	128
618.6	145
618.807	122
619.015	136
619.222	142
619.429	137
619.637	137
619.844	154
620.051	146
620.258	143
620.466	116
620.673	125
620.88	134
621.087	131
621.294	133
621.501	115
621.708	120
621.915	142
622.122	130
622.329	133
622.536	130
622.743	130
622.95	140
623.157	141
623.364	119
623.571	116
623.778	139
623.985	134
624.192	116
624.399	139
624.606	140
624.812	125
625.019	127
625.226	123
625.433	131
625.639	124
625.846	123
626.053	131
626.259	131
626.466	131
626.673	112
626.879	132
627.086	128
627.293	124
627.499	127
627.706	130
627.912	116
628.119	132
628.325	131
628.532	113
628.738	117
628.945	117
629.151	134
629.357	123
629.564	131
629.77	124
629.976	125
630.183	118
630.389	124
630.595	119
630.802	116
631.008	111
631.214	112
631.42	122
631.627	131
631.833	125
632.039	131
632.245	114
632.451	109
632.657	117
632.863	119
633.069	118
633.275	128
633.481	119
633.688	115
633.893	112
634.099	114
634.305	113
634.511	126
634.717	116
634.923	111
635.129	114
635.335	115
635.541	114
635.747	123
635.952	117
636.158	118
636.364	100
636.57	109
636.775	118
636.981	106
637.187	116
637.392	115
637.598	114
637.804	90
638.009	100
638.215	98
638.421	120
638.626	113
638.832	113
639.037	105
639.243	125
639.448	113
639.654	124
639.859	102
640.065	122
640.27	119
640.475	100
640.681	127
640.886	114
641.091	114
641.297	117
641.502	114
641.707	102
641.913	111
642.118	100
642.323	109
642.528	124
642.733	124
642.939	113
643.144	137
643.349	106
643.554	101
643.759	139
643.964	108
644.169	102
644.374	133
644.579	102
644.784	109
644.989	107
645.194	107
645.399	105
645.604	100
645.809	111
646.014	109
646.219	111
646.423	126
646.628	124
646.833	113
647.038	121
647.243	120
647.447	113
647.652	126
647.857	113
648.062	124
648.266	116
648.471	108
648.676	122
648.88	111
649.085	115
649.289	117
649.494	117
649.698	122
649.903	109
650.107	122
650.312	113
650.516	116
650.721	110
650.925	112
651.13	119
651.334	114
651.539	128
651.743	103
651.947	105
652.152	112
652.356	106
652.56	116
652.764	101
652.969	99
653.173	100
653.377	102
653.581	92
653.785	107
653.99	94
654.194	105
654.398	87
654.602	105
654.806	104
655.01	95
655.214	96
655.418	97
655.622	95
655.826	97
656.03	111
656.234	86
656.438	95
656.642	116
656.846	89
657.049	96
657.253	111
657.457	89
657.661	93
657.865	78
658.068	99
658.272	93
658.476	104
658.68	84
658.883	88
659.087	89
659.291	95
659.494	88
659.698	96
659.901	82
660.105	90
660.309	93
660.512	84
660.716	85
660.919	90
661.123	95
661.326	92
661.53	99
661.733	87
661.936	96
662.14	95
662.343	84
662.546	87
662.75	96
662.953	87
663.156	87
663.36	110
663.563	90
663.766	85
663.969	94
664.173	97
664.376	74
664.579	92
664.782	80
664.985	80
665.188	76
665.391	76
665.594	95
665.797	89
666	85
666.203	88
666.406	96
666.609	81
666.812	75
667.015	91
667.218	99
667.421	95
667.624	100
667.827	101
668.03	91
668.232	89
668.435	92
668.638	67
668.841	103
669.043	84
669.246	81
669.449	87
669.651	99
669.854	83
670.057	91
670.259	81
670.462	77
670.665	85
670.867	83
671.07	92
671.272	69
671.475	84
671.677	83
671.88	93
672.082	86
672.284	77
672.487	84
672.689	77
672.892	86
