Data from NickelSpatula_HRD10591_16-34-19-126.txt Node
Date: Mon Jul 22 16:34:19 EDT 2019
User: cochatt
Spectrometer: HR+D1059
Trigger mode: 1
Integration Time (sec): 1.000000E-1
Scans to average: 1
Electric dark correction enabled: true
Nonlinearity correction enabled: false
Boxcar width: 0
XAxis mode: Wavelengths
Number of Pixels in Spectrum: 2048
>>>>>Begin Spectral Data<<<<<
223.165	-12.81
223.4	-12.81
223.635	-12.81
223.869	-18.81
224.104	-27.81
224.338	-16.81
224.573	-7.81
224.808	-27.81
225.042	-3.81
225.277	-0.81
225.511	1.19
225.746	0.19
225.98	9.19
226.215	14.19
226.449	24.19
226.683	7.19
226.918	32.19
227.152	28.19
227.387	37.19
227.621	27.19
227.856	28.19
228.09	49.19
228.324	44.19
228.559	71.19
228.793	51.19
229.027	64.19
229.262	76.19
229.496	75.19
229.73	78.19
229.964	88.19
230.199	84.19
230.433	95.19
230.667	97.19
230.901	94.19
231.136	101.19
231.37	108.19
231.604	102.19
231.838	92.19
232.072	94.19
232.306	101.19
232.541	106.19
232.775	106.19
233.009	119.19
233.243	106.19
233.477	100.19
233.711	106.19
233.945	119.19
234.179	95.19
234.413	106.19
234.647	111.19
234.881	134.19
235.115	120.19
235.349	127.19
235.583	111.19
235.817	112.19
236.051	123.19
236.285	114.19
236.519	142.19
236.753	128.19
236.987	130.19
237.221	134.19
237.455	126.19
237.689	117.19
237.922	140.19
238.156	138.19
238.39	136.19
238.624	156.19
238.858	157.19
239.091	134.19
239.325	135.19
239.559	153.19
239.793	133.19
240.027	179.19
240.26	165.19
240.494	143.19
240.728	150.19
240.961	163.19
241.195	167.19
241.429	166.19
241.662	154.19
241.896	134.19
242.13	133.19
242.363	141.19
242.597	141.19
242.83	159.19
243.064	145.19
243.298	175.19
243.531	157.19
243.765	165.19
243.998	163.19
244.232	149.19
244.465	172.19
244.699	154.19
244.932	165.19
245.166	159.19
245.399	142.19
245.633	160.19
245.866	140.19
246.099	155.19
246.333	181.19
246.566	198.19
246.8	181.19
247.033	146.19
247.266	170.19
247.5	161.19
247.733	150.19
247.966	148.19
248.2	173.19
248.433	169.19
248.666	182.19
248.899	172.19
249.133	194.19
249.366	224.19
249.599	217.19
249.832	203.19
250.066	201.19
250.299	188.19
250.532	195.19
250.765	189.19
250.998	164.19
251.231	165.19
251.465	180.19
251.698	183.19
251.931	179.19
252.164	194.19
252.397	211.19
252.63	204.19
252.863	223.19
253.096	239.19
253.329	247.19
253.562	241.19
253.795	260.19
254.028	273.19
254.261	285.19
254.494	262.19
254.727	229.19
254.96	240.19
255.193	243.19
255.426	235.19
255.659	201.19
255.892	179.19
256.124	193.19
256.357	231.19
256.59	257.19
256.823	232.19
257.056	220.19
257.289	192.19
257.521	205.19
257.754	240.19
257.987	269.19
258.22	249.19
258.452	225.19
258.685	224.19
258.918	272.19
259.151	280.19
259.383	285.19
259.616	322.19
259.849	307.19
260.081	330.19
260.314	344.19
260.547	270.19
260.779	300.19
261.012	327.19
261.244	320.19
261.477	300.19
261.71	297.19
261.942	261.19
262.175	277.19
262.407	271.19
262.64	239.19
262.872	281.19
263.105	317.19
263.337	336.19
263.57	316.19
263.802	231.19
264.035	217.19
264.267	215.19
264.499	197.19
264.732	161.19
264.964	169.19
265.197	169.19
265.429	181.19
265.661	192.19
265.894	196.19
266.126	196.19
266.358	217.19
266.591	267.19
266.823	311.19
267.055	311.19
267.287	278.19
267.52	268.19
267.752	282.19
267.984	288.19
268.216	276.19
268.448	249.19
268.681	233.19
268.913	268.19
269.145	279.19
269.377	276.19
269.609	283.19
269.841	259.19
270.073	281.19
270.306	291.19
270.538	292.19
270.77	284.19
271.002	305.19
271.234	322.19
271.466	319.19
271.698	301.19
271.93	258.19
272.162	285.19
272.394	295.19
272.626	273.19
272.858	298.19
273.09	296.19
273.322	263.19
273.553	242.19
273.785	288.19
274.017	346.19
274.249	438.19
274.481	423.19
274.713	469.19
274.945	520.19
275.176	551.19
275.408	498.19
275.64	464.19
275.872	467.19
276.104	412.19
276.335	368.19
276.567	352.19
276.799	341.19
277.031	384.19
277.262	321.19
277.494	239.19
277.726	243.19
277.957	264.19
278.189	280.19
278.421	286.19
278.652	275.19
278.884	242.19
279.115	251.19
279.347	251.19
279.579	247.19
279.81	252.19
280.042	251.19
280.273	274.19
280.505	262.19
280.736	235.19
280.968	223.19
281.199	227.19
281.431	273.19
281.662	251.19
281.894	242.19
282.125	251.19
282.356	280.19
282.588	275.19
282.819	263.19
283.051	281.19
283.282	324.19
283.513	354.19
283.745	387.19
283.976	381.19
284.207	349.19
284.439	407.19
284.67	385.19
284.901	345.19
285.132	333.19
285.364	351.19
285.595	348.19
285.826	356.19
286.057	402.19
286.288	385.19
286.52	376.19
286.751	391.19
286.982	393.19
287.213	337.19
287.444	345.19
287.675	352.19
287.906	344.19
288.138	328.19
288.369	273.19
288.6	267.19
288.831	289.19
289.062	317.19
289.293	339.19
289.524	327.19
289.755	308.19
289.986	328.19
290.217	278.19
290.448	243.19
290.679	218.19
290.91	225.19
291.141	209.19
291.371	217.19
291.602	224.19
291.833	211.19
292.064	221.19
292.295	237.19
292.526	274.19
292.757	268.19
292.987	299.19
293.218	304.19
293.449	332.19
293.68	350.19
293.91	340.19
294.141	339.19
294.372	313.19
294.603	304.19
294.833	315.19
295.064	353.19
295.295	364.19
295.525	281.19
295.756	232.19
295.987	224.19
296.217	215.19
296.448	206.19
296.679	224.19
296.909	234.19
297.14	263.19
297.37	279.19
297.601	252.19
297.831	237.19
298.062	252.19
298.292	276.19
298.523	291.19
298.753	332.19
298.984	317.19
299.214	247.19
299.445	245.19
299.675	225.19
299.905	228.19
300.136	235.19
300.366	242.19
300.597	220.19
300.827	221.19
301.057	217.19
301.288	222.19
301.518	218.19
301.748	260.19
301.979	277.19
302.209	273.19
302.439	284.19
302.669	247.19
302.9	255.19
303.13	236.19
303.36	236.19
303.59	231.19
303.82	243.19
304.051	253.19
304.281	292.19
304.511	276.19
304.741	250.19
304.971	244.19
305.201	270.19
305.431	245.19
305.661	232.19
305.891	239.19
306.121	220.19
306.352	215.19
306.582	197.19
306.812	197.19
307.042	206.19
307.272	199.19
307.502	178.19
307.731	177.19
307.961	201.19
308.191	193.19
308.421	186.19
308.651	181.19
308.881	161.19
309.111	184.19
309.341	178.19
309.571	200.19
309.8	202.19
310.03	210.19
310.26	209.19
310.49	205.19
310.72	191.19
310.949	185.19
311.179	184.19
311.409	203.19
311.639	222.19
311.868	289.19
312.098	337.19
312.328	369.19
312.557	357.19
312.787	363.19
313.017	307.19
313.246	321.19
313.476	377.19
313.706	306.19
313.935	261.19
314.165	232.19
314.394	211.19
314.624	216.19
314.853	228.19
315.083	224.19
315.312	223.19
315.542	217.19
315.771	205.19
316.001	195.19
316.23	175.19
316.46	203.19
316.689	175.19
316.919	187.19
317.148	186.19
317.377	196.19
317.607	199.19
317.836	202.19
318.065	218.19
318.295	259.19
318.524	227.19
318.753	196.19
318.983	187.19
319.212	176.19
319.441	189.19
319.67	221.19
319.9	244.19
320.129	241.19
320.358	220.19
320.587	199.19
320.816	199.19
321.046	224.19
321.275	251.19
321.504	257.19
321.733	237.19
321.962	249.19
322.191	211.19
322.42	219.19
322.649	232.19
322.878	244.19
323.108	243.19
323.337	228.19
323.566	211.19
323.795	215.19
324.024	232.19
324.253	218.19
324.482	225.19
324.71	215.19
324.939	229.19
325.168	215.19
325.397	202.19
325.626	210.19
325.855	210.19
326.084	202.19
326.313	207.19
326.542	187.19
326.77	203.19
326.999	210.19
327.228	198.19
327.457	223.19
327.686	188.19
327.914	195.19
328.143	188.19
328.372	182.19
328.6	186.19
328.829	203.19
329.058	193.19
329.287	176.19
329.515	208.19
329.744	194.19
329.972	183.19
330.201	176.19
330.43	181.19
330.658	212.19
330.887	223.19
331.115	216.19
331.344	207.19
331.572	204.19
331.801	205.19
332.03	205.19
332.258	191.19
332.486	221.19
332.715	215.19
332.943	205.19
333.172	204.19
333.4	216.19
333.629	220.19
333.857	231.19
334.085	229.19
334.314	218.19
334.542	220.19
334.771	198.19
334.999	228.19
335.227	208.19
335.455	199.19
335.684	223.19
335.912	244.19
336.14	249.19
336.369	259.19
336.597	234.19
336.825	248.19
337.053	296.19
337.281	252.19
337.51	219.19
337.738	214.19
337.966	216.19
338.194	242.19
338.422	253.19
338.65	225.19
338.878	204.19
339.106	189.19
339.334	222.19
339.562	212.19
339.79	221.19
340.018	200.19
340.246	223.19
340.474	232.19
340.702	241.19
340.93	261.19
341.158	264.19
341.386	212.19
341.614	216.19
341.842	204.19
342.07	226.19
342.298	256.19
342.526	286.19
342.754	226.19
342.981	214.19
343.209	203.19
343.437	231.19
343.665	222.19
343.893	237.19
344.12	279.19
344.348	321.19
344.576	300.19
344.804	240.19
345.031	208.19
345.259	200.19
345.487	206.19
345.714	198.19
345.942	209.19
346.17	255.19
346.397	227.19
346.625	229.19
346.853	209.19
347.08	202.19
347.308	213.19
347.535	236.19
347.763	226.19
347.99	195.19
348.218	200.19
348.445	213.19
348.673	208.19
348.9	196.19
349.128	229.19
349.355	212.19
349.583	214.19
349.81	211.19
350.037	215.19
350.265	184.19
350.492	189.19
350.72	165.19
350.947	182.19
351.174	189.19
351.402	212.19
351.629	211.19
351.856	177.19
352.083	186.19
352.311	200.19
352.538	190.19
352.765	231.19
352.992	228.19
353.22	203.19
353.447	218.19
353.674	199.19
353.901	188.19
354.128	206.19
354.355	201.19
354.583	192.19
354.81	211.19
355.037	224.19
355.264	206.19
355.491	221.19
355.718	237.19
355.945	214.19
356.172	224.19
356.399	204.19
356.626	249.19
356.853	299.19
357.08	304.19
357.307	326.19
357.534	271.19
357.761	266.19
357.988	291.19
358.215	350.19
358.441	313.19
358.668	274.19
358.895	272.19
359.122	227.19
359.349	224.19
359.576	253.19
359.802	229.19
360.029	211.19
360.256	205.19
360.483	251.19
360.709	291.19
360.936	297.19
361.163	273.19
361.39	224.19
361.616	194.19
361.843	215.19
362.07	273.19
362.296	246.19
362.523	217.19
362.749	175.19
362.976	201.19
363.203	226.19
363.429	259.19
363.656	208.19
363.882	195.19
364.109	210.19
364.335	189.19
364.562	190.19
364.788	192.19
365.015	247.19
365.241	223.19
365.468	193.19
365.694	175.19
365.92	180.19
366.147	177.19
366.373	183.19
366.599	161.19
366.826	183.19
367.052	176.19
367.278	192.19
367.505	185.19
367.731	189.19
367.957	211.19
368.184	201.19
368.41	208.19
368.636	210.19
368.862	221.19
369.089	209.19
369.315	181.19
369.541	193.19
369.767	179.19
369.993	169.19
370.219	159.19
370.445	184.19
370.672	199.19
370.898	209.19
371.124	225.19
371.35	203.19
371.576	187.19
371.802	203.19
372.028	210.19
372.254	227.19
372.48	225.19
372.706	207.19
372.932	224.19
373.158	229.19
373.384	224.19
373.61	310.19
373.835	301.19
374.061	246.19
374.287	232.19
374.513	263.19
374.739	306.19
374.965	306.19
375.191	270.19
375.416	234.19
375.642	216.19
375.868	239.19
376.094	252.19
376.319	221.19
376.545	256.19
376.771	243.19
376.997	218.19
377.222	184.19
377.448	177.19
377.674	170.19
377.899	172.19
378.125	169.19
378.35	164.19
378.576	181.19
378.802	197.19
379.027	218.19
379.253	192.19
379.478	188.19
379.704	206.19
379.929	220.19
380.155	217.19
380.38	203.19
380.606	191.19
380.831	224.19
381.057	209.19
381.282	199.19
381.507	219.19
381.733	264.19
381.958	266.19
382.184	277.19
382.409	284.19
382.634	287.19
382.86	307.19
383.085	263.19
383.31	228.19
383.535	235.19
383.761	249.19
383.986	235.19
384.211	265.19
384.436	283.19
384.662	219.19
384.887	207.19
385.112	209.19
385.337	216.19
385.562	216.19
385.787	217.19
386.013	233.19
386.238	248.19
386.463	210.19
386.688	202.19
386.913	198.19
387.138	195.19
387.363	193.19
387.588	217.19
387.813	209.19
388.038	220.19
388.263	224.19
388.488	203.19
388.713	244.19
388.938	239.19
389.163	227.19
389.387	189.19
389.612	195.19
389.837	211.19
390.062	227.19
390.287	202.19
390.512	230.19
390.736	207.19
390.961	199.19
391.186	190.19
391.411	197.19
391.636	205.19
391.86	214.19
392.085	219.19
392.31	238.19
392.534	214.19
392.759	208.19
392.984	228.19
393.208	225.19
393.433	203.19
393.658	218.19
393.882	183.19
394.107	191.19
394.331	201.19
394.556	190.19
394.78	191.19
395.005	183.19
395.229	203.19
395.454	194.19
395.678	196.19
395.903	202.19
396.127	196.19
396.352	189.19
396.576	220.19
396.801	217.19
397.025	241.19
397.249	234.19
397.474	207.19
397.698	210.19
397.922	207.19
398.147	204.19
398.371	202.19
398.595	227.19
398.82	221.19
399.044	212.19
399.268	231.19
399.492	258.19
399.717	236.19
399.941	245.19
400.165	235.19
400.389	232.19
400.613	226.19
400.837	236.19
401.062	213.19
401.286	196.19
401.51	202.19
401.734	186.19
401.958	204.19
402.182	211.19
402.406	207.19
402.63	209.19
402.854	219.19
403.078	241.19
403.302	298.19
403.526	306.19
403.75	296.19
403.974	240.19
404.198	236.19
404.422	275.19
404.645	279.19
404.869	291.19
405.093	251.19
405.317	230.19
405.541	225.19
405.765	227.19
405.988	236.19
406.212	225.19
406.436	255.19
406.66	275.19
406.883	244.19
407.107	244.19
407.331	264.19
407.555	276.19
407.778	228.19
408.002	243.19
408.226	248.19
408.449	261.19
408.673	230.19
408.896	211.19
409.12	203.19
409.344	210.19
409.567	208.19
409.791	218.19
410.014	214.19
410.238	214.19
410.461	187.19
410.685	215.19
410.908	201.19
411.132	221.19
411.355	237.19
411.578	215.19
411.802	196.19
412.025	215.19
412.249	216.19
412.472	207.19
412.695	225.19
412.919	199.19
413.142	210.19
413.365	242.19
413.589	231.19
413.812	235.19
414.035	219.19
414.258	207.19
414.482	222.19
414.705	242.19
414.928	205.19
415.151	208.19
415.374	195.19
415.597	225.19
415.821	199.19
416.044	189.19
416.267	213.19
416.49	191.19
416.713	204.19
416.936	196.19
417.159	192.19
417.382	195.19
417.605	200.19
417.828	217.19
418.051	205.19
418.274	231.19
418.497	213.19
418.72	223.19
418.943	218.19
419.166	208.19
419.389	207.19
419.611	241.19
419.834	235.19
420.057	249.19
420.28	233.19
420.503	223.19
420.726	209.19
420.948	185.19
421.171	205.19
421.394	191.19
421.617	184.19
421.839	197.19
422.062	207.19
422.285	211.19
422.507	205.19
422.73	213.19
422.953	233.19
423.175	197.19
423.398	216.19
423.621	225.19
423.843	234.19
424.066	229.19
424.288	199.19
424.511	205.19
424.733	201.19
424.956	205.19
425.178	209.19
425.401	246.19
425.623	287.19
425.846	246.19
426.068	218.19
426.291	236.19
426.513	233.19
426.735	205.19
426.958	208.19
427.18	226.19
427.402	285.19
427.625	294.19
427.847	242.19
428.069	206.19
428.292	200.19
428.514	198.19
428.736	200.19
428.958	214.19
429.181	241.19
429.403	210.19
429.625	220.19
429.847	189.19
430.069	201.19
430.292	213.19
430.514	179.19
430.736	196.19
430.958	240.19
431.18	205.19
431.402	194.19
431.624	200.19
431.846	179.19
432.068	192.19
432.29	190.19
432.512	209.19
432.734	231.19
432.956	232.19
433.178	200.19
433.4	191.19
433.622	171.19
433.844	202.19
434.066	231.19
434.287	222.19
434.509	212.19
434.731	187.19
434.953	206.19
435.175	205.19
435.397	237.19
435.618	213.19
435.84	189.19
436.062	181.19
436.284	208.19
436.505	182.19
436.727	188.19
436.949	170.19
437.17	191.19
437.392	198.19
437.614	197.19
437.835	191.19
438.057	195.19
438.278	212.19
438.5	255.19
438.721	267.19
438.943	189.19
439.165	190.19
439.386	187.19
439.608	179.19
439.829	178.19
440.05	182.19
440.272	208.19
440.493	214.19
440.715	241.19
440.936	226.19
441.158	196.19
441.379	191.19
441.6	213.19
441.822	235.19
442.043	201.19
442.264	179.19
442.486	194.19
442.707	204.19
442.928	195.19
443.149	200.19
443.371	198.19
443.592	201.19
443.813	203.19
444.034	203.19
444.255	203.19
444.476	220.19
444.698	213.19
444.919	212.19
445.14	337.19
445.361	301.19
445.582	223.19
445.803	213.19
446.024	214.19
446.245	224.19
446.466	216.19
446.687	201.19
446.908	189.19
447.129	179.19
447.35	190.19
447.571	181.19
447.792	183.19
448.013	186.19
448.234	173.19
448.455	193.19
448.675	181.19
448.896	178.19
449.117	195.19
449.338	196.19
449.559	190.19
449.779	197.19
450	210.19
450.221	201.19
450.442	197.19
450.662	179.19
450.883	183.19
451.104	176.19
451.324	185.19
451.545	203.19
451.766	187.19
451.986	186.19
452.207	170.19
452.428	180.19
452.648	172.19
452.869	179.19
453.089	195.19
453.31	197.19
453.53	165.19
453.751	163.19
453.971	173.19
454.192	178.19
454.412	187.19
454.633	181.19
454.853	181.19
455.073	169.19
455.294	181.19
455.514	172.19
455.734	188.19
455.955	183.19
456.175	178.19
456.395	183.19
456.616	167.19
456.836	173.19
457.056	159.19
457.276	159.19
457.497	169.19
457.717	163.19
457.937	180.19
458.157	177.19
458.377	179.19
458.598	176.19
458.818	179.19
459.038	179.19
459.258	194.19
459.478	193.19
459.698	205.19
459.918	219.19
460.138	193.19
460.358	202.19
460.578	202.19
460.798	213.19
461.018	211.19
461.238	204.19
461.458	216.19
461.678	219.19
461.898	222.19
462.118	235.19
462.338	222.19
462.558	232.19
462.777	215.19
462.997	228.19
463.217	232.19
463.437	228.19
463.657	214.19
463.876	241.19
464.096	239.19
464.316	232.19
464.536	217.19
464.755	218.19
464.975	235.19
465.195	223.19
465.414	215.19
465.634	225.19
465.854	224.19
466.073	201.19
466.293	204.19
466.512	199.19
466.732	227.19
466.951	236.19
467.171	227.19
467.391	201.19
467.61	201.19
467.829	223.19
468.049	199.19
468.268	192.19
468.488	203.19
468.707	195.19
468.927	226.19
469.146	224.19
469.365	228.19
469.585	199.19
469.804	210.19
470.023	230.19
470.243	212.19
470.462	205.19
470.681	204.19
470.901	210.19
471.12	222.19
471.339	212.19
471.558	197.19
471.777	200.19
471.997	213.19
472.216	223.19
472.435	220.19
472.654	199.19
472.873	202.19
473.092	219.19
473.311	219.19
473.53	210.19
473.749	196.19
473.968	197.19
474.187	206.19
474.406	191.19
474.625	196.19
474.844	199.19
475.063	217.19
475.282	217.19
475.501	220.19
475.72	253.19
475.939	235.19
476.158	236.19
476.377	261.19
476.596	288.19
476.814	283.19
477.033	269.19
477.252	233.19
477.471	204.19
477.69	201.19
477.908	227.19
478.127	233.19
478.346	216.19
478.564	280.19
478.783	249.19
479.002	247.19
479.22	259.19
479.439	275.19
479.658	240.19
479.876	230.19
480.095	244.19
480.313	261.19
480.532	228.19
480.751	227.19
480.969	227.19
481.188	276.19
481.406	252.19
481.624	239.19
481.843	218.19
482.061	209.19
482.28	246.19
482.498	313.19
482.717	302.19
482.935	251.19
483.153	219.19
483.372	216.19
483.59	208.19
483.808	210.19
484.027	216.19
484.245	206.19
484.463	191.19
484.681	218.19
484.9	221.19
485.118	234.19
485.336	244.19
485.554	236.19
485.772	235.19
485.99	232.19
486.209	247.19
486.427	248.19
486.645	245.19
486.863	243.19
487.081	259.19
487.299	273.19
487.517	265.19
487.735	239.19
487.953	241.19
488.171	248.19
488.389	225.19
488.607	229.19
488.825	234.19
489.043	253.19
489.261	289.19
489.479	300.19
489.696	263.19
489.914	210.19
490.132	207.19
490.35	224.19
490.568	231.19
490.786	223.19
491.003	227.19
491.221	232.19
491.439	215.19
491.657	211.19
491.874	237.19
492.092	280.19
492.31	347.19
492.527	310.19
492.745	279.19
492.963	260.19
493.18	241.19
493.398	251.19
493.615	247.19
493.833	244.19
494.05	236.19
494.268	262.19
494.485	266.19
494.703	234.19
494.92	254.19
495.138	222.19
495.355	236.19
495.573	241.19
495.79	252.19
496.008	336.19
496.225	282.19
496.442	263.19
496.66	290.19
496.877	266.19
497.094	275.19
497.312	247.19
497.529	242.19
497.746	265.19
497.963	258.19
498.181	277.19
498.398	322.19
498.615	315.19
498.832	347.19
499.049	338.19
499.267	329.19
499.484	311.19
499.701	362.19
499.918	383.19
500.135	404.19
500.352	420.19
500.569	451.19
500.786	457.19
501.003	469.19
501.22	409.19
501.437	375.19
501.654	362.19
501.871	343.19
502.088	340.19
502.305	298.19
502.522	301.19
502.739	318.19
502.956	281.19
503.172	273.19
503.389	273.19
503.606	242.19
503.823	263.19
504.04	278.19
504.256	275.19
504.473	275.19
504.69	290.19
504.907	278.19
505.123	277.19
505.34	284.19
505.557	273.19
505.773	257.19
505.99	257.19
506.207	280.19
506.423	262.19
506.64	235.19
506.856	240.19
507.073	263.19
507.289	263.19
507.506	258.19
507.722	287.19
507.939	278.19
508.155	290.19
508.372	247.19
508.588	240.19
508.805	239.19
509.021	242.19
509.238	215.19
509.454	244.19
509.67	234.19
509.887	241.19
510.103	269.19
510.319	249.19
510.536	234.19
510.752	231.19
510.968	221.19
511.184	203.19
511.401	230.19
511.617	218.19
511.833	211.19
512.049	213.19
512.265	222.19
512.481	236.19
512.698	232.19
512.914	280.19
513.13	247.19
513.346	217.19
513.562	230.19
513.778	273.19
513.994	225.19
514.21	236.19
514.426	248.19
514.642	250.19
514.858	226.19
515.074	240.19
515.29	252.19
515.506	286.19
515.721	260.19
515.937	259.19
516.153	229.19
516.369	225.19
516.585	244.19
516.801	264.19
517.016	300.19
517.232	305.19
517.448	305.19
517.664	292.19
517.879	295.19
518.095	267.19
518.311	251.19
518.527	259.19
518.742	305.19
518.958	285.19
519.173	293.19
519.389	284.19
519.605	298.19
519.82	290.19
520.036	311.19
520.251	309.19
520.467	312.19
520.682	461.19
520.898	590.19
521.113	548.19
521.329	347.19
521.544	307.19
521.76	280.19
521.975	261.19
522.19	267.19
522.406	260.19
522.621	276.19
522.836	291.19
523.052	288.19
523.267	260.19
523.482	259.19
523.698	276.19
523.913	275.19
524.128	231.19
524.343	225.19
524.559	251.19
524.774	229.19
524.989	232.19
525.204	226.19
525.419	262.19
525.634	253.19
525.849	253.19
526.064	261.19
526.28	255.19
526.495	274.19
526.71	315.19
526.925	292.19
527.14	279.19
527.355	283.19
527.57	231.19
527.785	262.19
527.999	240.19
528.214	223.19
528.429	221.19
528.644	222.19
528.859	213.19
529.074	213.19
529.289	214.19
529.503	200.19
529.718	211.19
529.933	264.19
530.148	291.19
530.363	218.19
530.577	213.19
530.792	215.19
531.007	212.19
531.221	211.19
531.436	209.19
531.651	209.19
531.865	218.19
532.08	219.19
532.295	203.19
532.509	223.19
532.724	253.19
532.938	267.19
533.153	333.19
533.367	268.19
533.582	258.19
533.796	243.19
534.011	223.19
534.225	242.19
534.44	253.19
534.654	245.19
534.868	281.19
535.083	262.19
535.297	227.19
535.511	223.19
535.726	228.19
535.94	226.19
536.154	216.19
536.369	212.19
536.583	210.19
536.797	215.19
537.011	225.19
537.225	232.19
537.44	251.19
537.654	198.19
537.868	217.19
538.082	221.19
538.296	218.19
538.51	223.19
538.724	233.19
538.938	223.19
539.153	214.19
539.367	220.19
539.581	210.19
539.795	208.19
540.009	229.19
540.222	224.19
540.436	228.19
540.65	260.19
540.864	256.19
541.078	257.19
541.292	311.19
541.506	248.19
541.72	216.19
541.934	213.19
542.147	231.19
542.361	233.19
542.575	234.19
542.789	218.19
543.002	205.19
543.216	240.19
543.43	198.19
543.644	199.19
543.857	197.19
544.071	202.19
544.285	213.19
544.498	220.19
544.712	210.19
544.925	231.19
545.139	202.19
545.352	187.19
545.566	201.19
545.779	227.19
545.993	217.19
546.206	179.19
546.42	178.19
546.633	186.19
546.847	172.19
547.06	187.19
547.274	181.19
547.487	210.19
547.7	219.19
547.914	209.19
548.127	220.19
548.34	220.19
548.554	210.19
548.767	212.19
548.98	243.19
549.193	218.19
549.407	205.19
549.62	241.19
549.833	247.19
550.046	259.19
550.259	258.19
550.473	218.19
550.686	202.19
550.899	219.19
551.112	219.19
551.325	233.19
551.538	241.19
551.751	220.19
551.964	201.19
552.177	203.19
552.39	194.19
552.603	210.19
552.816	213.19
553.029	197.19
553.242	203.19
553.455	208.19
553.667	226.19
553.88	232.19
554.093	213.19
554.306	197.19
554.519	198.19
554.732	187.19
554.944	183.19
555.157	170.19
555.37	183.19
555.583	190.19
555.795	177.19
556.008	196.19
556.221	186.19
556.433	179.19
556.646	185.19
556.859	168.19
557.071	185.19
557.284	186.19
557.496	207.19
557.709	196.19
557.921	199.19
558.134	175.19
558.346	172.19
558.559	175.19
558.771	181.19
558.984	201.19
559.196	185.19
559.409	172.19
559.621	166.19
559.833	171.19
560.046	165.19
560.258	164.19
560.47	194.19
560.683	180.19
560.895	169.19
561.107	161.19
561.32	162.19
561.532	169.19
561.744	193.19
561.956	181.19
562.168	175.19
562.381	167.19
562.593	184.19
562.805	186.19
563.017	181.19
563.229	172.19
563.441	177.19
563.653	170.19
563.865	169.19
564.077	178.19
564.289	175.19
564.501	166.19
564.713	176.19
564.925	185.19
565.137	178.19
565.349	183.19
565.561	175.19
565.773	178.19
565.985	193.19
566.197	196.19
566.408	214.19
566.62	215.19
566.832	211.19
567.044	217.19
567.255	207.19
567.467	243.19
567.679	232.19
567.891	224.19
568.102	237.19
568.314	227.19
568.526	230.19
568.737	213.19
568.949	216.19
569.161	184.19
569.372	183.19
569.584	164.19
569.795	193.19
570.007	193.19
570.218	189.19
570.43	183.19
570.641	189.19
570.853	179.19
571.064	171.19
571.276	169.19
571.487	190.19
571.698	163.19
571.91	182.19
572.121	174.19
572.333	159.19
572.544	164.19
572.755	168.19
572.966	162.19
573.178	164.19
573.389	152.19
573.6	172.19
573.811	179.19
574.023	155.19
574.234	147.19
574.445	156.19
574.656	154.19
574.867	155.19
575.078	158.19
575.289	175.19
575.501	156.19
575.712	159.19
575.923	155.19
576.134	146.19
576.345	161.19
576.556	160.19
576.767	140.19
576.978	158.19
577.188	152.19
577.399	144.19
577.61	155.19
577.821	153.19
578.032	153.19
578.243	148.19
578.454	159.19
578.665	159.19
578.875	144.19
579.086	152.19
579.297	163.19
579.508	156.19
579.718	160.19
579.929	149.19
580.14	156.19
580.35	136.19
580.561	145.19
580.772	137.19
580.982	140.19
581.193	140.19
581.403	128.19
581.614	144.19
581.825	149.19
582.035	139.19
582.246	145.19
582.456	140.19
582.667	137.19
582.877	143.19
583.087	130.19
583.298	140.19
583.508	136.19
583.719	128.19
583.929	132.19
584.139	157.19
584.35	141.19
584.56	137.19
584.77	147.19
584.981	149.19
585.191	144.19
585.401	130.19
585.611	148.19
585.821	153.19
586.032	140.19
586.242	134.19
586.452	131.19
586.662	147.19
586.872	142.19
587.082	134.19
587.292	129.19
587.502	139.19
587.713	142.19
587.923	140.19
588.133	159.19
588.343	145.19
588.553	115.19
588.762	149.19
588.972	152.19
589.182	143.19
589.392	149.19
589.602	137.19
589.812	145.19
590.022	153.19
590.232	145.19
590.441	132.19
590.651	155.19
590.861	144.19
591.071	127.19
591.281	148.19
591.49	148.19
591.7	152.19
591.91	133.19
592.119	141.19
592.329	124.19
592.539	147.19
592.748	139.19
592.958	141.19
593.167	142.19
593.377	151.19
593.587	162.19
593.796	159.19
594.006	141.19
594.215	149.19
594.424	152.19
594.634	148.19
594.843	149.19
595.053	137.19
595.262	125.19
595.472	155.19
595.681	140.19
595.89	132.19
596.1	139.19
596.309	136.19
596.518	141.19
596.727	142.19
596.937	126.19
597.146	154.19
597.355	160.19
597.564	147.19
597.774	129.19
597.983	125.19
598.192	127.19
598.401	131.19
598.61	121.19
598.819	105.19
599.028	119.19
599.237	127.19
599.446	117.19
599.655	127.19
599.864	129.19
600.073	132.19
600.282	124.19
600.491	120.19
600.7	118.19
600.909	135.19
601.118	131.19
601.327	116.19
601.536	116.19
601.745	124.19
601.953	138.19
602.162	135.19
602.371	119.19
602.58	133.19
602.789	126.19
602.997	125.19
603.206	131.19
603.415	126.19
603.623	123.19
603.832	141.19
604.041	125.19
604.249	123.19
604.458	115.19
604.666	130.19
604.875	115.19
605.084	123.19
605.292	109.19
605.501	124.19
605.709	121.19
605.918	124.19
606.126	114.19
606.334	129.19
606.543	122.19
606.751	124.19
606.96	122.19
607.168	127.19
607.376	121.19
607.585	117.19
607.793	114.19
608.001	119.19
608.21	130.19
608.418	127.19
608.626	125.19
608.834	119.19
609.043	129.19
609.251	120.19
609.459	123.19
609.667	103.19
609.875	129.19
610.083	106.19
610.291	121.19
610.499	129.19
610.707	119.19
610.916	115.19
611.124	118.19
611.332	117.19
611.54	121.19
611.748	115.19
611.955	104.19
612.163	114.19
612.371	108.19
612.579	120.19
612.787	112.19
612.995	120.19
613.203	113.19
613.411	123.19
613.618	121.19
613.826	115.19
614.034	111.19
614.242	125.19
614.449	104.19
614.657	125.19
614.865	121.19
615.072	95.19
615.28	111.19
615.488	119.19
615.695	103.19
615.903	108.19
616.111	112.19
616.318	99.19
616.526	110.19
616.733	126.19
616.941	114.19
617.148	119.19
617.356	113.19
617.563	120.19
617.771	113.19
617.978	118.19
618.185	117.19
618.393	117.19
618.6	111.19
618.807	113.19
619.015	94.19
619.222	117.19
619.429	111.19
619.637	130.19
619.844	125.19
620.051	108.19
620.258	110.19
620.466	125.19
620.673	117.19
620.88	119.19
621.087	122.19
621.294	114.19
621.501	114.19
621.708	131.19
621.915	114.19
622.122	104.19
622.329	113.19
622.536	113.19
622.743	122.19
622.95	120.19
623.157	112.19
623.364	99.19
623.571	103.19
623.778	113.19
623.985	109.19
624.192	114.19
624.399	123.19
624.606	129.19
624.812	117.19
625.019	122.19
625.226	124.19
625.433	108.19
625.639	111.19
625.846	116.19
626.053	110.19
626.259	112.19
626.466	127.19
626.673	97.19
626.879	112.19
627.086	115.19
627.293	109.19
627.499	107.19
627.706	115.19
627.912	85.19
628.119	112.19
628.325	112.19
628.532	103.19
628.738	102.19
628.945	109.19
629.151	94.19
629.357	112.19
629.564	111.19
629.77	112.19
629.976	106.19
630.183	107.19
630.389	100.19
630.595	95.19
630.802	102.19
631.008	100.19
631.214	108.19
631.42	100.19
631.627	114.19
631.833	111.19
632.039	115.19
632.245	108.19
632.451	106.19
632.657	104.19
632.863	95.19
633.069	113.19
633.275	103.19
633.481	108.19
633.688	96.19
633.893	108.19
634.099	111.19
634.305	93.19
634.511	96.19
634.717	111.19
634.923	97.19
635.129	98.19
635.335	101.19
635.541	96.19
635.747	93.19
635.952	107.19
636.158	113.19
636.364	102.19
636.57	102.19
636.775	114.19
636.981	112.19
637.187	95.19
637.392	108.19
637.598	111.19
637.804	119.19
638.009	105.19
638.215	100.19
638.421	95.19
638.626	100.19
638.832	118.19
639.037	90.19
639.243	105.19
639.448	110.19
639.654	111.19
639.859	105.19
640.065	102.19
640.27	105.19
640.475	92.19
640.681	112.19
640.886	99.19
641.091	88.19
641.297	103.19
641.502	96.19
641.707	100.19
641.913	95.19
642.118	108.19
642.323	103.19
642.528	98.19
642.733	105.19
642.939	97.19
643.144	104.19
643.349	104.19
643.554	112.19
643.759	106.19
643.964	108.19
644.169	108.19
644.374	98.19
644.579	106.19
644.784	98.19
644.989	112.19
645.194	102.19
645.399	98.19
645.604	108.19
645.809	107.19
646.014	102.19
646.219	120.19
646.423	94.19
646.628	101.19
646.833	106.19
647.038	96.19
647.243	103.19
647.447	88.19
647.652	101.19
647.857	101.19
648.062	110.19
648.266	119.19
648.471	106.19
648.676	111.19
648.88	104.19
649.085	106.19
649.289	104.19
649.494	98.19
649.698	109.19
649.903	108.19
650.107	102.19
650.312	95.19
650.516	104.19
650.721	84.19
650.925	105.19
651.13	84.19
651.334	94.19
651.539	113.19
651.743	97.19
651.947	110.19
652.152	90.19
652.356	84.19
652.56	90.19
652.764	105.19
652.969	86.19
653.173	80.19
653.377	84.19
653.581	100.19
653.785	98.19
653.99	94.19
654.194	104.19
654.398	105.19
654.602	98.19
654.806	90.19
655.01	91.19
655.214	92.19
655.418	95.19
655.622	89.19
655.826	99.19
656.03	99.19
656.234	86.19
656.438	93.19
656.642	105.19
656.846	93.19
657.049	89.19
657.253	89.19
657.457	89.19
657.661	96.19
657.865	93.19
658.068	83.19
658.272	81.19
658.476	89.19
658.68	81.19
658.883	98.19
659.087	91.19
659.291	85.19
659.494	75.19
659.698	84.19
659.901	85.19
660.105	73.19
660.309	79.19
660.512	83.19
660.716	88.19
660.919	82.19
661.123	95.19
661.326	75.19
661.53	77.19
661.733	98.19
661.936	104.19
662.14	87.19
662.343	87.19
662.546	92.19
662.75	78.19
662.953	94.19
663.156	81.19
663.36	84.19
663.563	85.19
663.766	86.19
663.969	75.19
664.173	92.19
664.376	85.19
664.579	81.19
664.782	87.19
664.985	80.19
665.188	90.19
665.391	85.19
665.594	88.19
665.797	83.19
666	85.19
666.203	88.19
666.406	75.19
666.609	70.19
666.812	74.19
667.015	86.19
667.218	92.19
667.421	79.19
667.624	70.19
667.827	70.19
668.03	81.19
668.232	80.19
668.435	84.19
668.638	75.19
668.841	93.19
669.043	87.19
669.246	85.19
669.449	82.19
669.651	87.19
669.854	69.19
670.057	75.19
670.259	90.19
670.462	83.19
670.665	82.19
670.867	68.19
671.07	94.19
671.272	84.19
671.475	101.19
671.677	86.19
671.88	76.19
672.082	86.19
672.284	82.19
672.487	102.19
672.689	93.19
672.892	70.19
