Data from NickelSpatula_HRD10591_16-34-23-126.txt Node
Date: Mon Jul 22 16:34:23 EDT 2019
User: cochatt
Spectrometer: HR+D1059
Trigger mode: 1
Integration Time (sec): 1.000000E-1
Scans to average: 1
Electric dark correction enabled: true
Nonlinearity correction enabled: false
Boxcar width: 0
XAxis mode: Wavelengths
Number of Pixels in Spectrum: 2048
>>>>>Begin Spectral Data<<<<<
223.165	-9.81
223.4	-9.81
223.635	-9.81
223.869	-15.81
224.104	-19.81
224.338	-0.81
224.573	-16.81
224.808	-17.81
225.042	-2.81
225.277	-13.81
225.511	-0.81
225.746	3.19
225.98	7.19
226.215	-6.81
226.449	9.19
226.683	21.19
226.918	36.19
227.152	28.19
227.387	29.19
227.621	31.19
227.856	37.19
228.09	44.19
228.324	57.19
228.559	53.19
228.793	58.19
229.027	71.19
229.262	71.19
229.496	72.19
229.73	89.19
229.964	83.19
230.199	87.19
230.433	85.19
230.667	85.19
230.901	94.19
231.136	86.19
231.37	104.19
231.604	119.19
231.838	92.19
232.072	112.19
232.306	110.19
232.541	102.19
232.775	103.19
233.009	108.19
233.243	111.19
233.477	124.19
233.711	124.19
233.945	105.19
234.179	99.19
234.413	121.19
234.647	132.19
234.881	136.19
235.115	124.19
235.349	114.19
235.583	117.19
235.817	105.19
236.051	122.19
236.285	127.19
236.519	132.19
236.753	123.19
236.987	124.19
237.221	116.19
237.455	106.19
237.689	128.19
237.922	132.19
238.156	130.19
238.39	156.19
238.624	148.19
238.858	136.19
239.091	138.19
239.325	138.19
239.559	131.19
239.793	145.19
240.027	178.19
240.26	138.19
240.494	134.19
240.728	155.19
240.961	150.19
241.195	152.19
241.429	159.19
241.662	151.19
241.896	134.19
242.13	134.19
242.363	127.19
242.597	129.19
242.83	156.19
243.064	142.19
243.298	162.19
243.531	153.19
243.765	174.19
243.998	164.19
244.232	158.19
244.465	161.19
244.699	168.19
244.932	166.19
245.166	160.19
245.399	140.19
245.633	158.19
245.866	152.19
246.099	168.19
246.333	167.19
246.566	191.19
246.8	173.19
247.033	168.19
247.266	180.19
247.5	163.19
247.733	174.19
247.966	182.19
248.2	177.19
248.433	200.19
248.666	177.19
248.899	168.19
249.133	189.19
249.366	201.19
249.599	236.19
249.832	217.19
250.066	210.19
250.299	189.19
250.532	190.19
250.765	182.19
250.998	188.19
251.231	185.19
251.465	199.19
251.698	182.19
251.931	184.19
252.164	207.19
252.397	216.19
252.63	221.19
252.863	248.19
253.096	243.19
253.329	257.19
253.562	240.19
253.795	266.19
254.028	296.19
254.261	280.19
254.494	260.19
254.727	264.19
254.96	241.19
255.193	262.19
255.426	265.19
255.659	198.19
255.892	196.19
256.124	196.19
256.357	237.19
256.59	261.19
256.823	258.19
257.056	240.19
257.289	208.19
257.521	222.19
257.754	226.19
257.987	281.19
258.22	242.19
258.452	205.19
258.685	248.19
258.918	264.19
259.151	272.19
259.383	276.19
259.616	316.19
259.849	323.19
260.081	321.19
260.314	372.19
260.547	311.19
260.779	313.19
261.012	357.19
261.244	328.19
261.477	345.19
261.71	317.19
261.942	280.19
262.175	273.19
262.407	265.19
262.64	237.19
262.872	303.19
263.105	337.19
263.337	335.19
263.57	309.19
263.802	233.19
264.035	207.19
264.267	217.19
264.499	183.19
264.732	164.19
264.964	183.19
265.197	186.19
265.429	190.19
265.661	194.19
265.894	210.19
266.126	219.19
266.358	224.19
266.591	247.19
266.823	329.19
267.055	308.19
267.287	302.19
267.52	305.19
267.752	311.19
267.984	298.19
268.216	310.19
268.448	264.19
268.681	255.19
268.913	278.19
269.145	284.19
269.377	295.19
269.609	305.19
269.841	277.19
270.073	294.19
270.306	316.19
270.538	303.19
270.77	313.19
271.002	330.19
271.234	310.19
271.466	326.19
271.698	318.19
271.93	291.19
272.162	292.19
272.394	296.19
272.626	284.19
272.858	325.19
273.09	320.19
273.322	277.19
273.553	256.19
273.785	278.19
274.017	350.19
274.249	441.19
274.481	438.19
274.713	529.19
274.945	542.19
275.176	556.19
275.408	537.19
275.64	473.19
275.872	466.19
276.104	438.19
276.335	384.19
276.567	379.19
276.799	379.19
277.031	415.19
277.262	353.19
277.494	279.19
277.726	259.19
277.957	286.19
278.189	317.19
278.421	308.19
278.652	315.19
278.884	296.19
279.115	275.19
279.347	274.19
279.579	267.19
279.81	265.19
280.042	266.19
280.273	297.19
280.505	274.19
280.736	254.19
280.968	239.19
281.199	254.19
281.431	286.19
281.662	270.19
281.894	269.19
282.125	287.19
282.356	295.19
282.588	295.19
282.819	273.19
283.051	297.19
283.282	344.19
283.513	386.19
283.745	424.19
283.976	423.19
284.207	389.19
284.439	415.19
284.67	407.19
284.901	353.19
285.132	373.19
285.364	391.19
285.595	381.19
285.826	402.19
286.057	406.19
286.288	376.19
286.52	391.19
286.751	407.19
286.982	425.19
287.213	378.19
287.444	378.19
287.675	399.19
287.906	376.19
288.138	331.19
288.369	313.19
288.6	283.19
288.831	278.19
289.062	327.19
289.293	336.19
289.524	350.19
289.755	336.19
289.986	348.19
290.217	304.19
290.448	252.19
290.679	239.19
290.91	215.19
291.141	226.19
291.371	213.19
291.602	223.19
291.833	222.19
292.064	241.19
292.295	253.19
292.526	302.19
292.757	303.19
292.987	326.19
293.218	327.19
293.449	346.19
293.68	365.19
293.91	348.19
294.141	359.19
294.372	336.19
294.603	323.19
294.833	337.19
295.064	377.19
295.295	383.19
295.525	304.19
295.756	261.19
295.987	258.19
296.217	218.19
296.448	231.19
296.679	239.19
296.909	260.19
297.14	270.19
297.37	309.19
297.601	274.19
297.831	252.19
298.062	271.19
298.292	293.19
298.523	312.19
298.753	344.19
298.984	323.19
299.214	266.19
299.445	227.19
299.675	242.19
299.905	242.19
300.136	221.19
300.366	245.19
300.597	276.19
300.827	236.19
301.057	211.19
301.288	238.19
301.518	265.19
301.748	268.19
301.979	295.19
302.209	300.19
302.439	313.19
302.669	276.19
302.9	265.19
303.13	266.19
303.36	246.19
303.59	239.19
303.82	249.19
304.051	272.19
304.281	281.19
304.511	304.19
304.741	238.19
304.971	268.19
305.201	293.19
305.431	264.19
305.661	242.19
305.891	239.19
306.121	242.19
306.352	225.19
306.582	201.19
306.812	175.19
307.042	202.19
307.272	191.19
307.502	186.19
307.731	203.19
307.961	200.19
308.191	215.19
308.421	178.19
308.651	189.19
308.881	167.19
309.111	179.19
309.341	193.19
309.571	196.19
309.8	212.19
310.03	219.19
310.26	227.19
310.49	227.19
310.72	195.19
310.949	199.19
311.179	202.19
311.409	209.19
311.639	223.19
311.868	280.19
312.098	366.19
312.328	369.19
312.557	373.19
312.787	398.19
313.017	338.19
313.246	374.19
313.476	398.19
313.706	341.19
313.935	278.19
314.165	229.19
314.394	210.19
314.624	213.19
314.853	237.19
315.083	222.19
315.312	202.19
315.542	231.19
315.771	211.19
316.001	204.19
316.23	203.19
316.46	197.19
316.689	193.19
316.919	189.19
317.148	206.19
317.377	197.19
317.607	192.19
317.836	214.19
318.065	252.19
318.295	257.19
318.524	262.19
318.753	222.19
318.983	206.19
319.212	196.19
319.441	199.19
319.67	238.19
319.9	247.19
320.129	259.19
320.358	217.19
320.587	214.19
320.816	202.19
321.046	252.19
321.275	273.19
321.504	270.19
321.733	271.19
321.962	250.19
322.191	238.19
322.42	237.19
322.649	236.19
322.878	262.19
323.108	259.19
323.337	245.19
323.566	235.19
323.795	233.19
324.024	238.19
324.253	233.19
324.482	217.19
324.71	231.19
324.939	251.19
325.168	244.19
325.397	213.19
325.626	198.19
325.855	209.19
326.084	216.19
326.313	195.19
326.542	215.19
326.77	206.19
326.999	200.19
327.228	208.19
327.457	219.19
327.686	220.19
327.914	196.19
328.143	198.19
328.372	189.19
328.6	200.19
328.829	192.19
329.058	208.19
329.287	193.19
329.515	199.19
329.744	209.19
329.972	181.19
330.201	181.19
330.43	185.19
330.658	202.19
330.887	223.19
331.115	216.19
331.344	230.19
331.572	226.19
331.801	208.19
332.03	194.19
332.258	186.19
332.486	205.19
332.715	218.19
332.943	212.19
333.172	220.19
333.4	217.19
333.629	226.19
333.857	236.19
334.085	237.19
334.314	256.19
334.542	237.19
334.771	212.19
334.999	198.19
335.227	214.19
335.455	201.19
335.684	223.19
335.912	255.19
336.14	288.19
336.369	271.19
336.597	233.19
336.825	270.19
337.053	326.19
337.281	252.19
337.51	214.19
337.738	207.19
337.966	236.19
338.194	231.19
338.422	242.19
338.65	202.19
338.878	198.19
339.106	197.19
339.334	216.19
339.562	227.19
339.79	224.19
340.018	201.19
340.246	223.19
340.474	261.19
340.702	260.19
340.93	273.19
341.158	258.19
341.386	238.19
341.614	217.19
341.842	239.19
342.07	236.19
342.298	265.19
342.526	292.19
342.754	248.19
342.981	243.19
343.209	222.19
343.437	245.19
343.665	248.19
343.893	257.19
344.12	273.19
344.348	337.19
344.576	309.19
344.804	255.19
345.031	219.19
345.259	201.19
345.487	218.19
345.714	215.19
345.942	234.19
346.17	245.19
346.397	243.19
346.625	221.19
346.853	208.19
347.08	198.19
347.308	219.19
347.535	243.19
347.763	257.19
347.99	213.19
348.218	196.19
348.445	210.19
348.673	217.19
348.9	214.19
349.128	229.19
349.355	236.19
349.583	236.19
349.81	229.19
350.037	216.19
350.265	175.19
350.492	188.19
350.72	174.19
350.947	196.19
351.174	198.19
351.402	200.19
351.629	194.19
351.856	197.19
352.083	201.19
352.311	215.19
352.538	217.19
352.765	246.19
352.992	225.19
353.22	242.19
353.447	222.19
353.674	209.19
353.901	215.19
354.128	206.19
354.355	222.19
354.583	202.19
354.81	234.19
355.037	250.19
355.264	224.19
355.491	241.19
355.718	247.19
355.945	242.19
356.172	213.19
356.399	218.19
356.626	282.19
356.853	309.19
357.08	372.19
357.307	372.19
357.534	281.19
357.761	283.19
357.988	344.19
358.215	398.19
358.441	356.19
358.668	318.19
358.895	321.19
359.122	259.19
359.349	244.19
359.576	293.19
359.802	247.19
360.029	222.19
360.256	218.19
360.483	259.19
360.709	320.19
360.936	340.19
361.163	291.19
361.39	246.19
361.616	223.19
361.843	251.19
362.07	274.19
362.296	275.19
362.523	223.19
362.749	213.19
362.976	209.19
363.203	241.19
363.429	263.19
363.656	257.19
363.882	202.19
364.109	221.19
364.335	227.19
364.562	213.19
364.788	218.19
365.015	258.19
365.241	247.19
365.468	216.19
365.694	189.19
365.92	183.19
366.147	179.19
366.373	178.19
366.599	193.19
366.826	184.19
367.052	184.19
367.278	188.19
367.505	179.19
367.731	198.19
367.957	214.19
368.184	223.19
368.41	229.19
368.636	209.19
368.862	221.19
369.089	215.19
369.315	198.19
369.541	188.19
369.767	202.19
369.993	182.19
370.219	200.19
370.445	202.19
370.672	226.19
370.898	228.19
371.124	222.19
371.35	202.19
371.576	183.19
371.802	202.19
372.028	218.19
372.254	261.19
372.48	234.19
372.706	195.19
372.932	229.19
373.158	223.19
373.384	284.19
373.61	322.19
373.835	324.19
374.061	261.19
374.287	250.19
374.513	273.19
374.739	310.19
374.965	324.19
375.191	323.19
375.416	237.19
375.642	203.19
375.868	239.19
376.094	278.19
376.319	221.19
376.545	236.19
376.771	262.19
376.997	259.19
377.222	188.19
377.448	176.19
377.674	162.19
377.899	148.19
378.125	164.19
378.35	179.19
378.576	174.19
378.802	196.19
379.027	201.19
379.253	196.19
379.478	216.19
379.704	214.19
379.929	231.19
380.155	231.19
380.38	200.19
380.606	208.19
380.831	246.19
381.057	240.19
381.282	217.19
381.507	244.19
381.733	272.19
381.958	300.19
382.184	322.19
382.409	320.19
382.634	318.19
382.86	340.19
383.085	286.19
383.31	228.19
383.535	267.19
383.761	262.19
383.986	252.19
384.211	302.19
384.436	284.19
384.662	224.19
384.887	227.19
385.112	210.19
385.337	239.19
385.562	227.19
385.787	236.19
386.013	280.19
386.238	250.19
386.463	205.19
386.688	232.19
386.913	213.19
387.138	194.19
387.363	216.19
387.588	224.19
387.813	215.19
388.038	232.19
388.263	217.19
388.488	210.19
388.713	242.19
388.938	264.19
389.163	211.19
389.387	210.19
389.612	193.19
389.837	197.19
390.062	201.19
390.287	219.19
390.512	212.19
390.736	203.19
390.961	209.19
391.186	195.19
391.411	190.19
391.636	201.19
391.86	193.19
392.085	228.19
392.31	223.19
392.534	210.19
392.759	216.19
392.984	216.19
393.208	209.19
393.433	194.19
393.658	193.19
393.882	184.19
394.107	160.19
394.331	194.19
394.556	190.19
394.78	193.19
395.005	180.19
395.229	204.19
395.454	180.19
395.678	201.19
395.903	205.19
396.127	202.19
396.352	193.19
396.576	222.19
396.801	215.19
397.025	242.19
397.249	224.19
397.474	206.19
397.698	199.19
397.922	217.19
398.147	196.19
398.371	207.19
398.595	223.19
398.82	206.19
399.044	228.19
399.268	222.19
399.492	240.19
399.717	238.19
399.941	241.19
400.165	229.19
400.389	215.19
400.613	247.19
400.837	217.19
401.062	213.19
401.286	199.19
401.51	189.19
401.734	204.19
401.958	218.19
402.182	203.19
402.406	208.19
402.63	217.19
402.854	197.19
403.078	247.19
403.302	294.19
403.526	343.19
403.75	314.19
403.974	230.19
404.198	254.19
404.422	279.19
404.645	288.19
404.869	304.19
405.093	243.19
405.317	223.19
405.541	213.19
405.765	216.19
405.988	234.19
406.212	228.19
406.436	265.19
406.66	286.19
406.883	230.19
407.107	246.19
407.331	275.19
407.555	272.19
407.778	243.19
408.002	229.19
408.226	226.19
408.449	244.19
408.673	232.19
408.896	216.19
409.12	210.19
409.344	210.19
409.567	195.19
409.791	199.19
410.014	203.19
410.238	219.19
410.461	181.19
410.685	199.19
410.908	207.19
411.132	209.19
411.355	217.19
411.578	217.19
411.802	199.19
412.025	200.19
412.249	202.19
412.472	209.19
412.695	211.19
412.919	208.19
413.142	211.19
413.365	222.19
413.589	230.19
413.812	197.19
414.035	200.19
414.258	199.19
414.482	214.19
414.705	233.19
414.928	202.19
415.151	207.19
415.374	194.19
415.597	206.19
415.821	193.19
416.044	199.19
416.267	202.19
416.49	198.19
416.713	196.19
416.936	194.19
417.159	196.19
417.382	197.19
417.605	193.19
417.828	200.19
418.051	207.19
418.274	201.19
418.497	226.19
418.72	205.19
418.943	230.19
419.166	231.19
419.389	228.19
419.611	212.19
419.834	221.19
420.057	241.19
420.28	247.19
420.503	236.19
420.726	201.19
420.948	206.19
421.171	213.19
421.394	212.19
421.617	182.19
421.839	182.19
422.062	214.19
422.285	202.19
422.507	193.19
422.73	223.19
422.953	217.19
423.175	216.19
423.398	220.19
423.621	222.19
423.843	224.19
424.066	212.19
424.288	203.19
424.511	206.19
424.733	213.19
424.956	215.19
425.178	213.19
425.401	280.19
425.623	300.19
425.846	271.19
426.068	212.19
426.291	247.19
426.513	231.19
426.735	201.19
426.958	211.19
427.18	239.19
427.402	321.19
427.625	303.19
427.847	264.19
428.069	201.19
428.292	193.19
428.514	196.19
428.736	188.19
428.958	192.19
429.181	245.19
429.403	236.19
429.625	219.19
429.847	194.19
430.069	199.19
430.292	199.19
430.514	188.19
430.736	195.19
430.958	240.19
431.18	226.19
431.402	181.19
431.624	168.19
431.846	178.19
432.068	177.19
432.29	179.19
432.512	207.19
432.734	247.19
432.956	234.19
433.178	192.19
433.4	193.19
433.622	192.19
433.844	213.19
434.066	220.19
434.287	213.19
434.509	204.19
434.731	230.19
434.953	217.19
435.175	204.19
435.397	237.19
435.618	199.19
435.84	190.19
436.062	186.19
436.284	201.19
436.505	195.19
436.727	180.19
436.949	182.19
437.17	180.19
437.392	206.19
437.614	188.19
437.835	178.19
438.057	181.19
438.278	220.19
438.5	274.19
438.721	287.19
438.943	209.19
439.165	183.19
439.386	174.19
439.608	173.19
439.829	170.19
440.05	184.19
440.272	201.19
440.493	195.19
440.715	253.19
440.936	231.19
441.158	192.19
441.379	194.19
441.6	223.19
441.822	228.19
442.043	193.19
442.264	174.19
442.486	200.19
442.707	171.19
442.928	170.19
443.149	198.19
443.371	193.19
443.592	193.19
443.813	190.19
444.034	175.19
444.255	196.19
444.476	202.19
444.698	216.19
444.919	207.19
445.14	325.19
445.361	276.19
445.582	217.19
445.803	220.19
446.024	221.19
446.245	216.19
446.466	221.19
446.687	205.19
446.908	194.19
447.129	188.19
447.35	178.19
447.571	169.19
447.792	189.19
448.013	166.19
448.234	162.19
448.455	170.19
448.675	181.19
448.896	185.19
449.117	176.19
449.338	190.19
449.559	182.19
449.779	204.19
450	213.19
450.221	202.19
450.442	192.19
450.662	181.19
450.883	178.19
451.104	191.19
451.324	158.19
451.545	165.19
451.766	172.19
451.986	172.19
452.207	185.19
452.428	180.19
452.648	186.19
452.869	194.19
453.089	210.19
453.31	194.19
453.53	169.19
453.751	154.19
453.971	165.19
454.192	175.19
454.412	169.19
454.633	176.19
454.853	182.19
455.073	173.19
455.294	179.19
455.514	174.19
455.734	170.19
455.955	185.19
456.175	182.19
456.395	155.19
456.616	157.19
456.836	167.19
457.056	163.19
457.276	156.19
457.497	176.19
457.717	158.19
457.937	165.19
458.157	167.19
458.377	192.19
458.598	167.19
458.818	173.19
459.038	181.19
459.258	197.19
459.478	180.19
459.698	190.19
459.918	196.19
460.138	207.19
460.358	210.19
460.578	204.19
460.798	193.19
461.018	193.19
461.238	202.19
461.458	191.19
461.678	212.19
461.898	214.19
462.118	208.19
462.338	213.19
462.558	222.19
462.777	213.19
462.997	228.19
463.217	238.19
463.437	229.19
463.657	217.19
463.876	217.19
464.096	219.19
464.316	209.19
464.536	222.19
464.755	237.19
464.975	256.19
465.195	239.19
465.414	239.19
465.634	208.19
465.854	212.19
466.073	183.19
466.293	187.19
466.512	220.19
466.732	238.19
466.951	227.19
467.171	202.19
467.391	188.19
467.61	178.19
467.829	193.19
468.049	200.19
468.268	191.19
468.488	172.19
468.707	184.19
468.927	208.19
469.146	224.19
469.365	213.19
469.585	215.19
469.804	203.19
470.023	230.19
470.243	213.19
470.462	178.19
470.681	204.19
470.901	212.19
471.12	225.19
471.339	218.19
471.558	190.19
471.777	196.19
471.997	207.19
472.216	223.19
472.435	217.19
472.654	209.19
472.873	213.19
473.092	202.19
473.311	222.19
473.53	201.19
473.749	203.19
473.968	203.19
474.187	216.19
474.406	184.19
474.625	199.19
474.844	203.19
475.063	205.19
475.282	213.19
475.501	236.19
475.72	264.19
475.939	248.19
476.158	222.19
476.377	275.19
476.596	291.19
476.814	302.19
477.033	265.19
477.252	218.19
477.471	208.19
477.69	211.19
477.908	209.19
478.127	231.19
478.346	230.19
478.564	295.19
478.783	244.19
479.002	230.19
479.22	261.19
479.439	272.19
479.658	252.19
479.876	226.19
480.095	241.19
480.313	250.19
480.532	224.19
480.751	234.19
480.969	216.19
481.188	255.19
481.406	270.19
481.624	253.19
481.843	218.19
482.061	210.19
482.28	241.19
482.498	296.19
482.717	315.19
482.935	255.19
483.153	233.19
483.372	220.19
483.59	220.19
483.808	207.19
484.027	209.19
484.245	201.19
484.463	199.19
484.681	212.19
484.9	208.19
485.118	245.19
485.336	240.19
485.554	222.19
485.772	231.19
485.99	225.19
486.209	246.19
486.427	261.19
486.645	248.19
486.863	249.19
487.081	260.19
487.299	287.19
487.517	273.19
487.735	243.19
487.953	252.19
488.171	258.19
488.389	228.19
488.607	228.19
488.825	244.19
489.043	257.19
489.261	298.19
489.479	311.19
489.696	259.19
489.914	222.19
490.132	224.19
490.35	228.19
490.568	237.19
490.786	219.19
491.003	234.19
491.221	237.19
491.439	214.19
491.657	209.19
491.874	252.19
492.092	291.19
492.31	374.19
492.527	355.19
492.745	293.19
492.963	255.19
493.18	245.19
493.398	241.19
493.615	264.19
493.833	241.19
494.05	253.19
494.268	238.19
494.485	257.19
494.703	243.19
494.92	243.19
495.138	214.19
495.355	237.19
495.573	228.19
495.79	278.19
496.008	373.19
496.225	302.19
496.442	258.19
496.66	262.19
496.877	261.19
497.094	257.19
497.312	244.19
497.529	273.19
497.746	264.19
497.963	270.19
498.181	276.19
498.398	270.19
498.615	306.19
498.832	310.19
499.049	322.19
499.267	313.19
499.484	319.19
499.701	324.19
499.918	359.19
500.135	386.19
500.352	406.19
500.569	433.19
500.786	438.19
501.003	437.19
501.22	397.19
501.437	356.19
501.654	335.19
501.871	336.19
502.088	314.19
502.305	292.19
502.522	292.19
502.739	308.19
502.956	284.19
503.172	286.19
503.389	273.19
503.606	258.19
503.823	258.19
504.04	266.19
504.256	262.19
504.473	277.19
504.69	261.19
504.907	264.19
505.123	269.19
505.34	292.19
505.557	286.19
505.773	249.19
505.99	254.19
506.207	266.19
506.423	255.19
506.64	249.19
506.856	237.19
507.073	272.19
507.289	278.19
507.506	256.19
507.722	271.19
507.939	275.19
508.155	285.19
508.372	263.19
508.588	260.19
508.805	243.19
509.021	250.19
509.238	228.19
509.454	240.19
509.67	238.19
509.887	253.19
510.103	256.19
510.319	266.19
510.536	244.19
510.752	223.19
510.968	225.19
511.184	222.19
511.401	219.19
511.617	231.19
511.833	221.19
512.049	218.19
512.265	221.19
512.481	228.19
512.698	245.19
512.914	256.19
513.13	268.19
513.346	226.19
513.562	258.19
513.778	229.19
513.994	225.19
514.21	260.19
514.426	257.19
514.642	246.19
514.858	226.19
515.074	246.19
515.29	252.19
515.506	292.19
515.721	267.19
515.937	242.19
516.153	240.19
516.369	230.19
516.585	250.19
516.801	293.19
517.016	318.19
517.232	322.19
517.448	316.19
517.664	277.19
517.879	276.19
518.095	274.19
518.311	269.19
518.527	270.19
518.742	277.19
518.958	274.19
519.173	303.19
519.389	284.19
519.605	301.19
519.82	302.19
520.036	327.19
520.251	316.19
520.467	321.19
520.682	536.19
520.898	654.19
521.113	629.19
521.329	371.19
521.544	304.19
521.76	287.19
521.975	272.19
522.19	260.19
522.406	272.19
522.621	300.19
522.836	324.19
523.052	322.19
523.267	271.19
523.482	290.19
523.698	269.19
523.913	266.19
524.128	254.19
524.343	222.19
524.559	240.19
524.774	225.19
524.989	256.19
525.204	232.19
525.419	252.19
525.634	255.19
525.849	259.19
526.064	257.19
526.28	267.19
526.495	276.19
526.71	342.19
526.925	310.19
527.14	272.19
527.355	303.19
527.57	242.19
527.785	262.19
527.999	254.19
528.214	223.19
528.429	253.19
528.644	236.19
528.859	223.19
529.074	209.19
529.289	221.19
529.503	203.19
529.718	239.19
529.933	296.19
530.148	312.19
530.363	232.19
530.577	226.19
530.792	216.19
531.007	226.19
531.221	207.19
531.436	229.19
531.651	202.19
531.865	213.19
532.08	217.19
532.295	220.19
532.509	220.19
532.724	266.19
532.938	294.19
533.153	364.19
533.367	267.19
533.582	259.19
533.796	233.19
534.011	224.19
534.225	236.19
534.44	217.19
534.654	226.19
534.868	308.19
535.083	280.19
535.297	228.19
535.511	222.19
535.726	245.19
535.94	204.19
536.154	214.19
536.369	215.19
536.583	212.19
536.797	215.19
537.011	229.19
537.225	224.19
537.44	255.19
537.654	219.19
537.868	199.19
538.082	221.19
538.296	214.19
538.51	244.19
538.724	239.19
538.938	233.19
539.153	220.19
539.367	225.19
539.581	224.19
539.795	237.19
540.009	244.19
540.222	228.19
540.436	216.19
540.65	236.19
540.864	265.19
541.078	264.19
541.292	330.19
541.506	251.19
541.72	232.19
541.934	223.19
542.147	228.19
542.361	224.19
542.575	234.19
542.789	212.19
543.002	214.19
543.216	209.19
543.43	210.19
543.644	205.19
543.857	221.19
544.071	201.19
544.285	201.19
544.498	213.19
544.712	204.19
544.925	219.19
545.139	196.19
545.352	188.19
545.566	212.19
545.779	218.19
545.993	212.19
546.206	195.19
546.42	183.19
546.633	214.19
546.847	197.19
547.06	188.19
547.274	192.19
547.487	183.19
547.7	195.19
547.914	202.19
548.127	229.19
548.34	232.19
548.554	194.19
548.767	218.19
548.98	212.19
549.193	212.19
549.407	217.19
549.62	223.19
549.833	217.19
550.046	227.19
550.259	237.19
550.473	216.19
550.686	210.19
550.899	224.19
551.112	214.19
551.325	223.19
551.538	231.19
551.751	210.19
551.964	196.19
552.177	192.19
552.39	194.19
552.603	204.19
552.816	216.19
553.029	201.19
553.242	189.19
553.455	200.19
553.667	218.19
553.88	219.19
554.093	207.19
554.306	206.19
554.519	190.19
554.732	159.19
554.944	188.19
555.157	201.19
555.37	169.19
555.583	165.19
555.795	195.19
556.008	174.19
556.221	176.19
556.433	198.19
556.646	198.19
556.859	202.19
557.071	175.19
557.284	188.19
557.496	200.19
557.709	193.19
557.921	183.19
558.134	158.19
558.346	186.19
558.559	182.19
558.771	190.19
558.984	201.19
559.196	188.19
559.409	179.19
559.621	176.19
559.833	166.19
560.046	167.19
560.258	177.19
560.47	168.19
560.683	187.19
560.895	174.19
561.107	179.19
561.32	165.19
561.532	172.19
561.744	199.19
561.956	196.19
562.168	153.19
562.381	157.19
562.593	158.19
562.805	180.19
563.017	182.19
563.229	175.19
563.441	163.19
563.653	158.19
563.865	165.19
564.077	172.19
564.289	167.19
564.501	176.19
564.713	183.19
564.925	184.19
565.137	172.19
565.349	185.19
565.561	179.19
565.773	180.19
565.985	187.19
566.197	199.19
566.408	202.19
566.62	211.19
566.832	213.19
567.044	193.19
567.255	217.19
567.467	245.19
567.679	212.19
567.891	231.19
568.102	234.19
568.314	229.19
568.526	205.19
568.737	203.19
568.949	195.19
569.161	190.19
569.372	172.19
569.584	169.19
569.795	183.19
570.007	175.19
570.218	202.19
570.43	170.19
570.641	190.19
570.853	174.19
571.064	153.19
571.276	160.19
571.487	180.19
571.698	174.19
571.91	165.19
572.121	172.19
572.333	178.19
572.544	148.19
572.755	166.19
572.966	163.19
573.178	174.19
573.389	168.19
573.6	142.19
573.811	155.19
574.023	150.19
574.234	152.19
574.445	170.19
574.656	156.19
574.867	145.19
575.078	164.19
575.289	160.19
575.501	173.19
575.712	160.19
575.923	153.19
576.134	153.19
576.345	156.19
576.556	165.19
576.767	137.19
576.978	154.19
577.188	142.19
577.399	143.19
577.61	138.19
577.821	137.19
578.032	158.19
578.243	152.19
578.454	162.19
578.665	162.19
578.875	163.19
579.086	152.19
579.297	180.19
579.508	156.19
579.718	162.19
579.929	150.19
580.14	151.19
580.35	136.19
580.561	134.19
580.772	131.19
580.982	142.19
581.193	143.19
581.403	134.19
581.614	132.19
581.825	140.19
582.035	148.19
582.246	128.19
582.456	138.19
582.667	137.19
582.877	143.19
583.087	131.19
583.298	128.19
583.508	137.19
583.719	135.19
583.929	142.19
584.139	128.19
584.35	132.19
584.56	135.19
584.77	125.19
584.981	144.19
585.191	134.19
585.401	137.19
585.611	146.19
585.821	156.19
586.032	146.19
586.242	154.19
586.452	141.19
586.662	141.19
586.872	141.19
587.082	158.19
587.292	147.19
587.502	130.19
587.713	130.19
587.923	142.19
588.133	146.19
588.343	135.19
588.553	140.19
588.762	129.19
588.972	135.19
589.182	139.19
589.392	139.19
589.602	143.19
589.812	144.19
590.022	147.19
590.232	158.19
590.441	141.19
590.651	129.19
590.861	149.19
591.071	136.19
591.281	136.19
591.49	130.19
591.7	132.19
591.91	146.19
592.119	125.19
592.329	133.19
592.539	130.19
592.748	138.19
592.958	148.19
593.167	144.19
593.377	150.19
593.587	149.19
593.796	156.19
594.006	143.19
594.215	147.19
594.424	154.19
594.634	136.19
594.843	134.19
595.053	145.19
595.262	139.19
595.472	146.19
595.681	146.19
595.89	135.19
596.1	127.19
596.309	124.19
596.518	140.19
596.727	132.19
596.937	130.19
597.146	128.19
597.355	136.19
597.564	139.19
597.774	124.19
597.983	112.19
598.192	125.19
598.401	128.19
598.61	128.19
598.819	119.19
599.028	131.19
599.237	131.19
599.446	112.19
599.655	122.19
599.864	120.19
600.073	122.19
600.282	112.19
600.491	128.19
600.7	127.19
600.909	136.19
601.118	118.19
601.327	124.19
601.536	132.19
601.745	128.19
601.953	139.19
602.162	130.19
602.371	145.19
602.58	121.19
602.789	138.19
602.997	122.19
603.206	124.19
603.415	128.19
603.623	121.19
603.832	126.19
604.041	126.19
604.249	124.19
604.458	137.19
604.666	121.19
604.875	124.19
605.084	116.19
605.292	121.19
605.501	124.19
605.709	126.19
605.918	137.19
606.126	118.19
606.334	119.19
606.543	118.19
606.751	126.19
606.96	118.19
607.168	129.19
607.376	115.19
607.585	124.19
607.793	128.19
608.001	116.19
608.21	119.19
608.418	117.19
608.626	124.19
608.834	124.19
609.043	122.19
609.251	116.19
609.459	130.19
609.667	112.19
609.875	120.19
610.083	127.19
610.291	130.19
610.499	129.19
610.707	132.19
610.916	102.19
611.124	96.19
611.332	116.19
611.54	122.19
611.748	120.19
611.955	117.19
612.163	124.19
612.371	114.19
612.579	107.19
612.787	113.19
612.995	102.19
613.203	119.19
613.411	103.19
613.618	112.19
613.826	119.19
614.034	133.19
614.242	133.19
614.449	110.19
614.657	113.19
614.865	126.19
615.072	120.19
615.28	119.19
615.488	109.19
615.695	125.19
615.903	105.19
616.111	129.19
616.318	108.19
616.526	103.19
616.733	121.19
616.941	126.19
617.148	109.19
617.356	117.19
617.563	103.19
617.771	110.19
617.978	111.19
618.185	126.19
618.393	108.19
618.6	121.19
618.807	106.19
619.015	114.19
619.222	113.19
619.429	114.19
619.637	111.19
619.844	120.19
620.051	110.19
620.258	109.19
620.466	116.19
620.673	115.19
620.88	108.19
621.087	114.19
621.294	130.19
621.501	109.19
621.708	112.19
621.915	98.19
622.122	105.19
622.329	112.19
622.536	109.19
622.743	109.19
622.95	119.19
623.157	104.19
623.364	106.19
623.571	109.19
623.778	112.19
623.985	119.19
624.192	135.19
624.399	131.19
624.606	108.19
624.812	110.19
625.019	113.19
625.226	116.19
625.433	114.19
625.639	101.19
625.846	110.19
626.053	105.19
626.259	113.19
626.466	120.19
626.673	114.19
626.879	113.19
627.086	109.19
627.293	114.19
627.499	100.19
627.706	105.19
627.912	107.19
628.119	112.19
628.325	127.19
628.532	103.19
628.738	107.19
628.945	99.19
629.151	106.19
629.357	121.19
629.564	108.19
629.77	108.19
629.976	114.19
630.183	113.19
630.389	114.19
630.595	103.19
630.802	108.19
631.008	116.19
631.214	97.19
631.42	105.19
631.627	107.19
631.833	96.19
632.039	106.19
632.245	90.19
632.451	112.19
632.657	89.19
632.863	90.19
633.069	99.19
633.275	97.19
633.481	109.19
633.688	93.19
633.893	115.19
634.099	106.19
634.305	108.19
634.511	90.19
634.717	90.19
634.923	104.19
635.129	93.19
635.335	112.19
635.541	108.19
635.747	92.19
635.952	94.19
636.158	95.19
636.364	88.19
636.57	106.19
636.775	100.19
636.981	108.19
637.187	108.19
637.392	110.19
637.598	109.19
637.804	94.19
638.009	91.19
638.215	101.19
638.421	103.19
638.626	84.19
638.832	100.19
639.037	101.19
639.243	97.19
639.448	89.19
639.654	114.19
639.859	93.19
640.065	108.19
640.27	103.19
640.475	105.19
640.681	100.19
640.886	87.19
641.091	92.19
641.297	97.19
641.502	92.19
641.707	104.19
641.913	72.19
642.118	97.19
642.323	101.19
642.528	104.19
642.733	99.19
642.939	106.19
643.144	104.19
643.349	109.19
643.554	108.19
643.759	101.19
643.964	103.19
644.169	97.19
644.374	103.19
644.579	106.19
644.784	103.19
644.989	90.19
645.194	92.19
645.399	93.19
645.604	85.19
645.809	82.19
646.014	96.19
646.219	105.19
646.423	94.19
646.628	100.19
646.833	101.19
647.038	96.19
647.243	85.19
647.447	92.19
647.652	83.19
647.857	104.19
648.062	106.19
648.266	101.19
648.471	102.19
648.676	98.19
648.88	90.19
649.085	95.19
649.289	90.19
649.494	108.19
649.698	95.19
649.903	105.19
650.107	89.19
650.312	82.19
650.516	112.19
650.721	100.19
650.925	99.19
651.13	90.19
651.334	97.19
651.539	91.19
651.743	96.19
651.947	86.19
652.152	94.19
652.356	98.19
652.56	88.19
652.764	90.19
652.969	92.19
653.173	78.19
653.377	85.19
653.581	85.19
653.785	83.19
653.99	95.19
654.194	93.19
654.398	101.19
654.602	91.19
654.806	92.19
655.01	85.19
655.214	97.19
655.418	78.19
655.622	76.19
655.826	90.19
656.03	90.19
656.234	86.19
656.438	88.19
656.642	96.19
656.846	96.19
657.049	95.19
657.253	88.19
657.457	83.19
657.661	92.19
657.865	72.19
658.068	87.19
658.272	71.19
658.476	86.19
658.68	73.19
658.883	95.19
659.087	78.19
659.291	87.19
659.494	107.19
659.698	84.19
659.901	73.19
660.105	70.19
660.309	78.19
660.512	77.19
660.716	88.19
660.919	69.19
661.123	88.19
661.326	87.19
661.53	70.19
661.733	78.19
661.936	85.19
662.14	85.19
662.343	87.19
662.546	73.19
662.75	78.19
662.953	85.19
663.156	71.19
663.36	73.19
663.563	63.19
663.766	78.19
663.969	82.19
664.173	80.19
664.376	77.19
664.579	73.19
664.782	77.19
664.985	92.19
665.188	79.19
665.391	83.19
665.594	77.19
665.797	75.19
666	81.19
666.203	73.19
666.406	75.19
666.609	82.19
666.812	72.19
667.015	70.19
667.218	96.19
667.421	95.19
667.624	73.19
667.827	90.19
668.03	71.19
668.232	93.19
668.435	82.19
668.638	85.19
668.841	89.19
669.043	75.19
669.246	78.19
669.449	73.19
669.651	86.19
669.854	79.19
670.057	76.19
670.259	77.19
670.462	79.19
670.665	66.19
670.867	84.19
671.07	81.19
671.272	83.19
671.475	73.19
671.677	87.19
671.88	92.19
672.082	85.19
672.284	61.19
672.487	95.19
672.689	76.19
672.892	87.19
