Data from NickelSpatula_HRD10591_16-35-36-126.txt Node
Date: Mon Jul 22 16:35:36 EDT 2019
User: cochatt
Spectrometer: HR+D1059
Trigger mode: 1
Integration Time (sec): 1.000000E-1
Scans to average: 1
Electric dark correction enabled: true
Nonlinearity correction enabled: false
Boxcar width: 0
XAxis mode: Wavelengths
Number of Pixels in Spectrum: 2048
>>>>>Begin Spectral Data<<<<<
223.165	-17
223.4	-17
223.635	-17
223.869	-12
224.104	-17
224.338	-15
224.573	-2
224.808	-9
225.042	-11
225.277	-2
225.511	-25
225.746	11
225.98	2
226.215	1
226.449	19
226.683	16
226.918	37
227.152	24
227.387	32
227.621	39
227.856	56
228.09	43
228.324	51
228.559	52
228.793	64
229.027	66
229.262	81
229.496	86
229.73	79
229.964	83
230.199	92
230.433	85
230.667	86
230.901	98
231.136	91
231.37	104
231.604	87
231.838	91
232.072	106
232.306	88
232.541	93
232.775	102
233.009	104
233.243	85
233.477	108
233.711	115
233.945	102
234.179	89
234.413	96
234.647	118
234.881	112
235.115	124
235.349	111
235.583	128
235.817	110
236.051	134
236.285	131
236.519	125
236.753	109
236.987	102
237.221	120
237.455	119
237.689	124
237.922	125
238.156	117
238.39	137
238.624	142
238.858	140
239.091	113
239.325	143
239.559	139
239.793	137
240.027	154
240.26	141
240.494	133
240.728	131
240.961	153
241.195	157
241.429	131
241.662	145
241.896	127
242.13	121
242.363	133
242.597	130
242.83	137
243.064	133
243.298	137
243.531	163
243.765	152
243.998	155
244.232	136
244.465	147
244.699	149
244.932	150
245.166	142
245.399	147
245.633	136
245.866	137
246.099	136
246.333	162
246.566	161
246.8	167
247.033	160
247.266	139
247.5	154
247.733	157
247.966	152
248.2	141
248.433	157
248.666	165
248.899	180
249.133	167
249.366	169
249.599	205
249.832	201
250.066	178
250.299	170
250.532	161
250.765	170
250.998	149
251.231	160
251.465	158
251.698	166
251.931	175
252.164	189
252.397	192
252.63	199
252.863	221
253.096	234
253.329	214
253.562	216
253.795	213
254.028	250
254.261	254
254.494	243
254.727	207
254.96	216
255.193	234
255.426	219
255.659	185
255.892	193
256.124	196
256.357	193
256.59	226
256.823	212
257.056	182
257.289	189
257.521	197
257.754	223
257.987	235
258.22	204
258.452	193
258.685	202
258.918	245
259.151	222
259.383	261
259.616	278
259.849	256
260.081	299
260.314	314
260.547	263
260.779	273
261.012	306
261.244	280
261.477	285
261.71	267
261.942	229
262.175	258
262.407	224
262.64	247
262.872	267
263.105	281
263.337	289
263.57	281
263.802	194
264.035	180
264.267	195
264.499	183
264.732	159
264.964	158
265.197	160
265.429	168
265.661	173
265.894	167
266.126	193
266.358	200
266.591	242
266.823	288
267.055	268
267.287	229
267.52	228
267.752	249
267.984	279
268.216	271
268.448	238
268.681	230
268.913	245
269.145	238
269.377	236
269.609	243
269.841	240
270.073	243
270.306	267
270.538	289
270.77	262
271.002	273
271.234	297
271.466	283
271.698	256
271.93	242
272.162	246
272.394	247
272.626	253
272.858	261
273.09	256
273.322	230
273.553	222
273.785	241
274.017	308
274.249	356
274.481	374
274.713	417
274.945	448
275.176	469
275.408	454
275.64	415
275.872	413
276.104	369
276.335	322
276.567	299
276.799	329
277.031	345
277.262	270
277.494	233
277.726	215
277.957	235
278.189	261
278.421	255
278.652	263
278.884	229
279.115	215
279.347	215
279.579	234
279.81	237
280.042	214
280.273	238
280.505	213
280.736	211
280.968	193
281.199	206
281.431	245
281.662	222
281.894	230
282.125	243
282.356	261
282.588	240
282.819	242
283.051	259
283.282	286
283.513	320
283.745	348
283.976	337
284.207	321
284.439	329
284.67	329
284.901	286
285.132	318
285.364	322
285.595	316
285.826	338
286.057	323
286.288	321
286.52	331
286.751	346
286.982	328
287.213	311
287.444	308
287.675	315
287.906	303
288.138	276
288.369	260
288.6	237
288.831	255
289.062	287
289.293	312
289.524	297
289.755	277
289.986	285
290.217	283
290.448	229
290.679	174
290.91	167
291.141	177
291.371	173
291.602	168
291.833	193
292.064	185
292.295	202
292.526	247
292.757	257
292.987	275
293.218	261
293.449	291
293.68	296
293.91	294
294.141	310
294.372	282
294.603	264
294.833	281
295.064	323
295.295	331
295.525	231
295.756	211
295.987	170
296.217	169
296.448	163
296.679	200
296.909	210
297.14	198
297.37	234
297.601	215
297.831	180
298.062	228
298.292	254
298.523	262
298.753	272
298.984	268
299.214	238
299.445	195
299.675	183
299.905	184
300.136	184
300.366	191
300.597	202
300.827	173
301.057	185
301.288	170
301.518	178
301.748	213
301.979	214
302.209	229
302.439	214
302.669	207
302.9	197
303.13	194
303.36	213
303.59	191
303.82	207
304.051	217
304.281	219
304.511	244
304.741	210
304.971	197
305.201	223
305.431	224
305.661	198
305.891	183
306.121	191
306.352	158
306.582	166
306.812	150
307.042	166
307.272	157
307.502	151
307.731	151
307.961	161
308.191	159
308.421	153
308.651	153
308.881	159
309.111	151
309.341	153
309.571	169
309.8	181
310.03	173
310.26	183
310.49	176
310.72	163
310.949	155
311.179	161
311.409	156
311.639	198
311.868	241
312.098	271
312.328	311
312.557	296
312.787	307
313.017	270
313.246	293
313.476	327
313.706	275
313.935	209
314.165	202
314.394	181
314.624	166
314.853	170
315.083	184
315.312	180
315.542	165
315.771	165
316.001	160
316.23	151
316.46	155
316.689	145
316.919	152
317.148	165
317.377	169
317.607	154
317.836	180
318.065	197
318.295	194
318.524	202
318.753	173
318.983	165
319.212	168
319.441	184
319.67	197
319.9	191
320.129	198
320.358	165
320.587	158
320.816	191
321.046	189
321.275	234
321.504	222
321.733	208
321.962	201
322.191	188
322.42	186
322.649	191
322.878	187
323.108	203
323.337	170
323.566	185
323.795	176
324.024	176
324.253	158
324.482	179
324.71	182
324.939	201
325.168	191
325.397	174
325.626	177
325.855	155
326.084	167
326.313	158
326.542	159
326.77	151
326.999	162
327.228	158
327.457	170
327.686	151
327.914	170
328.143	156
328.372	152
328.6	147
328.829	160
329.058	159
329.287	153
329.515	159
329.744	169
329.972	156
330.201	145
330.43	156
330.658	179
330.887	171
331.115	174
331.344	172
331.572	168
331.801	179
332.03	160
332.258	173
332.486	167
332.715	169
332.943	158
333.172	160
333.4	154
333.629	195
333.857	204
334.085	195
334.314	187
334.542	181
334.771	153
334.999	168
335.227	162
335.455	159
335.684	186
335.912	197
336.14	206
336.369	212
336.597	199
336.825	221
337.053	232
337.281	209
337.51	163
337.738	199
337.966	191
338.194	206
338.422	170
338.65	167
338.878	154
339.106	146
339.334	179
339.562	181
339.79	168
340.018	185
340.246	165
340.474	189
340.702	220
340.93	185
341.158	199
341.386	173
341.614	181
341.842	160
342.07	183
342.298	213
342.526	195
342.754	191
342.981	187
343.209	176
343.437	197
343.665	197
343.893	192
344.12	222
344.348	264
344.576	255
344.804	183
345.031	189
345.259	166
345.487	168
345.714	166
345.942	181
346.17	210
346.397	218
346.625	181
346.853	157
347.08	172
347.308	174
347.535	197
347.763	192
347.99	173
348.218	188
348.445	173
348.673	181
348.9	177
349.128	168
349.355	167
349.583	177
349.81	173
350.037	158
350.265	153
350.492	138
350.72	164
350.947	143
351.174	153
351.402	166
351.629	168
351.856	165
352.083	160
352.311	158
352.538	165
352.765	180
352.992	169
353.22	181
353.447	184
353.674	158
353.901	160
354.128	166
354.355	171
354.583	179
354.81	173
355.037	210
355.264	184
355.491	164
355.718	181
355.945	183
356.172	185
356.399	198
356.626	219
356.853	227
357.08	243
357.307	260
357.534	219
357.761	214
357.988	253
358.215	265
358.441	250
358.668	236
358.895	209
359.122	195
359.349	186
359.576	216
359.802	185
360.029	167
360.256	165
360.483	207
360.709	239
360.936	224
361.163	217
361.39	182
361.616	165
361.843	183
362.07	207
362.296	197
362.523	175
362.749	178
362.976	170
363.203	173
363.429	193
363.656	176
363.882	158
364.109	175
364.335	190
364.562	168
364.788	173
365.015	198
365.241	182
365.468	163
365.694	148
365.92	153
366.147	138
366.373	137
366.599	152
366.826	134
367.052	141
367.278	156
367.505	159
367.731	164
367.957	186
368.184	179
368.41	172
368.636	175
368.862	183
369.089	152
369.315	154
369.541	161
369.767	170
369.993	157
370.219	161
370.445	157
370.672	163
370.898	193
371.124	187
371.35	161
371.576	157
371.802	166
372.028	175
372.254	182
372.48	177
372.706	167
372.932	178
373.158	190
373.384	200
373.61	239
373.835	246
374.061	196
374.287	201
374.513	213
374.739	219
374.965	235
375.191	231
375.416	190
375.642	168
375.868	184
376.094	185
376.319	187
376.545	198
376.771	210
376.997	201
377.222	145
377.448	149
377.674	147
377.899	150
378.125	128
378.35	152
378.576	145
378.802	149
379.027	162
379.253	154
379.478	170
379.704	186
379.929	185
380.155	182
380.38	178
380.606	178
380.831	185
381.057	181
381.282	180
381.507	201
381.733	224
381.958	223
382.184	234
382.409	241
382.634	246
382.86	233
383.085	211
383.31	189
383.535	206
383.761	198
383.986	199
384.211	226
384.436	203
384.662	185
384.887	180
385.112	174
385.337	186
385.562	166
385.787	170
386.013	213
386.238	195
386.463	186
386.688	173
386.913	159
387.138	163
387.363	182
387.588	173
387.813	179
388.038	190
388.263	165
388.488	175
388.713	190
388.938	189
389.163	178
389.387	160
389.612	175
389.837	167
390.062	183
390.287	169
390.512	170
390.736	170
390.961	159
391.186	169
391.411	163
391.636	142
391.86	168
392.085	191
392.31	185
392.534	171
392.759	167
392.984	168
393.208	166
393.433	170
393.658	165
393.882	157
394.107	146
394.331	146
394.556	162
394.78	156
395.005	154
395.229	154
395.454	155
395.678	161
395.903	168
396.127	163
396.352	146
396.576	166
396.801	163
397.025	196
397.249	191
397.474	173
397.698	156
397.922	172
398.147	167
398.371	179
398.595	189
398.82	175
399.044	161
399.268	189
399.492	179
399.717	190
399.941	201
400.165	193
400.389	185
400.613	192
400.837	181
401.062	163
401.286	181
401.51	164
401.734	162
401.958	177
402.182	168
402.406	169
402.63	169
402.854	170
403.078	191
403.302	224
403.526	255
403.75	218
403.974	202
404.198	208
404.422	221
404.645	232
404.869	233
405.093	203
405.317	190
405.541	189
405.765	205
405.988	172
406.212	179
406.436	208
406.66	229
406.883	200
407.107	181
407.331	230
407.555	227
407.778	202
408.002	197
408.226	192
408.449	206
408.673	181
408.896	175
409.12	177
409.344	161
409.567	159
409.791	172
410.014	163
410.238	185
410.461	159
410.685	194
410.908	183
411.132	182
411.355	194
411.578	178
411.802	167
412.025	170
412.249	173
412.472	164
412.695	169
412.919	179
413.142	175
413.365	185
413.589	173
413.812	169
414.035	167
414.258	167
414.482	188
414.705	199
414.928	183
415.151	185
415.374	165
415.597	173
415.821	168
416.044	184
416.267	158
416.49	169
416.713	148
416.936	174
417.159	157
417.382	182
417.605	164
417.828	175
418.051	168
418.274	185
418.497	182
418.72	173
418.943	178
419.166	184
419.389	179
419.611	185
419.834	169
420.057	204
420.28	183
420.503	189
420.726	186
420.948	179
421.171	178
421.394	166
421.617	158
421.839	171
422.062	180
422.285	164
422.507	178
422.73	151
422.953	192
423.175	173
423.398	175
423.621	178
423.843	195
424.066	176
424.288	171
424.511	187
424.733	162
424.956	187
425.178	190
425.401	202
425.623	232
425.846	210
426.068	195
426.291	211
426.513	189
426.735	173
426.958	185
427.18	199
427.402	236
427.625	239
427.847	210
428.069	163
428.292	173
428.514	161
428.736	166
428.958	175
429.181	206
429.403	182
429.625	174
429.847	179
430.069	174
430.292	168
430.514	165
430.736	156
430.958	187
431.18	173
431.402	173
431.624	154
431.846	165
432.068	169
432.29	150
432.512	160
432.734	212
432.956	198
433.178	166
433.4	162
433.622	169
433.844	166
434.066	187
434.287	169
434.509	186
434.731	196
434.953	180
435.175	192
435.397	201
435.618	163
435.84	154
436.062	165
436.284	158
436.505	157
436.727	182
436.949	163
437.17	159
437.392	159
437.614	164
437.835	153
438.057	163
438.278	168
438.5	218
438.721	225
438.943	183
439.165	165
439.386	158
439.608	139
439.829	161
440.05	153
440.272	143
440.493	183
440.715	203
440.936	182
441.158	174
441.379	164
441.6	181
441.822	184
442.043	167
442.264	170
442.486	162
442.707	165
442.928	172
443.149	175
443.371	173
443.592	177
443.813	174
444.034	191
444.255	178
444.476	168
444.698	182
444.919	170
445.14	294
445.361	245
445.582	199
445.803	182
446.024	196
446.245	190
446.466	175
446.687	191
446.908	163
447.129	146
447.35	158
447.571	162
447.792	154
448.013	155
448.234	154
448.455	163
448.675	149
448.896	157
449.117	159
449.338	149
449.559	154
449.779	178
450	159
450.221	160
450.442	162
450.662	155
450.883	154
451.104	147
451.324	149
451.545	169
451.766	166
451.986	159
452.207	174
452.428	166
452.648	167
452.869	161
453.089	149
453.31	162
453.53	138
453.751	164
453.971	167
454.192	150
454.412	183
454.633	171
454.853	159
455.073	149
455.294	151
455.514	144
455.734	153
455.955	159
456.175	152
456.395	145
456.616	150
456.836	139
457.056	141
457.276	139
457.497	155
457.717	138
457.937	164
458.157	151
458.377	141
458.598	155
458.818	149
459.038	161
459.258	183
459.478	173
459.698	169
459.918	181
460.138	179
460.358	161
460.578	165
460.798	180
461.018	161
461.238	159
461.458	172
461.678	170
461.898	168
462.118	182
462.338	170
462.558	177
462.777	190
462.997	200
463.217	199
463.437	206
463.657	181
463.876	167
464.096	179
464.316	188
464.536	177
464.755	203
464.975	203
465.195	189
465.414	177
465.634	201
465.854	179
466.073	170
466.293	181
466.512	177
466.732	195
466.951	181
467.171	178
467.391	163
467.61	162
467.829	173
468.049	183
468.268	171
468.488	155
468.707	165
468.927	179
469.146	199
469.365	207
469.585	167
469.804	207
470.023	191
470.243	182
470.462	170
470.681	189
470.901	166
471.12	185
471.339	177
471.558	178
471.777	181
471.997	196
472.216	226
472.435	201
472.654	183
472.873	177
473.092	178
473.311	203
473.53	184
473.749	181
473.968	177
474.187	185
474.406	156
474.625	197
474.844	178
475.063	176
475.282	201
475.501	224
475.72	211
475.939	209
476.158	207
476.377	249
476.596	251
476.814	255
477.033	227
477.252	199
477.471	187
477.69	180
477.908	206
478.127	205
478.346	195
478.564	231
478.783	209
479.002	196
479.22	217
479.439	241
479.658	206
479.876	192
480.095	213
480.313	213
480.532	204
480.751	198
480.969	197
481.188	221
481.406	207
481.624	223
481.843	207
482.061	199
482.28	215
482.498	258
482.717	287
482.935	218
483.153	201
483.372	183
483.59	190
483.808	190
484.027	190
484.245	185
484.463	186
484.681	169
484.9	181
485.118	205
485.336	198
485.554	185
485.772	190
485.99	198
486.209	211
486.427	232
486.645	213
486.863	221
487.081	213
487.299	231
487.517	235
487.735	199
487.953	204
488.171	213
488.389	210
488.607	196
488.825	191
489.043	216
489.261	232
489.479	252
489.696	215
489.914	213
490.132	189
490.35	192
490.568	195
490.786	198
491.003	200
491.221	202
491.439	181
491.657	187
491.874	198
492.092	252
492.31	293
492.527	284
492.745	254
492.963	227
493.18	215
493.398	213
493.615	216
493.833	212
494.05	211
494.268	206
494.485	209
494.703	207
494.92	206
495.138	222
495.355	216
495.573	215
495.79	231
496.008	295
496.225	260
496.442	232
496.66	216
496.877	234
497.094	227
497.312	214
497.529	218
497.746	231
497.963	232
498.181	238
498.398	257
498.615	275
498.832	279
499.049	287
499.267	237
499.484	261
499.701	277
499.918	319
500.135	327
500.352	319
500.569	338
500.786	350
501.003	342
501.22	317
501.437	288
501.654	276
501.871	271
502.088	271
502.305	252
502.522	259
502.739	255
502.956	220
503.172	231
503.389	222
503.606	220
503.823	237
504.04	226
504.256	229
504.473	232
504.69	245
504.907	237
505.123	238
505.34	235
505.557	240
505.773	237
505.99	210
506.207	225
506.423	209
506.64	210
506.856	210
507.073	229
507.289	222
507.506	239
507.722	242
507.939	230
508.155	250
508.372	205
508.588	215
508.805	216
509.021	227
509.238	217
509.454	221
509.67	195
509.887	205
510.103	226
510.319	221
510.536	229
510.752	198
510.968	187
511.184	186
511.401	177
511.617	187
511.833	186
512.049	190
512.265	187
512.481	189
512.698	223
512.914	241
513.13	214
513.346	198
513.562	205
513.778	199
513.994	200
514.21	214
514.426	211
514.642	210
514.858	209
515.074	214
515.29	222
515.506	245
515.721	239
515.937	217
516.153	210
516.369	206
516.585	223
516.801	243
517.016	268
517.232	266
517.448	264
517.664	228
517.879	217
518.095	237
518.311	242
518.527	228
518.742	240
518.958	263
519.173	243
519.389	239
519.605	230
519.82	273
520.036	271
520.251	265
520.467	283
520.682	399
520.898	507
521.113	472
521.329	331
521.544	253
521.76	262
521.975	254
522.19	229
522.406	231
522.621	239
522.836	244
523.052	270
523.267	226
523.482	223
523.698	246
523.913	242
524.128	222
524.343	209
524.559	210
524.774	209
524.989	207
525.204	222
525.419	238
525.634	205
525.849	221
526.064	233
526.28	227
526.495	218
526.71	281
526.925	248
527.14	259
527.355	233
527.57	233
527.785	234
527.999	212
528.214	190
528.429	190
528.644	202
528.859	182
529.074	176
529.289	194
529.503	185
529.718	208
529.933	235
530.148	255
530.363	216
530.577	195
530.792	186
531.007	211
531.221	185
531.436	186
531.651	187
531.865	193
532.08	203
532.295	192
532.509	201
532.724	230
532.938	238
533.153	282
533.367	232
533.582	218
533.796	200
534.011	199
534.225	199
534.44	218
534.654	216
534.868	257
535.083	227
535.297	199
535.511	204
535.726	195
535.94	197
536.154	196
536.369	193
536.583	179
536.797	194
537.011	198
537.225	198
537.44	215
537.654	212
537.868	208
538.082	203
538.296	194
538.51	200
538.724	210
538.938	190
539.153	179
539.367	188
539.581	198
539.795	208
540.009	221
540.222	200
540.436	197
540.65	219
540.864	234
541.078	210
541.292	250
541.506	207
541.72	205
541.934	206
542.147	208
542.361	203
542.575	195
542.789	191
543.002	173
543.216	201
543.43	187
543.644	195
543.857	178
544.071	186
544.285	190
544.498	181
544.712	184
544.925	180
545.139	177
545.352	185
545.566	182
545.779	207
545.993	180
546.206	166
546.42	167
546.633	168
546.847	168
547.06	169
547.274	166
547.487	183
547.7	177
547.914	186
548.127	198
548.34	207
548.554	181
548.767	197
548.98	184
549.193	203
549.407	178
549.62	210
549.833	197
550.046	181
550.259	213
550.473	189
550.686	197
550.899	189
551.112	202
551.325	194
551.538	189
551.751	197
551.964	167
552.177	176
552.39	181
552.603	171
552.816	186
553.029	177
553.242	184
553.455	171
553.667	190
553.88	194
554.093	195
554.306	175
554.519	166
554.732	161
554.944	144
555.157	154
555.37	162
555.583	162
555.795	149
556.008	163
556.221	167
556.433	169
556.646	153
556.859	169
557.071	170
557.284	170
557.496	176
557.709	157
557.921	157
558.134	170
558.346	153
558.559	162
558.771	158
558.984	160
559.196	147
559.409	166
559.621	141
559.833	147
560.046	170
560.258	152
560.47	168
560.683	163
560.895	154
561.107	159
561.32	139
561.532	150
561.744	153
561.956	173
562.168	153
562.381	155
562.593	157
562.805	151
563.017	158
563.229	145
563.441	157
563.653	138
563.865	159
564.077	165
564.289	150
564.501	161
564.713	165
564.925	160
565.137	157
565.349	167
565.561	138
565.773	165
565.985	164
566.197	170
566.408	183
566.62	174
566.832	178
567.044	172
567.255	182
567.467	194
567.679	189
567.891	178
568.102	186
568.314	184
568.526	208
568.737	175
568.949	200
569.161	164
569.372	157
569.584	175
569.795	159
570.007	161
570.218	169
570.43	152
570.641	147
570.853	138
571.064	152
571.276	146
571.487	154
571.698	153
571.91	146
572.121	154
572.333	158
572.544	151
572.755	149
572.966	155
573.178	153
573.389	140
573.6	133
573.811	142
574.023	147
574.234	139
574.445	137
574.656	128
574.867	141
575.078	125
575.289	145
575.501	160
575.712	136
575.923	121
576.134	135
576.345	129
576.556	121
576.767	138
576.978	135
577.188	124
577.399	133
577.61	147
577.821	142
578.032	134
578.243	135
578.454	125
578.665	129
578.875	148
579.086	145
579.297	151
579.508	142
579.718	139
579.929	139
580.14	132
580.35	143
580.561	141
580.772	135
580.982	119
581.193	131
581.403	121
581.614	125
581.825	133
582.035	111
582.246	110
582.456	127
582.667	134
582.877	118
583.087	123
583.298	129
583.508	104
583.719	120
583.929	127
584.139	125
584.35	117
584.56	129
584.77	124
584.981	133
585.191	117
585.401	140
585.611	122
585.821	126
586.032	131
586.242	132
586.452	128
586.662	127
586.872	139
587.082	135
587.292	139
587.502	135
587.713	122
587.923	134
588.133	145
588.343	122
588.553	123
588.762	133
588.972	135
589.182	128
589.392	132
589.602	112
589.812	131
590.022	136
590.232	131
590.441	110
590.651	127
590.861	122
591.071	127
591.281	132
591.49	134
591.7	123
591.91	123
592.119	127
592.329	109
592.539	134
592.748	129
592.958	136
593.167	137
593.377	135
593.587	130
593.796	129
594.006	142
594.215	140
594.424	132
594.634	126
594.843	127
595.053	144
595.262	116
595.472	128
595.681	118
595.89	122
596.1	114
596.309	125
596.518	131
596.727	119
596.937	121
597.146	109
597.355	122
597.564	122
597.774	123
597.983	110
598.192	127
598.401	128
598.61	114
598.819	110
599.028	100
599.237	113
599.446	117
599.655	126
599.864	112
600.073	128
600.282	102
600.491	122
600.7	95
600.909	110
601.118	121
601.327	130
601.536	117
601.745	119
601.953	123
602.162	122
602.371	128
602.58	130
602.789	111
602.997	117
603.206	118
603.415	111
603.623	114
603.832	117
604.041	125
604.249	112
604.458	124
604.666	105
604.875	109
605.084	121
605.292	109
605.501	128
605.709	114
605.918	114
606.126	116
606.334	112
606.543	109
606.751	114
606.96	103
607.168	119
607.376	110
607.585	103
607.793	102
608.001	99
608.21	115
608.418	121
608.626	120
608.834	102
609.043	99
609.251	114
609.459	111
609.667	112
609.875	90
610.083	101
610.291	119
610.499	119
610.707	128
610.916	104
611.124	114
611.332	111
611.54	107
611.748	111
611.955	114
612.163	107
612.371	123
612.579	107
612.787	114
612.995	98
613.203	119
613.411	113
613.618	118
613.826	121
614.034	116
614.242	114
614.449	118
614.657	107
614.865	107
615.072	118
615.28	101
615.488	104
615.695	122
615.903	104
616.111	109
616.318	101
616.526	112
616.733	106
616.941	118
617.148	106
617.356	97
617.563	102
617.771	104
617.978	114
618.185	103
618.393	113
618.6	103
618.807	104
619.015	104
619.222	110
619.429	88
619.637	103
619.844	105
620.051	112
620.258	102
620.466	109
620.673	110
620.88	105
621.087	113
621.294	106
621.501	113
621.708	117
621.915	117
622.122	107
622.329	103
622.536	117
622.743	101
622.95	93
623.157	107
623.364	116
623.571	106
623.778	96
623.985	104
624.192	98
624.399	100
624.606	114
624.812	104
625.019	102
625.226	116
625.433	118
625.639	111
625.846	117
626.053	105
626.259	104
626.466	113
626.673	100
626.879	106
627.086	99
627.293	103
627.499	95
627.706	111
627.912	117
628.119	96
628.325	104
628.532	101
628.738	102
628.945	105
629.151	113
629.357	113
629.564	116
629.77	117
629.976	96
630.183	101
630.389	82
630.595	104
630.802	104
631.008	107
631.214	97
631.42	114
631.627	121
631.833	96
632.039	101
632.245	106
632.451	100
632.657	98
632.863	104
633.069	94
633.275	100
633.481	95
633.688	97
633.893	96
634.099	101
634.305	109
634.511	86
634.717	111
634.923	89
635.129	94
635.335	109
635.541	106
635.747	99
635.952	111
636.158	93
636.364	93
636.57	104
636.775	106
636.981	85
637.187	114
637.392	79
637.598	102
637.804	98
638.009	93
638.215	113
638.421	84
638.626	97
638.832	105
639.037	101
639.243	80
639.448	86
639.654	105
639.859	84
640.065	100
640.27	107
640.475	106
640.681	89
640.886	85
641.091	102
641.297	82
641.502	103
641.707	101
641.913	90
642.118	84
642.323	95
642.528	101
642.733	95
642.939	98
643.144	103
643.349	82
643.554	101
643.759	105
643.964	99
644.169	89
644.374	87
644.579	87
644.784	104
644.989	95
645.194	82
645.399	89
645.604	93
645.809	97
646.014	99
646.219	104
646.423	103
646.628	94
646.833	97
647.038	100
647.243	98
647.447	99
647.652	93
647.857	102
648.062	94
648.266	115
648.471	88
648.676	97
648.88	89
649.085	111
649.289	83
649.494	91
649.698	100
649.903	98
650.107	88
650.312	95
650.516	93
650.721	91
650.925	94
651.13	87
651.334	94
651.539	82
651.743	86
651.947	94
652.152	99
652.356	101
652.56	85
652.764	88
652.969	81
653.173	97
653.377	101
653.581	79
653.785	91
653.99	96
654.194	98
654.398	88
654.602	78
654.806	89
655.01	88
655.214	88
655.418	85
655.622	91
655.826	85
656.03	97
656.234	82
656.438	105
656.642	95
656.846	102
657.049	94
657.253	88
657.457	85
657.661	91
657.865	84
658.068	89
658.272	86
658.476	83
658.68	83
658.883	94
659.087	98
659.291	88
659.494	71
659.698	74
659.901	83
660.105	81
660.309	86
660.512	89
660.716	87
660.919	73
661.123	87
661.326	85
661.53	91
661.733	85
661.936	82
662.14	77
662.343	81
662.546	66
662.75	65
662.953	75
663.156	49
663.36	80
663.563	75
663.766	84
663.969	85
664.173	78
664.376	79
664.579	64
664.782	75
664.985	81
665.188	74
665.391	90
665.594	80
665.797	71
666	91
666.203	76
666.406	81
666.609	74
666.812	75
667.015	75
667.218	70
667.421	88
667.624	74
667.827	83
668.03	85
668.232	78
668.435	69
668.638	73
668.841	80
669.043	63
669.246	85
669.449	76
669.651	80
669.854	80
670.057	80
670.259	84
670.462	86
670.665	87
670.867	79
671.07	102
671.272	81
671.475	83
671.677	86
671.88	83
672.082	82
672.284	83
672.487	90
672.689	89
672.892	86
