Data from NickelSpatula_HRD10591_16-35-57-126.txt Node
Date: Mon Jul 22 16:35:57 EDT 2019
User: cochatt
Spectrometer: HR+D1059
Trigger mode: 1
Integration Time (sec): 1.000000E-1
Scans to average: 1
Electric dark correction enabled: true
Nonlinearity correction enabled: false
Boxcar width: 0
XAxis mode: Wavelengths
Number of Pixels in Spectrum: 2048
>>>>>Begin Spectral Data<<<<<
223.165	-19.81
223.4	-19.81
223.635	-19.81
223.869	-0.81
224.104	-2.81
224.338	-11.81
224.573	-6.81
224.808	-9.81
225.042	-5.81
225.277	-10.81
225.511	-20.81
225.746	1.19
225.98	7.19
226.215	17.19
226.449	12.19
226.683	10.19
226.918	21.19
227.152	20.19
227.387	23.19
227.621	43.19
227.856	50.19
228.09	49.19
228.324	41.19
228.559	55.19
228.793	68.19
229.027	61.19
229.262	69.19
229.496	78.19
229.73	77.19
229.964	85.19
230.199	90.19
230.433	81.19
230.667	79.19
230.901	90.19
231.136	81.19
231.37	95.19
231.604	99.19
231.838	87.19
232.072	93.19
232.306	99.19
232.541	101.19
232.775	98.19
233.009	105.19
233.243	108.19
233.477	106.19
233.711	108.19
233.945	110.19
234.179	105.19
234.413	101.19
234.647	107.19
234.881	98.19
235.115	116.19
235.349	104.19
235.583	102.19
235.817	95.19
236.051	115.19
236.285	117.19
236.519	113.19
236.753	105.19
236.987	117.19
237.221	103.19
237.455	108.19
237.689	116.19
237.922	123.19
238.156	130.19
238.39	124.19
238.624	138.19
238.858	121.19
239.091	121.19
239.325	121.19
239.559	120.19
239.793	115.19
240.027	132.19
240.26	130.19
240.494	132.19
240.728	116.19
240.961	149.19
241.195	146.19
241.429	133.19
241.662	138.19
241.896	116.19
242.13	112.19
242.363	119.19
242.597	96.19
242.83	127.19
243.064	113.19
243.298	128.19
243.531	134.19
243.765	140.19
243.998	134.19
244.232	131.19
244.465	123.19
244.699	123.19
244.932	139.19
245.166	138.19
245.399	127.19
245.633	121.19
245.866	116.19
246.099	133.19
246.333	147.19
246.566	137.19
246.8	146.19
247.033	125.19
247.266	132.19
247.5	134.19
247.733	132.19
247.966	133.19
248.2	152.19
248.433	151.19
248.666	151.19
248.899	163.19
249.133	135.19
249.366	164.19
249.599	176.19
249.832	156.19
250.066	165.19
250.299	149.19
250.532	158.19
250.765	139.19
250.998	135.19
251.231	122.19
251.465	140.19
251.698	157.19
251.931	150.19
252.164	147.19
252.397	155.19
252.63	184.19
252.863	185.19
253.096	182.19
253.329	183.19
253.562	189.19
253.795	204.19
254.028	207.19
254.261	212.19
254.494	186.19
254.727	192.19
254.96	179.19
255.193	200.19
255.426	196.19
255.659	145.19
255.892	141.19
256.124	156.19
256.357	177.19
256.59	199.19
256.823	181.19
257.056	162.19
257.289	155.19
257.521	169.19
257.754	178.19
257.987	191.19
258.22	185.19
258.452	166.19
258.685	181.19
258.918	194.19
259.151	195.19
259.383	205.19
259.616	231.19
259.849	219.19
260.081	228.19
260.314	241.19
260.547	217.19
260.779	223.19
261.012	251.19
261.244	233.19
261.477	236.19
261.71	217.19
261.942	201.19
262.175	200.19
262.407	190.19
262.64	194.19
262.872	216.19
263.105	243.19
263.337	248.19
263.57	211.19
263.802	167.19
264.035	175.19
264.267	148.19
264.499	154.19
264.732	143.19
264.964	151.19
265.197	132.19
265.429	156.19
265.661	155.19
265.894	155.19
266.126	157.19
266.358	168.19
266.591	188.19
266.823	246.19
267.055	224.19
267.287	187.19
267.52	195.19
267.752	201.19
267.984	227.19
268.216	206.19
268.448	167.19
268.681	185.19
268.913	186.19
269.145	180.19
269.377	202.19
269.609	214.19
269.841	172.19
270.073	193.19
270.306	193.19
270.538	209.19
270.77	205.19
271.002	207.19
271.234	217.19
271.466	239.19
271.698	220.19
271.93	230.19
272.162	211.19
272.394	219.19
272.626	219.19
272.858	204.19
273.09	217.19
273.322	195.19
273.553	198.19
273.785	219.19
274.017	272.19
274.249	306.19
274.481	309.19
274.713	320.19
274.945	359.19
275.176	390.19
275.408	348.19
275.64	328.19
275.872	313.19
276.104	289.19
276.335	259.19
276.567	236.19
276.799	257.19
277.031	281.19
277.262	211.19
277.494	186.19
277.726	178.19
277.957	196.19
278.189	218.19
278.421	210.19
278.652	212.19
278.884	177.19
279.115	198.19
279.347	189.19
279.579	179.19
279.81	165.19
280.042	179.19
280.273	189.19
280.505	180.19
280.736	161.19
280.968	167.19
281.199	167.19
281.431	187.19
281.662	184.19
281.894	193.19
282.125	201.19
282.356	203.19
282.588	199.19
282.819	180.19
283.051	187.19
283.282	233.19
283.513	261.19
283.745	276.19
283.976	285.19
284.207	274.19
284.439	283.19
284.67	273.19
284.901	264.19
285.132	266.19
285.364	284.19
285.595	239.19
285.826	278.19
286.057	283.19
286.288	267.19
286.52	259.19
286.751	276.19
286.982	281.19
287.213	229.19
287.444	245.19
287.675	253.19
287.906	247.19
288.138	223.19
288.369	202.19
288.6	207.19
288.831	203.19
289.062	220.19
289.293	227.19
289.524	212.19
289.755	227.19
289.986	231.19
290.217	216.19
290.448	168.19
290.679	163.19
290.91	157.19
291.141	147.19
291.371	177.19
291.602	160.19
291.833	156.19
292.064	162.19
292.295	177.19
292.526	204.19
292.757	207.19
292.987	226.19
293.218	234.19
293.449	231.19
293.68	223.19
293.91	217.19
294.141	240.19
294.372	211.19
294.603	217.19
294.833	228.19
295.064	239.19
295.295	231.19
295.525	189.19
295.756	171.19
295.987	153.19
296.217	143.19
296.448	165.19
296.679	160.19
296.909	186.19
297.14	181.19
297.37	201.19
297.601	187.19
297.831	158.19
298.062	189.19
298.292	217.19
298.523	215.19
298.753	233.19
298.984	215.19
299.214	173.19
299.445	160.19
299.675	176.19
299.905	154.19
300.136	160.19
300.366	172.19
300.597	172.19
300.827	153.19
301.057	158.19
301.288	141.19
301.518	169.19
301.748	176.19
301.979	219.19
302.209	203.19
302.439	198.19
302.669	192.19
302.9	178.19
303.13	168.19
303.36	170.19
303.59	170.19
303.82	160.19
304.051	175.19
304.281	186.19
304.511	192.19
304.741	187.19
304.971	175.19
305.201	195.19
305.431	186.19
305.661	161.19
305.891	159.19
306.121	169.19
306.352	135.19
306.582	154.19
306.812	163.19
307.042	136.19
307.272	133.19
307.502	137.19
307.731	131.19
307.961	140.19
308.191	137.19
308.421	142.19
308.651	152.19
308.881	131.19
309.111	135.19
309.341	137.19
309.571	154.19
309.8	155.19
310.03	149.19
310.26	164.19
310.49	156.19
310.72	154.19
310.949	138.19
311.179	152.19
311.409	153.19
311.639	164.19
311.868	197.19
312.098	250.19
312.328	251.19
312.557	260.19
312.787	232.19
313.017	240.19
313.246	253.19
313.476	258.19
313.706	218.19
313.935	173.19
314.165	152.19
314.394	146.19
314.624	156.19
314.853	156.19
315.083	170.19
315.312	164.19
315.542	149.19
315.771	133.19
316.001	137.19
316.23	137.19
316.46	125.19
316.689	134.19
316.919	143.19
317.148	145.19
317.377	157.19
317.607	145.19
317.836	153.19
318.065	157.19
318.295	181.19
318.524	179.19
318.753	155.19
318.983	153.19
319.212	151.19
319.441	164.19
319.67	153.19
319.9	156.19
320.129	167.19
320.358	161.19
320.587	138.19
320.816	154.19
321.046	177.19
321.275	187.19
321.504	191.19
321.733	178.19
321.962	166.19
322.191	169.19
322.42	170.19
322.649	165.19
322.878	177.19
323.108	176.19
323.337	171.19
323.566	165.19
323.795	166.19
324.024	171.19
324.253	164.19
324.482	160.19
324.71	165.19
324.939	170.19
325.168	164.19
325.397	143.19
325.626	141.19
325.855	143.19
326.084	135.19
326.313	149.19
326.542	140.19
326.77	128.19
326.999	144.19
327.228	149.19
327.457	153.19
327.686	157.19
327.914	136.19
328.143	139.19
328.372	127.19
328.6	127.19
328.829	151.19
329.058	137.19
329.287	133.19
329.515	140.19
329.744	151.19
329.972	137.19
330.201	136.19
330.43	138.19
330.658	134.19
330.887	163.19
331.115	140.19
331.344	150.19
331.572	149.19
331.801	139.19
332.03	123.19
332.258	131.19
332.486	162.19
332.715	152.19
332.943	131.19
333.172	141.19
333.4	141.19
333.629	156.19
333.857	159.19
334.085	161.19
334.314	165.19
334.542	159.19
334.771	163.19
334.999	136.19
335.227	134.19
335.455	145.19
335.684	166.19
335.912	175.19
336.14	180.19
336.369	179.19
336.597	159.19
336.825	186.19
337.053	226.19
337.281	181.19
337.51	148.19
337.738	152.19
337.966	146.19
338.194	165.19
338.422	160.19
338.65	139.19
338.878	133.19
339.106	137.19
339.334	152.19
339.562	164.19
339.79	175.19
340.018	164.19
340.246	161.19
340.474	184.19
340.702	177.19
340.93	183.19
341.158	197.19
341.386	171.19
341.614	155.19
341.842	157.19
342.07	188.19
342.298	209.19
342.526	195.19
342.754	175.19
342.981	172.19
343.209	159.19
343.437	171.19
343.665	176.19
343.893	167.19
344.12	196.19
344.348	239.19
344.576	198.19
344.804	171.19
345.031	153.19
345.259	149.19
345.487	160.19
345.714	164.19
345.942	142.19
346.17	155.19
346.397	155.19
346.625	147.19
346.853	169.19
347.08	149.19
347.308	168.19
347.535	168.19
347.763	170.19
347.99	165.19
348.218	147.19
348.445	151.19
348.673	153.19
348.9	151.19
349.128	151.19
349.355	164.19
349.583	161.19
349.81	157.19
350.037	162.19
350.265	129.19
350.492	135.19
350.72	139.19
350.947	142.19
351.174	131.19
351.402	167.19
351.629	136.19
351.856	153.19
352.083	142.19
352.311	162.19
352.538	162.19
352.765	185.19
352.992	165.19
353.22	170.19
353.447	153.19
353.674	161.19
353.901	158.19
354.128	154.19
354.355	165.19
354.583	153.19
354.81	164.19
355.037	158.19
355.264	165.19
355.491	159.19
355.718	193.19
355.945	195.19
356.172	154.19
356.399	155.19
356.626	188.19
356.853	233.19
357.08	258.19
357.307	218.19
357.534	205.19
357.761	227.19
357.988	260.19
358.215	271.19
358.441	260.19
358.668	227.19
358.895	216.19
359.122	193.19
359.349	182.19
359.576	211.19
359.802	171.19
360.029	164.19
360.256	178.19
360.483	204.19
360.709	232.19
360.936	225.19
361.163	203.19
361.39	184.19
361.616	171.19
361.843	169.19
362.07	218.19
362.296	192.19
362.523	159.19
362.749	160.19
362.976	149.19
363.203	195.19
363.429	179.19
363.656	170.19
363.882	169.19
364.109	157.19
364.335	156.19
364.562	138.19
364.788	154.19
365.015	196.19
365.241	177.19
365.468	155.19
365.694	135.19
365.92	139.19
366.147	140.19
366.373	148.19
366.599	137.19
366.826	148.19
367.052	139.19
367.278	143.19
367.505	159.19
367.731	157.19
367.957	171.19
368.184	166.19
368.41	176.19
368.636	160.19
368.862	170.19
369.089	161.19
369.315	147.19
369.541	153.19
369.767	147.19
369.993	144.19
370.219	131.19
370.445	145.19
370.672	156.19
370.898	177.19
371.124	163.19
371.35	163.19
371.576	148.19
371.802	165.19
372.028	185.19
372.254	202.19
372.48	158.19
372.706	161.19
372.932	177.19
373.158	181.19
373.384	201.19
373.61	252.19
373.835	251.19
374.061	188.19
374.287	182.19
374.513	217.19
374.739	234.19
374.965	229.19
375.191	229.19
375.416	170.19
375.642	175.19
375.868	180.19
376.094	203.19
376.319	175.19
376.545	195.19
376.771	203.19
376.997	183.19
377.222	151.19
377.448	148.19
377.674	155.19
377.899	161.19
378.125	131.19
378.35	121.19
378.576	123.19
378.802	139.19
379.027	172.19
379.253	148.19
379.478	165.19
379.704	161.19
379.929	170.19
380.155	176.19
380.38	159.19
380.606	161.19
380.831	190.19
381.057	170.19
381.282	154.19
381.507	184.19
381.733	216.19
381.958	232.19
382.184	220.19
382.409	251.19
382.634	239.19
382.86	230.19
383.085	207.19
383.31	173.19
383.535	203.19
383.761	187.19
383.986	196.19
384.211	197.19
384.436	198.19
384.662	153.19
384.887	168.19
385.112	169.19
385.337	177.19
385.562	179.19
385.787	172.19
386.013	186.19
386.238	185.19
386.463	172.19
386.688	163.19
386.913	156.19
387.138	155.19
387.363	156.19
387.588	152.19
387.813	153.19
388.038	155.19
388.263	164.19
388.488	162.19
388.713	163.19
388.938	197.19
389.163	168.19
389.387	148.19
389.612	154.19
389.837	161.19
390.062	171.19
390.287	170.19
390.512	164.19
390.736	160.19
390.961	132.19
391.186	148.19
391.411	136.19
391.636	149.19
391.86	151.19
392.085	165.19
392.31	163.19
392.534	155.19
392.759	157.19
392.984	155.19
393.208	150.19
393.433	138.19
393.658	141.19
393.882	140.19
394.107	149.19
394.331	144.19
394.556	128.19
394.78	133.19
395.005	149.19
395.229	149.19
395.454	137.19
395.678	145.19
395.903	147.19
396.127	141.19
396.352	150.19
396.576	177.19
396.801	162.19
397.025	170.19
397.249	183.19
397.474	161.19
397.698	159.19
397.922	168.19
398.147	139.19
398.371	137.19
398.595	183.19
398.82	150.19
399.044	141.19
399.268	154.19
399.492	153.19
399.717	169.19
399.941	169.19
400.165	161.19
400.389	163.19
400.613	177.19
400.837	145.19
401.062	155.19
401.286	162.19
401.51	145.19
401.734	152.19
401.958	153.19
402.182	152.19
402.406	125.19
402.63	140.19
402.854	156.19
403.078	163.19
403.302	200.19
403.526	218.19
403.75	179.19
403.974	161.19
404.198	172.19
404.422	191.19
404.645	211.19
404.869	212.19
405.093	181.19
405.317	164.19
405.541	159.19
405.765	153.19
405.988	161.19
406.212	175.19
406.436	183.19
406.66	213.19
406.883	168.19
407.107	191.19
407.331	189.19
407.555	183.19
407.778	176.19
408.002	182.19
408.226	149.19
408.449	163.19
408.673	167.19
408.896	138.19
409.12	141.19
409.344	139.19
409.567	131.19
409.791	151.19
410.014	134.19
410.238	138.19
410.461	155.19
410.685	138.19
410.908	147.19
411.132	157.19
411.355	150.19
411.578	141.19
411.802	142.19
412.025	164.19
412.249	179.19
412.472	155.19
412.695	162.19
412.919	156.19
413.142	144.19
413.365	164.19
413.589	157.19
413.812	137.19
414.035	153.19
414.258	155.19
414.482	169.19
414.705	170.19
414.928	154.19
415.151	160.19
415.374	156.19
415.597	159.19
415.821	153.19
416.044	156.19
416.267	152.19
416.49	139.19
416.713	152.19
416.936	143.19
417.159	146.19
417.382	141.19
417.605	150.19
417.828	153.19
418.051	165.19
418.274	159.19
418.497	150.19
418.72	144.19
418.943	160.19
419.166	173.19
419.389	142.19
419.611	167.19
419.834	163.19
420.057	197.19
420.28	180.19
420.503	163.19
420.726	149.19
420.948	157.19
421.171	150.19
421.394	144.19
421.617	160.19
421.839	141.19
422.062	154.19
422.285	152.19
422.507	154.19
422.73	165.19
422.953	154.19
423.175	154.19
423.398	153.19
423.621	180.19
423.843	167.19
424.066	156.19
424.288	151.19
424.511	164.19
424.733	143.19
424.956	163.19
425.178	167.19
425.401	182.19
425.623	206.19
425.846	194.19
426.068	169.19
426.291	171.19
426.513	172.19
426.735	176.19
426.958	165.19
427.18	188.19
427.402	227.19
427.625	236.19
427.847	189.19
428.069	152.19
428.292	164.19
428.514	163.19
428.736	142.19
428.958	153.19
429.181	181.19
429.403	159.19
429.625	147.19
429.847	152.19
430.069	156.19
430.292	156.19
430.514	153.19
430.736	148.19
430.958	187.19
431.18	168.19
431.402	150.19
431.624	152.19
431.846	132.19
432.068	135.19
432.29	151.19
432.512	155.19
432.734	185.19
432.956	176.19
433.178	141.19
433.4	145.19
433.622	140.19
433.844	151.19
434.066	154.19
434.287	152.19
434.509	145.19
434.731	164.19
434.953	159.19
435.175	155.19
435.397	166.19
435.618	137.19
435.84	152.19
436.062	135.19
436.284	139.19
436.505	130.19
436.727	137.19
436.949	140.19
437.17	146.19
437.392	157.19
437.614	149.19
437.835	149.19
438.057	139.19
438.278	170.19
438.5	215.19
438.721	196.19
438.943	159.19
439.165	148.19
439.386	137.19
439.608	153.19
439.829	149.19
440.05	113.19
440.272	141.19
440.493	158.19
440.715	187.19
440.936	163.19
441.158	146.19
441.379	139.19
441.6	176.19
441.822	164.19
442.043	155.19
442.264	126.19
442.486	141.19
442.707	156.19
442.928	152.19
443.149	152.19
443.371	144.19
443.592	140.19
443.813	149.19
444.034	146.19
444.255	137.19
444.476	163.19
444.698	137.19
444.919	163.19
445.14	295.19
445.361	218.19
445.582	162.19
445.803	156.19
446.024	141.19
446.245	171.19
446.466	162.19
446.687	147.19
446.908	143.19
447.129	150.19
447.35	138.19
447.571	141.19
447.792	142.19
448.013	141.19
448.234	125.19
448.455	129.19
448.675	135.19
448.896	141.19
449.117	132.19
449.338	148.19
449.559	145.19
449.779	136.19
450	155.19
450.221	146.19
450.442	133.19
450.662	148.19
450.883	147.19
451.104	136.19
451.324	148.19
451.545	133.19
451.766	148.19
451.986	140.19
452.207	150.19
452.428	155.19
452.648	152.19
452.869	139.19
453.089	164.19
453.31	164.19
453.53	133.19
453.751	133.19
453.971	121.19
454.192	129.19
454.412	141.19
454.633	130.19
454.853	128.19
455.073	149.19
455.294	140.19
455.514	143.19
455.734	141.19
455.955	148.19
456.175	140.19
456.395	148.19
456.616	134.19
456.836	135.19
457.056	146.19
457.276	132.19
457.497	136.19
457.717	127.19
457.937	117.19
458.157	135.19
458.377	139.19
458.598	122.19
458.818	117.19
459.038	145.19
459.258	152.19
459.478	153.19
459.698	141.19
459.918	157.19
460.138	148.19
460.358	141.19
460.578	155.19
460.798	157.19
461.018	155.19
461.238	142.19
461.458	145.19
461.678	141.19
461.898	155.19
462.118	156.19
462.338	156.19
462.558	133.19
462.777	155.19
462.997	158.19
463.217	151.19
463.437	160.19
463.657	164.19
463.876	151.19
464.096	160.19
464.316	157.19
464.536	171.19
464.755	171.19
464.975	170.19
465.195	159.19
465.414	153.19
465.634	160.19
465.854	135.19
466.073	142.19
466.293	135.19
466.512	141.19
466.732	157.19
466.951	163.19
467.171	144.19
467.391	142.19
467.61	149.19
467.829	169.19
468.049	140.19
468.268	141.19
468.488	133.19
468.707	142.19
468.927	152.19
469.146	182.19
469.365	147.19
469.585	155.19
469.804	160.19
470.023	177.19
470.243	159.19
470.462	160.19
470.681	135.19
470.901	161.19
471.12	167.19
471.339	154.19
471.558	168.19
471.777	168.19
471.997	162.19
472.216	186.19
472.435	168.19
472.654	156.19
472.873	163.19
473.092	170.19
473.311	153.19
473.53	150.19
473.749	156.19
473.968	144.19
474.187	169.19
474.406	172.19
474.625	145.19
474.844	157.19
475.063	145.19
475.282	162.19
475.501	163.19
475.72	189.19
475.939	194.19
476.158	173.19
476.377	205.19
476.596	219.19
476.814	218.19
477.033	210.19
477.252	177.19
477.471	154.19
477.69	170.19
477.908	159.19
478.127	185.19
478.346	169.19
478.564	184.19
478.783	162.19
479.002	172.19
479.22	188.19
479.439	194.19
479.658	180.19
479.876	182.19
480.095	170.19
480.313	190.19
480.532	169.19
480.751	158.19
480.969	160.19
481.188	191.19
481.406	181.19
481.624	191.19
481.843	185.19
482.061	166.19
482.28	192.19
482.498	214.19
482.717	209.19
482.935	177.19
483.153	176.19
483.372	177.19
483.59	164.19
483.808	156.19
484.027	149.19
484.245	165.19
484.463	157.19
484.681	165.19
484.9	176.19
485.118	181.19
485.336	169.19
485.554	163.19
485.772	163.19
485.99	179.19
486.209	180.19
486.427	168.19
486.645	178.19
486.863	174.19
487.081	195.19
487.299	214.19
487.517	194.19
487.735	171.19
487.953	179.19
488.171	185.19
488.389	169.19
488.607	171.19
488.825	178.19
489.043	200.19
489.261	204.19
489.479	229.19
489.696	187.19
489.914	186.19
490.132	185.19
490.35	176.19
490.568	159.19
490.786	171.19
491.003	176.19
491.221	162.19
491.439	176.19
491.657	153.19
491.874	178.19
492.092	204.19
492.31	275.19
492.527	249.19
492.745	213.19
492.963	197.19
493.18	187.19
493.398	198.19
493.615	182.19
493.833	187.19
494.05	195.19
494.268	181.19
494.485	183.19
494.703	183.19
494.92	188.19
495.138	189.19
495.355	175.19
495.573	184.19
495.79	212.19
496.008	257.19
496.225	224.19
496.442	187.19
496.66	191.19
496.877	203.19
497.094	192.19
497.312	202.19
497.529	186.19
497.746	199.19
497.963	202.19
498.181	204.19
498.398	217.19
498.615	228.19
498.832	227.19
499.049	227.19
499.267	225.19
499.484	240.19
499.701	215.19
499.918	246.19
500.135	240.19
500.352	240.19
500.569	254.19
500.786	273.19
501.003	269.19
501.22	247.19
501.437	244.19
501.654	234.19
501.871	222.19
502.088	212.19
502.305	202.19
502.522	205.19
502.739	212.19
502.956	202.19
503.172	191.19
503.389	200.19
503.606	175.19
503.823	197.19
504.04	205.19
504.256	187.19
504.473	191.19
504.69	196.19
504.907	203.19
505.123	193.19
505.34	217.19
505.557	207.19
505.773	191.19
505.99	196.19
506.207	176.19
506.423	191.19
506.64	179.19
506.856	195.19
507.073	203.19
507.289	205.19
507.506	187.19
507.722	203.19
507.939	209.19
508.155	192.19
508.372	201.19
508.588	188.19
508.805	183.19
509.021	175.19
509.238	193.19
509.454	193.19
509.67	200.19
509.887	189.19
510.103	187.19
510.319	193.19
510.536	195.19
510.752	176.19
510.968	170.19
511.184	154.19
511.401	164.19
511.617	159.19
511.833	157.19
512.049	171.19
512.265	170.19
512.481	184.19
512.698	182.19
512.914	203.19
513.13	185.19
513.346	163.19
513.562	171.19
513.778	197.19
513.994	196.19
514.21	194.19
514.426	194.19
514.642	178.19
514.858	167.19
515.074	187.19
515.29	194.19
515.506	205.19
515.721	199.19
515.937	181.19
516.153	187.19
516.369	185.19
516.585	199.19
516.801	195.19
517.016	249.19
517.232	234.19
517.448	236.19
517.664	192.19
517.879	190.19
518.095	199.19
518.311	172.19
518.527	189.19
518.742	203.19
518.958	216.19
519.173	191.19
519.389	195.19
519.605	221.19
519.82	220.19
520.036	251.19
520.251	234.19
520.467	246.19
520.682	400.19
520.898	479.19
521.113	439.19
521.329	277.19
521.544	223.19
521.76	211.19
521.975	211.19
522.19	193.19
522.406	197.19
522.621	216.19
522.836	226.19
523.052	227.19
523.267	194.19
523.482	191.19
523.698	191.19
523.913	203.19
524.128	184.19
524.343	182.19
524.559	176.19
524.774	175.19
524.989	181.19
525.204	188.19
525.419	191.19
525.634	165.19
525.849	172.19
526.064	198.19
526.28	197.19
526.495	209.19
526.71	239.19
526.925	227.19
527.14	224.19
527.355	227.19
527.57	189.19
527.785	196.19
527.999	193.19
528.214	168.19
528.429	179.19
528.644	189.19
528.859	174.19
529.074	165.19
529.289	164.19
529.503	169.19
529.718	176.19
529.933	208.19
530.148	219.19
530.363	159.19
530.577	165.19
530.792	167.19
531.007	154.19
531.221	166.19
531.436	171.19
531.651	167.19
531.865	163.19
532.08	181.19
532.295	177.19
532.509	182.19
532.724	191.19
532.938	212.19
533.153	248.19
533.367	185.19
533.582	182.19
533.796	168.19
534.011	177.19
534.225	172.19
534.44	184.19
534.654	188.19
534.868	211.19
535.083	190.19
535.297	176.19
535.511	170.19
535.726	193.19
535.94	155.19
536.154	168.19
536.369	158.19
536.583	180.19
536.797	191.19
537.011	173.19
537.225	183.19
537.44	202.19
537.654	169.19
537.868	180.19
538.082	177.19
538.296	168.19
538.51	196.19
538.724	184.19
538.938	180.19
539.153	145.19
539.367	160.19
539.581	185.19
539.795	173.19
540.009	193.19
540.222	178.19
540.436	185.19
540.65	214.19
540.864	204.19
541.078	200.19
541.292	235.19
541.506	194.19
541.72	195.19
541.934	167.19
542.147	185.19
542.361	171.19
542.575	170.19
542.789	162.19
543.002	154.19
543.216	191.19
543.43	163.19
543.644	171.19
543.857	157.19
544.071	155.19
544.285	169.19
544.498	159.19
544.712	148.19
544.925	184.19
545.139	179.19
545.352	154.19
545.566	156.19
545.779	160.19
545.993	179.19
546.206	159.19
546.42	156.19
546.633	160.19
546.847	145.19
547.06	147.19
547.274	137.19
547.487	147.19
547.7	165.19
547.914	158.19
548.127	178.19
548.34	168.19
548.554	157.19
548.767	176.19
548.98	174.19
549.193	164.19
549.407	169.19
549.62	181.19
549.833	180.19
550.046	189.19
550.259	177.19
550.473	172.19
550.686	175.19
550.899	156.19
551.112	157.19
551.325	169.19
551.538	174.19
551.751	171.19
551.964	161.19
552.177	143.19
552.39	146.19
552.603	147.19
552.816	157.19
553.029	152.19
553.242	168.19
553.455	150.19
553.667	173.19
553.88	156.19
554.093	133.19
554.306	129.19
554.519	155.19
554.732	147.19
554.944	144.19
555.157	141.19
555.37	134.19
555.583	126.19
555.795	123.19
556.008	143.19
556.221	146.19
556.433	136.19
556.646	153.19
556.859	160.19
557.071	154.19
557.284	157.19
557.496	146.19
557.709	167.19
557.921	153.19
558.134	147.19
558.346	140.19
558.559	151.19
558.771	148.19
558.984	167.19
559.196	139.19
559.409	145.19
559.621	149.19
559.833	134.19
560.046	142.19
560.258	139.19
560.47	150.19
560.683	146.19
560.895	139.19
561.107	133.19
561.32	140.19
561.532	146.19
561.744	145.19
561.956	137.19
562.168	145.19
562.381	145.19
562.593	142.19
562.805	147.19
563.017	144.19
563.229	134.19
563.441	124.19
563.653	136.19
563.865	136.19
564.077	138.19
564.289	140.19
564.501	141.19
564.713	152.19
564.925	140.19
565.137	124.19
565.349	127.19
565.561	131.19
565.773	135.19
565.985	140.19
566.197	141.19
566.408	157.19
566.62	162.19
566.832	163.19
567.044	171.19
567.255	149.19
567.467	161.19
567.679	159.19
567.891	171.19
568.102	157.19
568.314	135.19
568.526	145.19
568.737	148.19
568.949	149.19
569.161	133.19
569.372	133.19
569.584	140.19
569.795	124.19
570.007	135.19
570.218	152.19
570.43	141.19
570.641	131.19
570.853	133.19
571.064	128.19
571.276	141.19
571.487	141.19
571.698	139.19
571.91	141.19
572.121	132.19
572.333	111.19
572.544	122.19
572.755	138.19
572.966	125.19
573.178	134.19
573.389	136.19
573.6	123.19
573.811	140.19
574.023	129.19
574.234	127.19
574.445	123.19
574.656	121.19
574.867	131.19
575.078	136.19
575.289	136.19
575.501	138.19
575.712	132.19
575.923	131.19
576.134	141.19
576.345	127.19
576.556	107.19
576.767	121.19
576.978	113.19
577.188	112.19
577.399	114.19
577.61	129.19
577.821	125.19
578.032	124.19
578.243	138.19
578.454	127.19
578.665	137.19
578.875	135.19
579.086	126.19
579.297	127.19
579.508	124.19
579.718	162.19
579.929	146.19
580.14	135.19
580.35	125.19
580.561	126.19
580.772	116.19
580.982	133.19
581.193	119.19
581.403	103.19
581.614	120.19
581.825	107.19
582.035	120.19
582.246	113.19
582.456	123.19
582.667	124.19
582.877	112.19
583.087	127.19
583.298	120.19
583.508	112.19
583.719	106.19
583.929	131.19
584.139	120.19
584.35	119.19
584.56	121.19
584.77	115.19
584.981	111.19
585.191	107.19
585.401	99.19
585.611	125.19
585.821	125.19
586.032	130.19
586.242	117.19
586.452	102.19
586.662	122.19
586.872	130.19
587.082	122.19
587.292	121.19
587.502	121.19
587.713	111.19
587.923	113.19
588.133	121.19
588.343	113.19
588.553	120.19
588.762	107.19
588.972	119.19
589.182	113.19
589.392	116.19
589.602	110.19
589.812	106.19
590.022	127.19
590.232	123.19
590.441	125.19
590.651	120.19
590.861	125.19
591.071	116.19
591.281	120.19
591.49	124.19
591.7	134.19
591.91	125.19
592.119	122.19
592.329	111.19
592.539	106.19
592.748	114.19
592.958	115.19
593.167	123.19
593.377	113.19
593.587	124.19
593.796	108.19
594.006	127.19
594.215	115.19
594.424	119.19
594.634	111.19
594.843	111.19
595.053	106.19
595.262	107.19
595.472	121.19
595.681	122.19
595.89	108.19
596.1	95.19
596.309	121.19
596.518	125.19
596.727	111.19
596.937	128.19
597.146	125.19
597.355	109.19
597.564	107.19
597.774	111.19
597.983	112.19
598.192	102.19
598.401	111.19
598.61	100.19
598.819	119.19
599.028	102.19
599.237	124.19
599.446	121.19
599.655	112.19
599.864	115.19
600.073	111.19
600.282	118.19
600.491	102.19
600.7	107.19
600.909	124.19
601.118	116.19
601.327	113.19
601.536	103.19
601.745	121.19
601.953	111.19
602.162	96.19
602.371	123.19
602.58	124.19
602.789	106.19
602.997	95.19
603.206	116.19
603.415	113.19
603.623	100.19
603.832	93.19
604.041	101.19
604.249	118.19
604.458	107.19
604.666	110.19
604.875	106.19
605.084	111.19
605.292	115.19
605.501	105.19
605.709	108.19
605.918	99.19
606.126	103.19
606.334	106.19
606.543	103.19
606.751	116.19
606.96	115.19
607.168	106.19
607.376	107.19
607.585	112.19
607.793	105.19
608.001	101.19
608.21	103.19
608.418	103.19
608.626	91.19
608.834	113.19
609.043	113.19
609.251	95.19
609.459	115.19
609.667	115.19
609.875	99.19
610.083	113.19
610.291	98.19
610.499	124.19
610.707	99.19
610.916	103.19
611.124	98.19
611.332	107.19
611.54	114.19
611.748	117.19
611.955	103.19
612.163	99.19
612.371	111.19
612.579	111.19
612.787	95.19
612.995	103.19
613.203	106.19
613.411	90.19
613.618	110.19
613.826	117.19
614.034	110.19
614.242	95.19
614.449	92.19
614.657	98.19
614.865	116.19
615.072	117.19
615.28	104.19
615.488	123.19
615.695	103.19
615.903	104.19
616.111	95.19
616.318	101.19
616.526	100.19
616.733	121.19
616.941	97.19
617.148	100.19
617.356	95.19
617.563	97.19
617.771	91.19
617.978	94.19
618.185	101.19
618.393	106.19
618.6	112.19
618.807	115.19
619.015	114.19
619.222	107.19
619.429	92.19
619.637	103.19
619.844	85.19
620.051	100.19
620.258	97.19
620.466	115.19
620.673	103.19
620.88	104.19
621.087	110.19
621.294	108.19
621.501	100.19
621.708	93.19
621.915	103.19
622.122	112.19
622.329	97.19
622.536	106.19
622.743	91.19
622.95	111.19
623.157	105.19
623.364	99.19
623.571	111.19
623.778	105.19
623.985	98.19
624.192	113.19
624.399	104.19
624.606	92.19
624.812	106.19
625.019	100.19
625.226	97.19
625.433	107.19
625.639	97.19
625.846	91.19
626.053	95.19
626.259	97.19
626.466	96.19
626.673	90.19
626.879	100.19
627.086	104.19
627.293	121.19
627.499	95.19
627.706	91.19
627.912	93.19
628.119	98.19
628.325	119.19
628.532	86.19
628.738	100.19
628.945	88.19
629.151	96.19
629.357	99.19
629.564	103.19
629.77	109.19
629.976	111.19
630.183	93.19
630.389	99.19
630.595	95.19
630.802	105.19
631.008	93.19
631.214	97.19
631.42	107.19
631.627	95.19
631.833	99.19
632.039	93.19
632.245	103.19
632.451	99.19
632.657	85.19
632.863	76.19
633.069	96.19
633.275	88.19
633.481	98.19
633.688	94.19
633.893	100.19
634.099	97.19
634.305	93.19
634.511	89.19
634.717	89.19
634.923	97.19
635.129	89.19
635.335	98.19
635.541	95.19
635.747	106.19
635.952	105.19
636.158	105.19
636.364	108.19
636.57	95.19
636.775	83.19
636.981	90.19
637.187	92.19
637.392	114.19
637.598	88.19
637.804	89.19
638.009	93.19
638.215	107.19
638.421	97.19
638.626	102.19
638.832	83.19
639.037	99.19
639.243	80.19
639.448	103.19
639.654	106.19
639.859	95.19
640.065	91.19
640.27	88.19
640.475	102.19
640.681	97.19
640.886	101.19
641.091	95.19
641.297	83.19
641.502	92.19
641.707	94.19
641.913	114.19
642.118	83.19
642.323	91.19
642.528	103.19
642.733	97.19
642.939	99.19
643.144	92.19
643.349	90.19
643.554	91.19
643.759	84.19
643.964	98.19
644.169	105.19
644.374	99.19
644.579	85.19
644.784	85.19
644.989	94.19
645.194	76.19
645.399	99.19
645.604	100.19
645.809	83.19
646.014	99.19
646.219	98.19
646.423	86.19
646.628	80.19
646.833	88.19
647.038	96.19
647.243	82.19
647.447	83.19
647.652	97.19
647.857	95.19
648.062	96.19
648.266	112.19
648.471	99.19
648.676	102.19
648.88	105.19
649.085	93.19
649.289	102.19
649.494	106.19
649.698	104.19
649.903	95.19
650.107	84.19
650.312	82.19
650.516	101.19
650.721	84.19
650.925	96.19
651.13	89.19
651.334	87.19
651.539	89.19
651.743	89.19
651.947	95.19
652.152	92.19
652.356	87.19
652.56	90.19
652.764	99.19
652.969	84.19
653.173	83.19
653.377	87.19
653.581	98.19
653.785	79.19
653.99	93.19
654.194	92.19
654.398	87.19
654.602	91.19
654.806	87.19
655.01	93.19
655.214	87.19
655.418	90.19
655.622	89.19
655.826	90.19
656.03	88.19
656.234	80.19
656.438	81.19
656.642	84.19
656.846	81.19
657.049	89.19
657.253	91.19
657.457	89.19
657.661	92.19
657.865	79.19
658.068	95.19
658.272	98.19
658.476	86.19
658.68	76.19
658.883	100.19
659.087	88.19
659.291	87.19
659.494	83.19
659.698	92.19
659.901	84.19
660.105	75.19
660.309	91.19
660.512	84.19
660.716	91.19
660.919	82.19
661.123	90.19
661.326	83.19
661.53	85.19
661.733	93.19
661.936	86.19
662.14	86.19
662.343	81.19
662.546	81.19
662.75	88.19
662.953	86.19
663.156	90.19
663.36	81.19
663.563	83.19
663.766	85.19
663.969	82.19
664.173	89.19
664.376	92.19
664.579	80.19
664.782	65.19
664.985	83.19
665.188	91.19
665.391	87.19
665.594	87.19
665.797	85.19
666	75.19
666.203	88.19
666.406	71.19
666.609	84.19
666.812	75.19
667.015	82.19
667.218	91.19
667.421	80.19
667.624	77.19
667.827	84.19
668.03	75.19
668.232	85.19
668.435	88.19
668.638	63.19
668.841	74.19
669.043	84.19
669.246	86.19
669.449	77.19
669.651	81.19
669.854	73.19
670.057	78.19
670.259	72.19
670.462	76.19
670.665	81.19
670.867	99.19
671.07	89.19
671.272	82.19
671.475	89.19
671.677	82.19
671.88	69.19
672.082	73.19
672.284	84.19
672.487	85.19
672.689	73.19
672.892	80.19
