Data from NickelSpatula_HRD10591_16-35-43-126.txt Node
Date: Mon Jul 22 16:35:43 EDT 2019
User: cochatt
Spectrometer: HR+D1059
Trigger mode: 1
Integration Time (sec): 1.000000E-1
Scans to average: 1
Electric dark correction enabled: true
Nonlinearity correction enabled: false
Boxcar width: 0
XAxis mode: Wavelengths
Number of Pixels in Spectrum: 2048
>>>>>Begin Spectral Data<<<<<
223.165	-8.81
223.4	-8.81
223.635	-8.81
223.869	-7.81
224.104	-27.81
224.338	-20.81
224.573	-25.81
224.808	-27.81
225.042	-8.81
225.277	-5.81
225.511	4.19
225.746	-7.81
225.98	22.19
226.215	16.19
226.449	20.19
226.683	30.19
226.918	25.19
227.152	23.19
227.387	37.19
227.621	44.19
227.856	50.19
228.09	42.19
228.324	50.19
228.559	60.19
228.793	49.19
229.027	63.19
229.262	74.19
229.496	84.19
229.73	79.19
229.964	86.19
230.199	96.19
230.433	94.19
230.667	103.19
230.901	93.19
231.136	84.19
231.37	84.19
231.604	90.19
231.838	95.19
232.072	114.19
232.306	99.19
232.541	128.19
232.775	97.19
233.009	104.19
233.243	103.19
233.477	118.19
233.711	110.19
233.945	125.19
234.179	109.19
234.413	124.19
234.647	115.19
234.881	126.19
235.115	119.19
235.349	116.19
235.583	116.19
235.817	96.19
236.051	114.19
236.285	134.19
236.519	126.19
236.753	102.19
236.987	102.19
237.221	131.19
237.455	118.19
237.689	126.19
237.922	126.19
238.156	132.19
238.39	132.19
238.624	146.19
238.858	131.19
239.091	135.19
239.325	135.19
239.559	127.19
239.793	141.19
240.027	148.19
240.26	155.19
240.494	142.19
240.728	145.19
240.961	163.19
241.195	156.19
241.429	140.19
241.662	149.19
241.896	146.19
242.13	127.19
242.363	119.19
242.597	133.19
242.83	133.19
243.064	133.19
243.298	136.19
243.531	152.19
243.765	140.19
243.998	156.19
244.232	158.19
244.465	163.19
244.699	140.19
244.932	158.19
245.166	154.19
245.399	132.19
245.633	141.19
245.866	136.19
246.099	161.19
246.333	155.19
246.566	161.19
246.8	161.19
247.033	158.19
247.266	159.19
247.5	158.19
247.733	157.19
247.966	149.19
248.2	147.19
248.433	155.19
248.666	170.19
248.899	162.19
249.133	170.19
249.366	190.19
249.599	211.19
249.832	167.19
250.066	188.19
250.299	173.19
250.532	169.19
250.765	174.19
250.998	160.19
251.231	147.19
251.465	174.19
251.698	182.19
251.931	165.19
252.164	173.19
252.397	186.19
252.63	209.19
252.863	199.19
253.096	232.19
253.329	229.19
253.562	218.19
253.795	230.19
254.028	238.19
254.261	234.19
254.494	243.19
254.727	226.19
254.96	213.19
255.193	198.19
255.426	214.19
255.659	171.19
255.892	185.19
256.124	184.19
256.357	190.19
256.59	222.19
256.823	215.19
257.056	203.19
257.289	188.19
257.521	186.19
257.754	216.19
257.987	243.19
258.22	212.19
258.452	203.19
258.685	212.19
258.918	216.19
259.151	229.19
259.383	225.19
259.616	259.19
259.849	279.19
260.081	268.19
260.314	300.19
260.547	253.19
260.779	256.19
261.012	278.19
261.244	273.19
261.477	281.19
261.71	260.19
261.942	229.19
262.175	225.19
262.407	212.19
262.64	230.19
262.872	266.19
263.105	282.19
263.337	282.19
263.57	260.19
263.802	198.19
264.035	196.19
264.267	175.19
264.499	161.19
264.732	146.19
264.964	153.19
265.197	164.19
265.429	156.19
265.661	155.19
265.894	182.19
266.126	168.19
266.358	198.19
266.591	223.19
266.823	249.19
267.055	258.19
267.287	232.19
267.52	240.19
267.752	251.19
267.984	239.19
268.216	234.19
268.448	216.19
268.681	216.19
268.913	228.19
269.145	247.19
269.377	228.19
269.609	243.19
269.841	240.19
270.073	243.19
270.306	252.19
270.538	254.19
270.77	234.19
271.002	258.19
271.234	263.19
271.466	266.19
271.698	256.19
271.93	247.19
272.162	230.19
272.394	234.19
272.626	237.19
272.858	251.19
273.09	248.19
273.322	243.19
273.553	221.19
273.785	238.19
274.017	302.19
274.249	366.19
274.481	364.19
274.713	416.19
274.945	451.19
275.176	485.19
275.408	424.19
275.64	403.19
275.872	388.19
276.104	337.19
276.335	314.19
276.567	303.19
276.799	311.19
277.031	326.19
277.262	282.19
277.494	238.19
277.726	221.19
277.957	225.19
278.189	273.19
278.421	263.19
278.652	229.19
278.884	246.19
279.115	223.19
279.347	216.19
279.579	212.19
279.81	213.19
280.042	229.19
280.273	234.19
280.505	219.19
280.736	171.19
280.968	193.19
281.199	191.19
281.431	217.19
281.662	217.19
281.894	214.19
282.125	218.19
282.356	237.19
282.588	219.19
282.819	222.19
283.051	235.19
283.282	302.19
283.513	308.19
283.745	348.19
283.976	347.19
284.207	322.19
284.439	317.19
284.67	304.19
284.901	284.19
285.132	308.19
285.364	300.19
285.595	312.19
285.826	301.19
286.057	333.19
286.288	301.19
286.52	324.19
286.751	318.19
286.982	317.19
287.213	302.19
287.444	294.19
287.675	290.19
287.906	311.19
288.138	278.19
288.369	239.19
288.6	239.19
288.831	246.19
289.062	269.19
289.293	294.19
289.524	268.19
289.755	272.19
289.986	258.19
290.217	247.19
290.448	199.19
290.679	180.19
290.91	183.19
291.141	167.19
291.371	197.19
291.602	178.19
291.833	188.19
292.064	188.19
292.295	209.19
292.526	235.19
292.757	246.19
292.987	240.19
293.218	257.19
293.449	265.19
293.68	290.19
293.91	274.19
294.141	270.19
294.372	247.19
294.603	228.19
294.833	264.19
295.064	278.19
295.295	276.19
295.525	220.19
295.756	191.19
295.987	174.19
296.217	190.19
296.448	181.19
296.679	187.19
296.909	197.19
297.14	212.19
297.37	224.19
297.601	216.19
297.831	207.19
298.062	208.19
298.292	234.19
298.523	236.19
298.753	265.19
298.984	278.19
299.214	224.19
299.445	178.19
299.675	170.19
299.905	180.19
300.136	178.19
300.366	196.19
300.597	182.19
300.827	168.19
301.057	182.19
301.288	168.19
301.518	182.19
301.748	196.19
301.979	203.19
302.209	229.19
302.439	231.19
302.669	212.19
302.9	207.19
303.13	198.19
303.36	198.19
303.59	192.19
303.82	186.19
304.051	207.19
304.281	246.19
304.511	212.19
304.741	197.19
304.971	208.19
305.201	216.19
305.431	190.19
305.661	181.19
305.891	184.19
306.121	184.19
306.352	171.19
306.582	191.19
306.812	174.19
307.042	166.19
307.272	150.19
307.502	146.19
307.731	151.19
307.961	154.19
308.191	152.19
308.421	150.19
308.651	143.19
308.881	141.19
309.111	159.19
309.341	171.19
309.571	167.19
309.8	158.19
310.03	173.19
310.26	163.19
310.49	167.19
310.72	138.19
310.949	156.19
311.179	145.19
311.409	177.19
311.639	178.19
311.868	224.19
312.098	271.19
312.328	308.19
312.557	298.19
312.787	297.19
313.017	253.19
313.246	274.19
313.476	302.19
313.706	262.19
313.935	206.19
314.165	185.19
314.394	161.19
314.624	164.19
314.853	168.19
315.083	180.19
315.312	170.19
315.542	179.19
315.771	174.19
316.001	144.19
316.23	157.19
316.46	146.19
316.689	144.19
316.919	163.19
317.148	166.19
317.377	164.19
317.607	156.19
317.836	181.19
318.065	184.19
318.295	212.19
318.524	195.19
318.753	169.19
318.983	182.19
319.212	167.19
319.441	178.19
319.67	195.19
319.9	204.19
320.129	172.19
320.358	150.19
320.587	174.19
320.816	162.19
321.046	185.19
321.275	207.19
321.504	200.19
321.733	196.19
321.962	207.19
322.191	190.19
322.42	175.19
322.649	168.19
322.878	203.19
323.108	202.19
323.337	182.19
323.566	187.19
323.795	164.19
324.024	181.19
324.253	166.19
324.482	152.19
324.71	174.19
324.939	190.19
325.168	188.19
325.397	168.19
325.626	159.19
325.855	159.19
326.084	163.19
326.313	160.19
326.542	154.19
326.77	167.19
326.999	161.19
327.228	155.19
327.457	167.19
327.686	152.19
327.914	152.19
328.143	152.19
328.372	164.19
328.6	144.19
328.829	168.19
329.058	153.19
329.287	142.19
329.515	159.19
329.744	144.19
329.972	145.19
330.201	144.19
330.43	154.19
330.658	158.19
330.887	181.19
331.115	179.19
331.344	184.19
331.572	159.19
331.801	152.19
332.03	140.19
332.258	156.19
332.486	166.19
332.715	164.19
332.943	147.19
333.172	158.19
333.4	147.19
333.629	167.19
333.857	194.19
334.085	173.19
334.314	192.19
334.542	163.19
334.771	164.19
334.999	169.19
335.227	156.19
335.455	161.19
335.684	167.19
335.912	189.19
336.14	202.19
336.369	196.19
336.597	194.19
336.825	219.19
337.053	239.19
337.281	194.19
337.51	165.19
337.738	178.19
337.966	182.19
338.194	194.19
338.422	175.19
338.65	166.19
338.878	152.19
339.106	150.19
339.334	165.19
339.562	184.19
339.79	155.19
340.018	185.19
340.246	166.19
340.474	198.19
340.702	199.19
340.93	214.19
341.158	207.19
341.386	165.19
341.614	187.19
341.842	182.19
342.07	180.19
342.298	215.19
342.526	217.19
342.754	192.19
342.981	190.19
343.209	171.19
343.437	194.19
343.665	192.19
343.893	194.19
344.12	224.19
344.348	245.19
344.576	223.19
344.804	178.19
345.031	173.19
345.259	144.19
345.487	167.19
345.714	171.19
345.942	169.19
346.17	195.19
346.397	180.19
346.625	169.19
346.853	168.19
347.08	144.19
347.308	170.19
347.535	193.19
347.763	193.19
347.99	175.19
348.218	163.19
348.445	167.19
348.673	187.19
348.9	172.19
349.128	180.19
349.355	182.19
349.583	158.19
349.81	173.19
350.037	151.19
350.265	148.19
350.492	145.19
350.72	165.19
350.947	159.19
351.174	154.19
351.402	147.19
351.629	144.19
351.856	163.19
352.083	156.19
352.311	158.19
352.538	175.19
352.765	204.19
352.992	183.19
353.22	174.19
353.447	184.19
353.674	180.19
353.901	179.19
354.128	175.19
354.355	171.19
354.583	173.19
354.81	158.19
355.037	183.19
355.264	170.19
355.491	183.19
355.718	189.19
355.945	180.19
356.172	187.19
356.399	184.19
356.626	227.19
356.853	232.19
357.08	276.19
357.307	279.19
357.534	213.19
357.761	225.19
357.988	252.19
358.215	268.19
358.441	263.19
358.668	257.19
358.895	227.19
359.122	191.19
359.349	189.19
359.576	218.19
359.802	199.19
360.029	142.19
360.256	174.19
360.483	204.19
360.709	239.19
360.936	251.19
361.163	223.19
361.39	190.19
361.616	167.19
361.843	196.19
362.07	224.19
362.296	204.19
362.523	175.19
362.749	168.19
362.976	167.19
363.203	186.19
363.429	194.19
363.656	166.19
363.882	163.19
364.109	173.19
364.335	166.19
364.562	172.19
364.788	185.19
365.015	198.19
365.241	195.19
365.468	155.19
365.694	153.19
365.92	151.19
366.147	140.19
366.373	142.19
366.599	128.19
366.826	135.19
367.052	154.19
367.278	156.19
367.505	152.19
367.731	151.19
367.957	154.19
368.184	165.19
368.41	164.19
368.636	173.19
368.862	178.19
369.089	164.19
369.315	181.19
369.541	172.19
369.767	168.19
369.993	152.19
370.219	166.19
370.445	172.19
370.672	176.19
370.898	156.19
371.124	187.19
371.35	142.19
371.576	157.19
371.802	173.19
372.028	173.19
372.254	191.19
372.48	176.19
372.706	168.19
372.932	174.19
373.158	168.19
373.384	207.19
373.61	275.19
373.835	234.19
374.061	208.19
374.287	194.19
374.513	192.19
374.739	232.19
374.965	250.19
375.191	232.19
375.416	190.19
375.642	196.19
375.868	183.19
376.094	195.19
376.319	188.19
376.545	186.19
376.771	221.19
376.997	189.19
377.222	152.19
377.448	143.19
377.674	148.19
377.899	132.19
378.125	136.19
378.35	134.19
378.576	142.19
378.802	143.19
379.027	144.19
379.253	162.19
379.478	165.19
379.704	172.19
379.929	174.19
380.155	163.19
380.38	164.19
380.606	171.19
380.831	189.19
381.057	166.19
381.282	161.19
381.507	179.19
381.733	213.19
381.958	227.19
382.184	236.19
382.409	242.19
382.634	244.19
382.86	260.19
383.085	207.19
383.31	178.19
383.535	208.19
383.761	197.19
383.986	194.19
384.211	225.19
384.436	206.19
384.662	174.19
384.887	186.19
385.112	179.19
385.337	169.19
385.562	162.19
385.787	184.19
386.013	203.19
386.238	194.19
386.463	169.19
386.688	157.19
386.913	154.19
387.138	146.19
387.363	166.19
387.588	173.19
387.813	179.19
388.038	170.19
388.263	171.19
388.488	157.19
388.713	191.19
388.938	193.19
389.163	184.19
389.387	174.19
389.612	162.19
389.837	159.19
390.062	163.19
390.287	170.19
390.512	170.19
390.736	169.19
390.961	149.19
391.186	165.19
391.411	162.19
391.636	160.19
391.86	174.19
392.085	172.19
392.31	170.19
392.534	159.19
392.759	144.19
392.984	165.19
393.208	162.19
393.433	155.19
393.658	142.19
393.882	150.19
394.107	144.19
394.331	127.19
394.556	154.19
394.78	146.19
395.005	153.19
395.229	158.19
395.454	155.19
395.678	156.19
395.903	172.19
396.127	154.19
396.352	127.19
396.576	180.19
396.801	171.19
397.025	187.19
397.249	189.19
397.474	172.19
397.698	154.19
397.922	188.19
398.147	143.19
398.371	161.19
398.595	164.19
398.82	172.19
399.044	179.19
399.268	175.19
399.492	167.19
399.717	189.19
399.941	190.19
400.165	181.19
400.389	171.19
400.613	165.19
400.837	187.19
401.062	162.19
401.286	152.19
401.51	162.19
401.734	141.19
401.958	152.19
402.182	158.19
402.406	152.19
402.63	157.19
402.854	171.19
403.078	198.19
403.302	223.19
403.526	219.19
403.75	216.19
403.974	175.19
404.198	206.19
404.422	207.19
404.645	212.19
404.869	235.19
405.093	175.19
405.317	166.19
405.541	164.19
405.765	181.19
405.988	182.19
406.212	164.19
406.436	195.19
406.66	221.19
406.883	191.19
407.107	187.19
407.331	201.19
407.555	211.19
407.778	178.19
408.002	192.19
408.226	183.19
408.449	186.19
408.673	184.19
408.896	160.19
409.12	164.19
409.344	165.19
409.567	157.19
409.791	140.19
410.014	126.19
410.238	145.19
410.461	146.19
410.685	158.19
410.908	159.19
411.132	166.19
411.355	182.19
411.578	172.19
411.802	168.19
412.025	168.19
412.249	176.19
412.472	155.19
412.695	166.19
412.919	167.19
413.142	171.19
413.365	188.19
413.589	180.19
413.812	166.19
414.035	174.19
414.258	171.19
414.482	184.19
414.705	186.19
414.928	163.19
415.151	150.19
415.374	148.19
415.597	171.19
415.821	151.19
416.044	156.19
416.267	156.19
416.49	152.19
416.713	154.19
416.936	152.19
417.159	152.19
417.382	167.19
417.605	170.19
417.828	150.19
418.051	172.19
418.274	163.19
418.497	182.19
418.72	164.19
418.943	166.19
419.166	169.19
419.389	170.19
419.611	167.19
419.834	170.19
420.057	210.19
420.28	188.19
420.503	175.19
420.726	156.19
420.948	168.19
421.171	165.19
421.394	158.19
421.617	143.19
421.839	154.19
422.062	167.19
422.285	164.19
422.507	157.19
422.73	169.19
422.953	175.19
423.175	165.19
423.398	163.19
423.621	183.19
423.843	194.19
424.066	182.19
424.288	160.19
424.511	156.19
424.733	170.19
424.956	186.19
425.178	194.19
425.401	200.19
425.623	225.19
425.846	186.19
426.068	170.19
426.291	183.19
426.513	184.19
426.735	184.19
426.958	176.19
427.18	189.19
427.402	241.19
427.625	247.19
427.847	216.19
428.069	169.19
428.292	178.19
428.514	154.19
428.736	162.19
428.958	166.19
429.181	201.19
429.403	178.19
429.625	160.19
429.847	165.19
430.069	160.19
430.292	166.19
430.514	168.19
430.736	170.19
430.958	189.19
431.18	195.19
431.402	148.19
431.624	145.19
431.846	162.19
432.068	144.19
432.29	167.19
432.512	170.19
432.734	188.19
432.956	196.19
433.178	158.19
433.4	162.19
433.622	164.19
433.844	183.19
434.066	181.19
434.287	194.19
434.509	176.19
434.731	180.19
434.953	176.19
435.175	158.19
435.397	183.19
435.618	164.19
435.84	154.19
436.062	139.19
436.284	142.19
436.505	163.19
436.727	141.19
436.949	146.19
437.17	151.19
437.392	161.19
437.614	157.19
437.835	152.19
438.057	151.19
438.278	155.19
438.5	220.19
438.721	221.19
438.943	180.19
439.165	155.19
439.386	141.19
439.608	165.19
439.829	146.19
440.05	148.19
440.272	162.19
440.493	169.19
440.715	212.19
440.936	186.19
441.158	146.19
441.379	164.19
441.6	178.19
441.822	189.19
442.043	161.19
442.264	156.19
442.486	169.19
442.707	156.19
442.928	173.19
443.149	166.19
443.371	171.19
443.592	171.19
443.813	172.19
444.034	152.19
444.255	161.19
444.476	165.19
444.698	155.19
444.919	174.19
445.14	319.19
445.361	244.19
445.582	164.19
445.803	179.19
446.024	172.19
446.245	172.19
446.466	171.19
446.687	174.19
446.908	170.19
447.129	162.19
447.35	170.19
447.571	155.19
447.792	154.19
448.013	148.19
448.234	151.19
448.455	140.19
448.675	158.19
448.896	162.19
449.117	165.19
449.338	152.19
449.559	151.19
449.779	156.19
450	182.19
450.221	153.19
450.442	143.19
450.662	148.19
450.883	148.19
451.104	164.19
451.324	157.19
451.545	153.19
451.766	135.19
451.986	148.19
452.207	160.19
452.428	162.19
452.648	144.19
452.869	150.19
453.089	157.19
453.31	169.19
453.53	144.19
453.751	151.19
453.971	154.19
454.192	149.19
454.412	155.19
454.633	145.19
454.853	156.19
455.073	148.19
455.294	140.19
455.514	146.19
455.734	159.19
455.955	154.19
456.175	143.19
456.395	145.19
456.616	130.19
456.836	131.19
457.056	156.19
457.276	130.19
457.497	139.19
457.717	157.19
457.937	148.19
458.157	144.19
458.377	163.19
458.598	155.19
458.818	156.19
459.038	166.19
459.258	160.19
459.478	168.19
459.698	172.19
459.918	158.19
460.138	169.19
460.358	171.19
460.578	160.19
460.798	165.19
461.018	155.19
461.238	140.19
461.458	152.19
461.678	158.19
461.898	180.19
462.118	171.19
462.338	178.19
462.558	170.19
462.777	176.19
462.997	194.19
463.217	165.19
463.437	188.19
463.657	174.19
463.876	181.19
464.096	168.19
464.316	178.19
464.536	167.19
464.755	192.19
464.975	188.19
465.195	170.19
465.414	190.19
465.634	175.19
465.854	163.19
466.073	146.19
466.293	151.19
466.512	181.19
466.732	180.19
466.951	197.19
467.171	164.19
467.391	158.19
467.61	158.19
467.829	165.19
468.049	175.19
468.268	170.19
468.488	153.19
468.707	178.19
468.927	176.19
469.146	202.19
469.365	180.19
469.585	172.19
469.804	175.19
470.023	186.19
470.243	156.19
470.462	176.19
470.681	184.19
470.901	175.19
471.12	183.19
471.339	159.19
471.558	171.19
471.777	185.19
471.997	189.19
472.216	203.19
472.435	190.19
472.654	186.19
472.873	171.19
473.092	184.19
473.311	180.19
473.53	159.19
473.749	180.19
473.968	192.19
474.187	173.19
474.406	173.19
474.625	170.19
474.844	172.19
475.063	179.19
475.282	184.19
475.501	203.19
475.72	211.19
475.939	191.19
476.158	199.19
476.377	236.19
476.596	254.19
476.814	259.19
477.033	228.19
477.252	182.19
477.471	189.19
477.69	192.19
477.908	199.19
478.127	195.19
478.346	206.19
478.564	221.19
478.783	202.19
479.002	202.19
479.22	205.19
479.439	223.19
479.658	197.19
479.876	191.19
480.095	184.19
480.313	206.19
480.532	188.19
480.751	185.19
480.969	186.19
481.188	214.19
481.406	205.19
481.624	205.19
481.843	179.19
482.061	182.19
482.28	212.19
482.498	271.19
482.717	250.19
482.935	197.19
483.153	205.19
483.372	196.19
483.59	183.19
483.808	173.19
484.027	190.19
484.245	182.19
484.463	166.19
484.681	179.19
484.9	186.19
485.118	191.19
485.336	183.19
485.554	173.19
485.772	197.19
485.99	217.19
486.209	215.19
486.427	207.19
486.645	200.19
486.863	202.19
487.081	217.19
487.299	228.19
487.517	238.19
487.735	198.19
487.953	205.19
488.171	219.19
488.389	197.19
488.607	190.19
488.825	193.19
489.043	210.19
489.261	254.19
489.479	252.19
489.696	199.19
489.914	199.19
490.132	189.19
490.35	176.19
490.568	198.19
490.786	184.19
491.003	195.19
491.221	190.19
491.439	191.19
491.657	192.19
491.874	207.19
492.092	242.19
492.31	284.19
492.527	275.19
492.745	218.19
492.963	223.19
493.18	225.19
493.398	212.19
493.615	215.19
493.833	204.19
494.05	205.19
494.268	212.19
494.485	221.19
494.703	200.19
494.92	206.19
495.138	195.19
495.355	201.19
495.573	207.19
495.79	224.19
496.008	295.19
496.225	238.19
496.442	215.19
496.66	211.19
496.877	219.19
497.094	214.19
497.312	228.19
497.529	212.19
497.746	228.19
497.963	194.19
498.181	219.19
498.398	231.19
498.615	261.19
498.832	259.19
499.049	261.19
499.267	256.19
499.484	256.19
499.701	235.19
499.918	265.19
500.135	281.19
500.352	287.19
500.569	306.19
500.786	308.19
501.003	295.19
501.22	283.19
501.437	264.19
501.654	242.19
501.871	234.19
502.088	242.19
502.305	231.19
502.522	238.19
502.739	233.19
502.956	235.19
503.172	219.19
503.389	219.19
503.606	206.19
503.823	196.19
504.04	223.19
504.256	215.19
504.473	208.19
504.69	221.19
504.907	220.19
505.123	215.19
505.34	236.19
505.557	231.19
505.773	221.19
505.99	216.19
506.207	216.19
506.423	200.19
506.64	204.19
506.856	209.19
507.073	234.19
507.289	234.19
507.506	224.19
507.722	228.19
507.939	233.19
508.155	232.19
508.372	221.19
508.588	221.19
508.805	204.19
509.021	203.19
509.238	199.19
509.454	193.19
509.67	182.19
509.887	194.19
510.103	218.19
510.319	218.19
510.536	206.19
510.752	186.19
510.968	197.19
511.184	182.19
511.401	158.19
511.617	176.19
511.833	177.19
512.049	172.19
512.265	195.19
512.481	203.19
512.698	225.19
512.914	224.19
513.13	210.19
513.346	190.19
513.562	207.19
513.778	194.19
513.994	204.19
514.21	228.19
514.426	212.19
514.642	213.19
514.858	194.19
515.074	200.19
515.29	211.19
515.506	233.19
515.721	230.19
515.937	223.19
516.153	214.19
516.369	203.19
516.585	241.19
516.801	238.19
517.016	271.19
517.232	255.19
517.448	273.19
517.664	230.19
517.879	229.19
518.095	213.19
518.311	210.19
518.527	223.19
518.742	221.19
518.958	249.19
519.173	238.19
519.389	248.19
519.605	238.19
519.82	256.19
520.036	267.19
520.251	271.19
520.467	292.19
520.682	410.19
520.898	484.19
521.113	463.19
521.329	292.19
521.544	246.19
521.76	253.19
521.975	253.19
522.19	224.19
522.406	222.19
522.621	234.19
522.836	246.19
523.052	250.19
523.267	231.19
523.482	226.19
523.698	237.19
523.913	234.19
524.128	219.19
524.343	201.19
524.559	208.19
524.774	189.19
524.989	212.19
525.204	220.19
525.419	228.19
525.634	220.19
525.849	227.19
526.064	238.19
526.28	236.19
526.495	257.19
526.71	264.19
526.925	242.19
527.14	251.19
527.355	252.19
527.57	215.19
527.785	222.19
527.999	214.19
528.214	197.19
528.429	203.19
528.644	188.19
528.859	201.19
529.074	180.19
529.289	186.19
529.503	177.19
529.718	198.19
529.933	224.19
530.148	238.19
530.363	197.19
530.577	212.19
530.792	207.19
531.007	177.19
531.221	201.19
531.436	197.19
531.651	196.19
531.865	173.19
532.08	194.19
532.295	201.19
532.509	201.19
532.724	214.19
532.938	246.19
533.153	289.19
533.367	220.19
533.582	214.19
533.796	202.19
534.011	192.19
534.225	204.19
534.44	203.19
534.654	197.19
534.868	236.19
535.083	224.19
535.297	203.19
535.511	201.19
535.726	215.19
535.94	186.19
536.154	195.19
536.369	203.19
536.583	179.19
536.797	196.19
537.011	186.19
537.225	202.19
537.44	233.19
537.654	198.19
537.868	204.19
538.082	189.19
538.296	191.19
538.51	200.19
538.724	206.19
538.938	181.19
539.153	165.19
539.367	178.19
539.581	190.19
539.795	205.19
540.009	221.19
540.222	198.19
540.436	201.19
540.65	205.19
540.864	221.19
541.078	215.19
541.292	278.19
541.506	208.19
541.72	214.19
541.934	189.19
542.147	191.19
542.361	204.19
542.575	203.19
542.789	191.19
543.002	177.19
543.216	213.19
543.43	192.19
543.644	162.19
543.857	176.19
544.071	189.19
544.285	178.19
544.498	163.19
544.712	164.19
544.925	185.19
545.139	177.19
545.352	179.19
545.566	171.19
545.779	185.19
545.993	188.19
546.206	175.19
546.42	181.19
546.633	174.19
546.847	172.19
547.06	169.19
547.274	158.19
547.487	171.19
547.7	175.19
547.914	190.19
548.127	198.19
548.34	185.19
548.554	188.19
548.767	190.19
548.98	200.19
549.193	180.19
549.407	195.19
549.62	218.19
549.833	201.19
550.046	198.19
550.259	208.19
550.473	194.19
550.686	184.19
550.899	182.19
551.112	186.19
551.325	197.19
551.538	192.19
551.751	183.19
551.964	201.19
552.177	178.19
552.39	168.19
552.603	169.19
552.816	185.19
553.029	182.19
553.242	170.19
553.455	178.19
553.667	183.19
553.88	196.19
554.093	175.19
554.306	163.19
554.519	163.19
554.732	159.19
554.944	143.19
555.157	178.19
555.37	160.19
555.583	148.19
555.795	183.19
556.008	161.19
556.221	158.19
556.433	163.19
556.646	162.19
556.859	151.19
557.071	178.19
557.284	166.19
557.496	174.19
557.709	183.19
557.921	155.19
558.134	157.19
558.346	156.19
558.559	142.19
558.771	153.19
558.984	182.19
559.196	173.19
559.409	146.19
559.621	158.19
559.833	165.19
560.046	154.19
560.258	158.19
560.47	171.19
560.683	149.19
560.895	140.19
561.107	150.19
561.32	156.19
561.532	148.19
561.744	164.19
561.956	176.19
562.168	153.19
562.381	162.19
562.593	162.19
562.805	150.19
563.017	147.19
563.229	153.19
563.441	151.19
563.653	165.19
563.865	154.19
564.077	143.19
564.289	156.19
564.501	154.19
564.713	155.19
564.925	156.19
565.137	151.19
565.349	151.19
565.561	165.19
565.773	148.19
565.985	156.19
566.197	175.19
566.408	164.19
566.62	173.19
566.832	166.19
567.044	152.19
567.255	184.19
567.467	200.19
567.679	172.19
567.891	158.19
568.102	195.19
568.314	178.19
568.526	174.19
568.737	168.19
568.949	172.19
569.161	154.19
569.372	158.19
569.584	163.19
569.795	143.19
570.007	154.19
570.218	156.19
570.43	150.19
570.641	149.19
570.853	163.19
571.064	156.19
571.276	143.19
571.487	165.19
571.698	158.19
571.91	155.19
572.121	158.19
572.333	155.19
572.544	132.19
572.755	145.19
572.966	138.19
573.178	136.19
573.389	137.19
573.6	143.19
573.811	146.19
574.023	136.19
574.234	130.19
574.445	133.19
574.656	140.19
574.867	146.19
575.078	140.19
575.289	143.19
575.501	151.19
575.712	129.19
575.923	126.19
576.134	152.19
576.345	134.19
576.556	138.19
576.767	132.19
576.978	130.19
577.188	122.19
577.399	131.19
577.61	136.19
577.821	140.19
578.032	138.19
578.243	150.19
578.454	140.19
578.665	150.19
578.875	152.19
579.086	145.19
579.297	145.19
579.508	158.19
579.718	158.19
579.929	140.19
580.14	143.19
580.35	143.19
580.561	130.19
580.772	142.19
580.982	124.19
581.193	138.19
581.403	120.19
581.614	118.19
581.825	109.19
582.035	121.19
582.246	130.19
582.456	132.19
582.667	124.19
582.877	143.19
583.087	130.19
583.298	128.19
583.508	128.19
583.719	130.19
583.929	136.19
584.139	112.19
584.35	123.19
584.56	122.19
584.77	134.19
584.981	140.19
585.191	122.19
585.401	123.19
585.611	130.19
585.821	150.19
586.032	145.19
586.242	138.19
586.452	135.19
586.662	128.19
586.872	112.19
587.082	126.19
587.292	127.19
587.502	134.19
587.713	132.19
587.923	135.19
588.133	131.19
588.343	125.19
588.553	114.19
588.762	142.19
588.972	124.19
589.182	125.19
589.392	112.19
589.602	138.19
589.812	135.19
590.022	140.19
590.232	136.19
590.441	114.19
590.651	119.19
590.861	129.19
591.071	130.19
591.281	131.19
591.49	119.19
591.7	119.19
591.91	141.19
592.119	129.19
592.329	139.19
592.539	140.19
592.748	124.19
592.958	136.19
593.167	123.19
593.377	134.19
593.587	134.19
593.796	124.19
594.006	127.19
594.215	140.19
594.424	126.19
594.634	122.19
594.843	137.19
595.053	120.19
595.262	119.19
595.472	141.19
595.681	133.19
595.89	102.19
596.1	134.19
596.309	126.19
596.518	128.19
596.727	121.19
596.937	114.19
597.146	114.19
597.355	127.19
597.564	122.19
597.774	125.19
597.983	117.19
598.192	123.19
598.401	132.19
598.61	121.19
598.819	125.19
599.028	123.19
599.237	134.19
599.446	118.19
599.655	121.19
599.864	121.19
600.073	126.19
600.282	123.19
600.491	116.19
600.7	125.19
600.909	123.19
601.118	126.19
601.327	123.19
601.536	132.19
601.745	131.19
601.953	122.19
602.162	125.19
602.371	126.19
602.58	123.19
602.789	124.19
602.997	115.19
603.206	116.19
603.415	122.19
603.623	120.19
603.832	123.19
604.041	123.19
604.249	104.19
604.458	130.19
604.666	122.19
604.875	102.19
605.084	121.19
605.292	107.19
605.501	125.19
605.709	112.19
605.918	101.19
606.126	111.19
606.334	115.19
606.543	127.19
606.751	111.19
606.96	120.19
607.168	112.19
607.376	118.19
607.585	116.19
607.793	111.19
608.001	124.19
608.21	120.19
608.418	123.19
608.626	124.19
608.834	117.19
609.043	110.19
609.251	106.19
609.459	108.19
609.667	119.19
609.875	106.19
610.083	123.19
610.291	101.19
610.499	119.19
610.707	117.19
610.916	112.19
611.124	108.19
611.332	119.19
611.54	114.19
611.748	117.19
611.955	124.19
612.163	107.19
612.371	115.19
612.579	97.19
612.787	109.19
612.995	100.19
613.203	122.19
613.411	107.19
613.618	123.19
613.826	116.19
614.034	108.19
614.242	121.19
614.449	125.19
614.657	121.19
614.865	121.19
615.072	111.19
615.28	100.19
615.488	123.19
615.695	101.19
615.903	114.19
616.111	108.19
616.318	109.19
616.526	123.19
616.733	122.19
616.941	120.19
617.148	96.19
617.356	105.19
617.563	116.19
617.771	107.19
617.978	103.19
618.185	100.19
618.393	105.19
618.6	120.19
618.807	117.19
619.015	115.19
619.222	112.19
619.429	105.19
619.637	115.19
619.844	107.19
620.051	112.19
620.258	98.19
620.466	101.19
620.673	118.19
620.88	96.19
621.087	104.19
621.294	107.19
621.501	107.19
621.708	94.19
621.915	106.19
622.122	101.19
622.329	117.19
622.536	119.19
622.743	99.19
622.95	117.19
623.157	107.19
623.364	122.19
623.571	100.19
623.778	101.19
623.985	106.19
624.192	111.19
624.399	103.19
624.606	94.19
624.812	97.19
625.019	106.19
625.226	126.19
625.433	119.19
625.639	105.19
625.846	109.19
626.053	109.19
626.259	102.19
626.466	110.19
626.673	125.19
626.879	116.19
627.086	120.19
627.293	107.19
627.499	103.19
627.706	107.19
627.912	96.19
628.119	110.19
628.325	115.19
628.532	106.19
628.738	96.19
628.945	99.19
629.151	116.19
629.357	100.19
629.564	128.19
629.77	123.19
629.976	103.19
630.183	109.19
630.389	112.19
630.595	118.19
630.802	91.19
631.008	98.19
631.214	104.19
631.42	101.19
631.627	115.19
631.833	100.19
632.039	100.19
632.245	109.19
632.451	109.19
632.657	106.19
632.863	97.19
633.069	104.19
633.275	94.19
633.481	99.19
633.688	108.19
633.893	99.19
634.099	104.19
634.305	105.19
634.511	97.19
634.717	124.19
634.923	104.19
635.129	106.19
635.335	94.19
635.541	92.19
635.747	106.19
635.952	111.19
636.158	115.19
636.364	106.19
636.57	98.19
636.775	105.19
636.981	87.19
637.187	101.19
637.392	94.19
637.598	105.19
637.804	112.19
638.009	110.19
638.215	109.19
638.421	98.19
638.626	109.19
638.832	111.19
639.037	93.19
639.243	90.19
639.448	96.19
639.654	114.19
639.859	112.19
640.065	120.19
640.27	105.19
640.475	103.19
640.681	92.19
640.886	84.19
641.091	101.19
641.297	86.19
641.502	108.19
641.707	103.19
641.913	99.19
642.118	102.19
642.323	97.19
642.528	106.19
642.733	107.19
642.939	104.19
643.144	109.19
643.349	94.19
643.554	94.19
643.759	97.19
643.964	90.19
644.169	92.19
644.374	90.19
644.579	96.19
644.784	104.19
644.989	92.19
645.194	101.19
645.399	95.19
645.604	99.19
645.809	96.19
646.014	95.19
646.219	85.19
646.423	107.19
646.628	90.19
646.833	95.19
647.038	95.19
647.243	98.19
647.447	99.19
647.652	100.19
647.857	102.19
648.062	105.19
648.266	108.19
648.471	99.19
648.676	99.19
648.88	98.19
649.085	96.19
649.289	89.19
649.494	87.19
649.698	104.19
649.903	111.19
650.107	107.19
650.312	120.19
650.516	95.19
650.721	101.19
650.925	87.19
651.13	84.19
651.334	99.19
651.539	110.19
651.743	92.19
651.947	93.19
652.152	90.19
652.356	92.19
652.56	96.19
652.764	101.19
652.969	107.19
653.173	90.19
653.377	95.19
653.581	101.19
653.785	103.19
653.99	95.19
654.194	100.19
654.398	100.19
654.602	107.19
654.806	90.19
655.01	89.19
655.214	85.19
655.418	96.19
655.622	102.19
655.826	96.19
656.03	78.19
656.234	81.19
656.438	89.19
656.642	99.19
656.846	72.19
657.049	91.19
657.253	103.19
657.457	91.19
657.661	89.19
657.865	90.19
658.068	93.19
658.272	98.19
658.476	85.19
658.68	82.19
658.883	77.19
659.087	83.19
659.291	81.19
659.494	86.19
659.698	90.19
659.901	97.19
660.105	76.19
660.309	91.19
660.512	77.19
660.716	85.19
660.919	72.19
661.123	90.19
661.326	97.19
661.53	92.19
661.733	90.19
661.936	90.19
662.14	93.19
662.343	91.19
662.546	83.19
662.75	77.19
662.953	83.19
663.156	83.19
663.36	79.19
663.563	84.19
663.766	78.19
663.969	94.19
664.173	87.19
664.376	99.19
664.579	95.19
664.782	79.19
664.985	85.19
665.188	91.19
665.391	93.19
665.594	77.19
665.797	82.19
666	85.19
666.203	81.19
666.406	82.19
666.609	79.19
666.812	85.19
667.015	102.19
667.218	83.19
667.421	93.19
667.624	82.19
667.827	82.19
668.03	68.19
668.232	78.19
668.435	74.19
668.638	78.19
668.841	87.19
669.043	83.19
669.246	82.19
669.449	91.19
669.651	77.19
669.854	90.19
670.057	83.19
670.259	83.19
670.462	91.19
670.665	81.19
670.867	78.19
671.07	83.19
671.272	86.19
671.475	89.19
671.677	80.19
671.88	87.19
672.082	85.19
672.284	90.19
672.487	81.19
672.689	96.19
672.892	83.19
