Data from NickelSpatula.Lamp.E5.5.P2_HRD10591_11-52-16-555.txt Node
Date: Tue Jul 23 11:52:16 EDT 2019
User: cochatt
Spectrometer: HR+D1059
Trigger mode: 1
Integration Time (sec): 1.000000E-1
Scans to average: 1
Electric dark correction enabled: true
Nonlinearity correction enabled: false
Boxcar width: 0
XAxis mode: Wavelengths
Number of Pixels in Spectrum: 2048
>>>>>Begin Spectral Data<<<<<
223.165	-6.81
223.4	-6.81
223.635	-6.81
223.869	-5.81
224.104	-16.81
224.338	-15.81
224.573	-17.81
224.808	-7.81
225.042	-15.81
225.277	-2.81
225.511	-0.81
225.746	8.19
225.98	-9.81
226.215	-1.81
226.449	17.19
226.683	13.19
226.918	32.19
227.152	31.19
227.387	38.19
227.621	35.19
227.856	34.19
228.09	58.19
228.324	47.19
228.559	64.19
228.793	68.19
229.027	62.19
229.262	78.19
229.496	75.19
229.73	81.19
229.964	88.19
230.199	93.19
230.433	86.19
230.667	99.19
230.901	86.19
231.136	102.19
231.37	104.19
231.604	101.19
231.838	99.19
232.072	94.19
232.306	111.19
232.541	88.19
232.775	102.19
233.009	102.19
233.243	121.19
233.477	116.19
233.711	115.19
233.945	121.19
234.179	113.19
234.413	124.19
234.647	122.19
234.881	142.19
235.115	119.19
235.349	132.19
235.583	109.19
235.817	106.19
236.051	127.19
236.285	122.19
236.519	146.19
236.753	123.19
236.987	142.19
237.221	125.19
237.455	113.19
237.689	129.19
237.922	123.19
238.156	127.19
238.39	142.19
238.624	160.19
238.858	150.19
239.091	130.19
239.325	138.19
239.559	133.19
239.793	130.19
240.027	162.19
240.26	143.19
240.494	147.19
240.728	141.19
240.961	173.19
241.195	154.19
241.429	158.19
241.662	159.19
241.896	136.19
242.13	132.19
242.363	121.19
242.597	131.19
242.83	145.19
243.064	143.19
243.298	144.19
243.531	145.19
243.765	159.19
243.998	144.19
244.232	152.19
244.465	146.19
244.699	146.19
244.932	155.19
245.166	154.19
245.399	144.19
245.633	133.19
245.866	154.19
246.099	160.19
246.333	161.19
246.566	172.19
246.8	179.19
247.033	177.19
247.266	168.19
247.5	159.19
247.733	159.19
247.966	148.19
248.2	167.19
248.433	193.19
248.666	178.19
248.899	185.19
249.133	179.19
249.366	198.19
249.599	203.19
249.832	215.19
250.066	173.19
250.299	181.19
250.532	175.19
250.765	176.19
250.998	158.19
251.231	162.19
251.465	177.19
251.698	179.19
251.931	177.19
252.164	181.19
252.397	200.19
252.63	210.19
252.863	228.19
253.096	225.19
253.329	229.19
253.562	220.19
253.795	259.19
254.028	252.19
254.261	275.19
254.494	255.19
254.727	237.19
254.96	243.19
255.193	219.19
255.426	230.19
255.659	196.19
255.892	180.19
256.124	193.19
256.357	223.19
256.59	235.19
256.823	241.19
257.056	219.19
257.289	210.19
257.521	232.19
257.754	239.19
257.987	281.19
258.22	250.19
258.452	206.19
258.685	226.19
258.918	262.19
259.151	257.19
259.383	258.19
259.616	281.19
259.849	294.19
260.081	321.19
260.314	360.19
260.547	283.19
260.779	299.19
261.012	329.19
261.244	320.19
261.477	315.19
261.71	310.19
261.942	264.19
262.175	257.19
262.407	255.19
262.64	249.19
262.872	317.19
263.105	319.19
263.337	319.19
263.57	303.19
263.802	229.19
264.035	217.19
264.267	213.19
264.499	183.19
264.732	182.19
264.964	166.19
265.197	160.19
265.429	186.19
265.661	203.19
265.894	201.19
266.126	213.19
266.358	217.19
266.591	251.19
266.823	296.19
267.055	276.19
267.287	263.19
267.52	251.19
267.752	277.19
267.984	297.19
268.216	292.19
268.448	225.19
268.681	255.19
268.913	250.19
269.145	278.19
269.377	267.19
269.609	255.19
269.841	249.19
270.073	263.19
270.306	283.19
270.538	279.19
270.77	266.19
271.002	285.19
271.234	287.19
271.466	318.19
271.698	287.19
271.93	283.19
272.162	287.19
272.394	284.19
272.626	285.19
272.858	283.19
273.09	276.19
273.322	269.19
273.553	250.19
273.785	271.19
274.017	345.19
274.249	421.19
274.481	446.19
274.713	474.19
274.945	520.19
275.176	540.19
275.408	501.19
275.64	452.19
275.872	447.19
276.104	417.19
276.335	354.19
276.567	351.19
276.799	381.19
277.031	397.19
277.262	314.19
277.494	255.19
277.726	231.19
277.957	267.19
278.189	286.19
278.421	302.19
278.652	298.19
278.884	299.19
279.115	254.19
279.347	253.19
279.579	262.19
279.81	253.19
280.042	257.19
280.273	281.19
280.505	246.19
280.736	217.19
280.968	236.19
281.199	246.19
281.431	267.19
281.662	258.19
281.894	247.19
282.125	253.19
282.356	275.19
282.588	285.19
282.819	251.19
283.051	291.19
283.282	309.19
283.513	359.19
283.745	395.19
283.976	401.19
284.207	367.19
284.439	385.19
284.67	368.19
284.901	338.19
285.132	349.19
285.364	369.19
285.595	348.19
285.826	362.19
286.057	369.19
286.288	369.19
286.52	384.19
286.751	393.19
286.982	397.19
287.213	329.19
287.444	327.19
287.675	351.19
287.906	373.19
288.138	315.19
288.369	297.19
288.6	248.19
288.831	291.19
289.062	305.19
289.293	336.19
289.524	304.19
289.755	337.19
289.986	313.19
290.217	320.19
290.448	229.19
290.679	214.19
290.91	217.19
291.141	216.19
291.371	227.19
291.602	218.19
291.833	207.19
292.064	247.19
292.295	261.19
292.526	274.19
292.757	287.19
292.987	279.19
293.218	282.19
293.449	309.19
293.68	339.19
293.91	320.19
294.141	369.19
294.372	317.19
294.603	298.19
294.833	310.19
295.064	359.19
295.295	383.19
295.525	297.19
295.756	259.19
295.987	229.19
296.217	212.19
296.448	234.19
296.679	232.19
296.909	263.19
297.14	274.19
297.37	289.19
297.601	277.19
297.831	241.19
298.062	248.19
298.292	283.19
298.523	304.19
298.753	337.19
298.984	305.19
299.214	275.19
299.445	229.19
299.675	232.19
299.905	231.19
300.136	235.19
300.366	250.19
300.597	243.19
300.827	218.19
301.057	219.19
301.288	224.19
301.518	237.19
301.748	270.19
301.979	292.19
302.209	304.19
302.439	295.19
302.669	273.19
302.9	258.19
303.13	237.19
303.36	260.19
303.59	237.19
303.82	250.19
304.051	253.19
304.281	267.19
304.511	286.19
304.741	261.19
304.971	267.19
305.201	258.19
305.431	254.19
305.661	230.19
305.891	225.19
306.121	213.19
306.352	213.19
306.582	224.19
306.812	208.19
307.042	203.19
307.272	212.19
307.502	197.19
307.731	201.19
307.961	200.19
308.191	189.19
308.421	199.19
308.651	195.19
308.881	186.19
309.111	206.19
309.341	204.19
309.571	221.19
309.8	203.19
310.03	210.19
310.26	212.19
310.49	211.19
310.72	210.19
310.949	201.19
311.179	213.19
311.409	218.19
311.639	255.19
311.868	277.19
312.098	345.19
312.328	368.19
312.557	353.19
312.787	360.19
313.017	329.19
313.246	338.19
313.476	345.19
313.706	319.19
313.935	280.19
314.165	239.19
314.394	223.19
314.624	208.19
314.853	223.19
315.083	216.19
315.312	209.19
315.542	229.19
315.771	211.19
316.001	207.19
316.23	201.19
316.46	191.19
316.689	193.19
316.919	199.19
317.148	202.19
317.377	189.19
317.607	200.19
317.836	206.19
318.065	234.19
318.295	237.19
318.524	241.19
318.753	202.19
318.983	210.19
319.212	203.19
319.441	211.19
319.67	216.19
319.9	233.19
320.129	245.19
320.358	220.19
320.587	219.19
320.816	215.19
321.046	222.19
321.275	265.19
321.504	232.19
321.733	263.19
321.962	265.19
322.191	234.19
322.42	210.19
322.649	224.19
322.878	227.19
323.108	243.19
323.337	226.19
323.566	234.19
323.795	242.19
324.024	224.19
324.253	206.19
324.482	222.19
324.71	230.19
324.939	256.19
325.168	249.19
325.397	211.19
325.626	207.19
325.855	202.19
326.084	227.19
326.313	204.19
326.542	225.19
326.77	200.19
326.999	198.19
327.228	216.19
327.457	232.19
327.686	213.19
327.914	200.19
328.143	200.19
328.372	193.19
328.6	183.19
328.829	217.19
329.058	198.19
329.287	201.19
329.515	196.19
329.744	209.19
329.972	198.19
330.201	205.19
330.43	219.19
330.658	210.19
330.887	226.19
331.115	231.19
331.344	224.19
331.572	224.19
331.801	197.19
332.03	197.19
332.258	224.19
332.486	221.19
332.715	234.19
332.943	222.19
333.172	226.19
333.4	205.19
333.629	222.19
333.857	258.19
334.085	259.19
334.314	257.19
334.542	262.19
334.771	239.19
334.999	219.19
335.227	212.19
335.455	225.19
335.684	227.19
335.912	262.19
336.14	279.19
336.369	258.19
336.597	259.19
336.825	278.19
337.053	303.19
337.281	280.19
337.51	232.19
337.738	229.19
337.966	229.19
338.194	242.19
338.422	237.19
338.65	226.19
338.878	214.19
339.106	220.19
339.334	238.19
339.562	234.19
339.79	207.19
340.018	198.19
340.246	227.19
340.474	254.19
340.702	254.19
340.93	252.19
341.158	269.19
341.386	243.19
341.614	226.19
341.842	245.19
342.07	243.19
342.298	251.19
342.526	273.19
342.754	259.19
342.981	239.19
343.209	220.19
343.437	235.19
343.665	274.19
343.893	276.19
344.12	303.19
344.348	349.19
344.576	296.19
344.804	266.19
345.031	244.19
345.259	229.19
345.487	210.19
345.714	212.19
345.942	250.19
346.17	255.19
346.397	241.19
346.625	241.19
346.853	214.19
347.08	219.19
347.308	203.19
347.535	259.19
347.763	263.19
347.99	238.19
348.218	210.19
348.445	234.19
348.673	237.19
348.9	220.19
349.128	232.19
349.355	242.19
349.583	243.19
349.81	207.19
350.037	222.19
350.265	217.19
350.492	205.19
350.72	222.19
350.947	207.19
351.174	202.19
351.402	207.19
351.629	211.19
351.856	233.19
352.083	197.19
352.311	232.19
352.538	242.19
352.765	251.19
352.992	243.19
353.22	223.19
353.447	219.19
353.674	207.19
353.901	225.19
354.128	203.19
354.355	210.19
354.583	218.19
354.81	229.19
355.037	242.19
355.264	224.19
355.491	227.19
355.718	256.19
355.945	247.19
356.172	231.19
356.399	224.19
356.626	265.19
356.853	324.19
357.08	329.19
357.307	331.19
357.534	278.19
357.761	298.19
357.988	377.19
358.215	427.19
358.441	378.19
358.668	327.19
358.895	296.19
359.122	268.19
359.349	284.19
359.576	326.19
359.802	255.19
360.029	236.19
360.256	251.19
360.483	274.19
360.709	318.19
360.936	327.19
361.163	326.19
361.39	256.19
361.616	222.19
361.843	260.19
362.07	294.19
362.296	287.19
362.523	237.19
362.749	212.19
362.976	237.19
363.203	253.19
363.429	260.19
363.656	231.19
363.882	218.19
364.109	222.19
364.335	202.19
364.562	216.19
364.788	233.19
365.015	264.19
365.241	255.19
365.468	234.19
365.694	205.19
365.92	203.19
366.147	191.19
366.373	178.19
366.599	183.19
366.826	209.19
367.052	183.19
367.278	189.19
367.505	189.19
367.731	220.19
367.957	231.19
368.184	224.19
368.41	210.19
368.636	221.19
368.862	224.19
369.089	213.19
369.315	196.19
369.541	191.19
369.767	204.19
369.993	213.19
370.219	205.19
370.445	203.19
370.672	221.19
370.898	248.19
371.124	236.19
371.35	211.19
371.576	222.19
371.802	214.19
372.028	278.19
372.254	295.19
372.48	263.19
372.706	235.19
372.932	228.19
373.158	247.19
373.384	275.19
373.61	354.19
373.835	379.19
374.061	329.19
374.287	255.19
374.513	298.19
374.739	345.19
374.965	360.19
375.191	349.19
375.416	265.19
375.642	247.19
375.868	274.19
376.094	290.19
376.319	274.19
376.545	267.19
376.771	282.19
376.997	259.19
377.222	214.19
377.448	201.19
377.674	187.19
377.899	194.19
378.125	202.19
378.35	200.19
378.576	191.19
378.802	210.19
379.027	221.19
379.253	216.19
379.478	216.19
379.704	246.19
379.929	244.19
380.155	261.19
380.38	219.19
380.606	227.19
380.831	248.19
381.057	265.19
381.282	223.19
381.507	253.19
381.733	282.19
381.958	311.19
382.184	332.19
382.409	359.19
382.634	336.19
382.86	352.19
383.085	306.19
383.31	262.19
383.535	265.19
383.761	282.19
383.986	268.19
384.211	280.19
384.436	307.19
384.662	235.19
384.887	226.19
385.112	234.19
385.337	246.19
385.562	242.19
385.787	253.19
386.013	297.19
386.238	266.19
386.463	240.19
386.688	226.19
386.913	236.19
387.138	207.19
387.363	225.19
387.588	236.19
387.813	253.19
388.038	261.19
388.263	223.19
388.488	250.19
388.713	262.19
388.938	258.19
389.163	241.19
389.387	211.19
389.612	215.19
389.837	218.19
390.062	206.19
390.287	217.19
390.512	243.19
390.736	217.19
390.961	206.19
391.186	203.19
391.411	214.19
391.636	206.19
391.86	226.19
392.085	257.19
392.31	256.19
392.534	241.19
392.759	245.19
392.984	237.19
393.208	240.19
393.433	211.19
393.658	198.19
393.882	231.19
394.107	203.19
394.331	213.19
394.556	204.19
394.78	201.19
395.005	193.19
395.229	195.19
395.454	210.19
395.678	223.19
395.903	224.19
396.127	232.19
396.352	222.19
396.576	228.19
396.801	239.19
397.025	268.19
397.249	259.19
397.474	224.19
397.698	209.19
397.922	243.19
398.147	218.19
398.371	233.19
398.595	247.19
398.82	223.19
399.044	224.19
399.268	258.19
399.492	293.19
399.717	291.19
399.941	298.19
400.165	280.19
400.389	257.19
400.613	237.19
400.837	235.19
401.062	231.19
401.286	233.19
401.51	224.19
401.734	231.19
401.958	243.19
402.182	258.19
402.406	238.19
402.63	243.19
402.854	265.19
403.078	281.19
403.302	376.19
403.526	385.19
403.75	322.19
403.974	274.19
404.198	282.19
404.422	315.19
404.645	333.19
404.869	340.19
405.093	282.19
405.317	255.19
405.541	246.19
405.765	279.19
405.988	244.19
406.212	256.19
406.436	295.19
406.66	319.19
406.883	291.19
407.107	272.19
407.331	296.19
407.555	298.19
407.778	283.19
408.002	280.19
408.226	269.19
408.449	275.19
408.673	261.19
408.896	250.19
409.12	247.19
409.344	244.19
409.567	257.19
409.791	242.19
410.014	242.19
410.238	227.19
410.461	232.19
410.685	255.19
410.908	228.19
411.132	239.19
411.355	234.19
411.578	230.19
411.802	248.19
412.025	237.19
412.249	241.19
412.472	242.19
412.695	221.19
412.919	238.19
413.142	249.19
413.365	249.19
413.589	254.19
413.812	227.19
414.035	226.19
414.258	230.19
414.482	246.19
414.705	246.19
414.928	234.19
415.151	217.19
415.374	231.19
415.597	229.19
415.821	227.19
416.044	200.19
416.267	221.19
416.49	211.19
416.713	220.19
416.936	206.19
417.159	224.19
417.382	240.19
417.605	228.19
417.828	242.19
418.051	228.19
418.274	249.19
418.497	234.19
418.72	226.19
418.943	243.19
419.166	227.19
419.389	265.19
419.611	248.19
419.834	265.19
420.057	270.19
420.28	259.19
420.503	239.19
420.726	245.19
420.948	213.19
421.171	222.19
421.394	221.19
421.617	233.19
421.839	228.19
422.062	232.19
422.285	237.19
422.507	218.19
422.73	232.19
422.953	249.19
423.175	245.19
423.398	250.19
423.621	262.19
423.843	264.19
424.066	252.19
424.288	248.19
424.511	224.19
424.733	244.19
424.956	237.19
425.178	244.19
425.401	305.19
425.623	365.19
425.846	294.19
426.068	229.19
426.291	259.19
426.513	241.19
426.735	231.19
426.958	245.19
427.18	263.19
427.402	311.19
427.625	376.19
427.847	309.19
428.069	239.19
428.292	245.19
428.514	233.19
428.736	208.19
428.958	270.19
429.181	321.19
429.403	261.19
429.625	237.19
429.847	218.19
430.069	225.19
430.292	238.19
430.514	236.19
430.736	228.19
430.958	286.19
431.18	258.19
431.402	223.19
431.624	204.19
431.846	216.19
432.068	222.19
432.29	222.19
432.512	227.19
432.734	249.19
432.956	273.19
433.178	237.19
433.4	220.19
433.622	225.19
433.844	217.19
434.066	240.19
434.287	245.19
434.509	233.19
434.731	257.19
434.953	248.19
435.175	252.19
435.397	279.19
435.618	231.19
435.84	213.19
436.062	230.19
436.284	240.19
436.505	201.19
436.727	202.19
436.949	212.19
437.17	216.19
437.392	225.19
437.614	228.19
437.835	213.19
438.057	207.19
438.278	243.19
438.5	305.19
438.721	314.19
438.943	240.19
439.165	216.19
439.386	205.19
439.608	216.19
439.829	203.19
440.05	213.19
440.272	210.19
440.493	267.19
440.715	281.19
440.936	236.19
441.158	221.19
441.379	219.19
441.6	243.19
441.822	251.19
442.043	257.19
442.264	236.19
442.486	228.19
442.707	198.19
442.928	222.19
443.149	229.19
443.371	253.19
443.592	243.19
443.813	244.19
444.034	242.19
444.255	227.19
444.476	246.19
444.698	247.19
444.919	259.19
445.14	359.19
445.361	302.19
445.582	256.19
445.803	243.19
446.024	227.19
446.245	260.19
446.466	238.19
446.687	217.19
446.908	228.19
447.129	214.19
447.35	208.19
447.571	201.19
447.792	201.19
448.013	196.19
448.234	197.19
448.455	210.19
448.675	216.19
448.896	207.19
449.117	212.19
449.338	211.19
449.559	201.19
449.779	229.19
450	220.19
450.221	216.19
450.442	221.19
450.662	199.19
450.883	212.19
451.104	198.19
451.324	225.19
451.545	215.19
451.766	209.19
451.986	199.19
452.207	198.19
452.428	200.19
452.648	212.19
452.869	212.19
453.089	214.19
453.31	226.19
453.53	193.19
453.751	211.19
453.971	215.19
454.192	209.19
454.412	206.19
454.633	217.19
454.853	200.19
455.073	198.19
455.294	193.19
455.514	205.19
455.734	198.19
455.955	194.19
456.175	212.19
456.395	209.19
456.616	200.19
456.836	195.19
457.056	191.19
457.276	188.19
457.497	184.19
457.717	179.19
457.937	181.19
458.157	183.19
458.377	190.19
458.598	209.19
458.818	204.19
459.038	210.19
459.258	209.19
459.478	206.19
459.698	234.19
459.918	254.19
460.138	221.19
460.358	255.19
460.578	244.19
460.798	240.19
461.018	234.19
461.238	228.19
461.458	222.19
461.678	221.19
461.898	230.19
462.118	239.19
462.338	259.19
462.558	273.19
462.777	262.19
462.997	299.19
463.217	274.19
463.437	287.19
463.657	259.19
463.876	274.19
464.096	266.19
464.316	257.19
464.536	282.19
464.755	286.19
464.975	272.19
465.195	261.19
465.414	277.19
465.634	242.19
465.854	233.19
466.073	234.19
466.293	237.19
466.512	225.19
466.732	258.19
466.951	269.19
467.171	246.19
467.391	205.19
467.61	232.19
467.829	235.19
468.049	225.19
468.268	216.19
468.488	211.19
468.707	215.19
468.927	239.19
469.146	270.19
469.365	243.19
469.585	244.19
469.804	249.19
470.023	273.19
470.243	240.19
470.462	237.19
470.681	234.19
470.901	240.19
471.12	248.19
471.339	247.19
471.558	230.19
471.777	222.19
471.997	226.19
472.216	253.19
472.435	232.19
472.654	230.19
472.873	256.19
473.092	237.19
473.311	255.19
473.53	224.19
473.749	223.19
473.968	246.19
474.187	237.19
474.406	219.19
474.625	227.19
474.844	233.19
475.063	237.19
475.282	245.19
475.501	243.19
475.72	270.19
475.939	268.19
476.158	267.19
476.377	279.19
476.596	321.19
476.814	336.19
477.033	287.19
477.252	249.19
477.471	231.19
477.69	252.19
477.908	282.19
478.127	283.19
478.346	257.19
478.564	291.19
478.783	272.19
479.002	249.19
479.22	281.19
479.439	298.19
479.658	273.19
479.876	249.19
480.095	287.19
480.313	299.19
480.532	275.19
480.751	262.19
480.969	274.19
481.188	299.19
481.406	285.19
481.624	272.19
481.843	264.19
482.061	248.19
482.28	267.19
482.498	330.19
482.717	332.19
482.935	280.19
483.153	266.19
483.372	244.19
483.59	234.19
483.808	253.19
484.027	253.19
484.245	231.19
484.463	232.19
484.681	246.19
484.9	258.19
485.118	267.19
485.336	253.19
485.554	245.19
485.772	268.19
485.99	291.19
486.209	271.19
486.427	282.19
486.645	270.19
486.863	293.19
487.081	286.19
487.299	287.19
487.517	287.19
487.735	267.19
487.953	282.19
488.171	278.19
488.389	275.19
488.607	253.19
488.825	264.19
489.043	280.19
489.261	295.19
489.479	316.19
489.696	287.19
489.914	280.19
490.132	227.19
490.35	272.19
490.568	264.19
490.786	257.19
491.003	248.19
491.221	270.19
491.439	261.19
491.657	255.19
491.874	276.19
492.092	312.19
492.31	353.19
492.527	329.19
492.745	311.19
492.963	276.19
493.18	279.19
493.398	275.19
493.615	272.19
493.833	269.19
494.05	271.19
494.268	281.19
494.485	273.19
494.703	262.19
494.92	300.19
495.138	267.19
495.355	279.19
495.573	259.19
495.79	297.19
496.008	346.19
496.225	309.19
496.442	272.19
496.66	294.19
496.877	301.19
497.094	297.19
497.312	318.19
497.529	296.19
497.746	307.19
497.963	313.19
498.181	332.19
498.398	335.19
498.615	334.19
498.832	365.19
499.049	370.19
499.267	369.19
499.484	383.19
499.701	407.19
499.918	459.19
500.135	483.19
500.352	500.19
500.569	523.19
500.786	552.19
501.003	530.19
501.22	480.19
501.437	432.19
501.654	377.19
501.871	378.19
502.088	362.19
502.305	335.19
502.522	344.19
502.739	343.19
502.956	322.19
503.172	306.19
503.389	282.19
503.606	288.19
503.823	298.19
504.04	306.19
504.256	305.19
504.473	299.19
504.69	306.19
504.907	317.19
505.123	320.19
505.34	318.19
505.557	311.19
505.773	274.19
505.99	275.19
506.207	305.19
506.423	281.19
506.64	253.19
506.856	271.19
507.073	315.19
507.289	290.19
507.506	289.19
507.722	291.19
507.939	297.19
508.155	291.19
508.372	274.19
508.588	282.19
508.805	262.19
509.021	259.19
509.238	268.19
509.454	268.19
509.67	262.19
509.887	258.19
510.103	287.19
510.319	287.19
510.536	274.19
510.752	255.19
510.968	243.19
511.184	253.19
511.401	253.19
511.617	256.19
511.833	243.19
512.049	249.19
512.265	245.19
512.481	255.19
512.698	285.19
512.914	307.19
513.13	291.19
513.346	257.19
513.562	265.19
513.778	267.19
513.994	258.19
514.21	270.19
514.426	261.19
514.642	262.19
514.858	257.19
515.074	276.19
515.29	278.19
515.506	288.19
515.721	296.19
515.937	295.19
516.153	251.19
516.369	281.19
516.585	276.19
516.801	285.19
517.016	329.19
517.232	333.19
517.448	345.19
517.664	319.19
517.879	323.19
518.095	312.19
518.311	307.19
518.527	298.19
518.742	319.19
518.958	308.19
519.173	317.19
519.389	300.19
519.605	299.19
519.82	321.19
520.036	353.19
520.251	382.19
520.467	348.19
520.682	581.19
520.898	725.19
521.113	690.19
521.329	395.19
521.544	341.19
521.76	344.19
521.975	283.19
522.19	273.19
522.406	283.19
522.621	315.19
522.836	333.19
523.052	321.19
523.267	280.19
523.482	274.19
523.698	304.19
523.913	285.19
524.128	303.19
524.343	264.19
524.559	282.19
524.774	271.19
524.989	285.19
525.204	281.19
525.419	299.19
525.634	283.19
525.849	282.19
526.064	287.19
526.28	279.19
526.495	317.19
526.71	338.19
526.925	298.19
527.14	321.19
527.355	304.19
527.57	267.19
527.785	280.19
527.999	281.19
528.214	263.19
528.429	241.19
528.644	228.19
528.859	230.19
529.074	246.19
529.289	241.19
529.503	241.19
529.718	268.19
529.933	314.19
530.148	319.19
530.363	262.19
530.577	236.19
530.792	238.19
531.007	241.19
531.221	230.19
531.436	238.19
531.651	255.19
531.865	243.19
532.08	244.19
532.295	231.19
532.509	264.19
532.724	281.19
532.938	282.19
533.153	344.19
533.367	290.19
533.582	275.19
533.796	276.19
534.011	268.19
534.225	275.19
534.44	266.19
534.654	249.19
534.868	314.19
535.083	275.19
535.297	251.19
535.511	254.19
535.726	251.19
535.94	261.19
536.154	240.19
536.369	258.19
536.583	240.19
536.797	240.19
537.011	245.19
537.225	258.19
537.44	274.19
537.654	239.19
537.868	238.19
538.082	248.19
538.296	221.19
538.51	237.19
538.724	246.19
538.938	238.19
539.153	227.19
539.367	234.19
539.581	205.19
539.795	257.19
540.009	267.19
540.222	251.19
540.436	257.19
540.65	276.19
540.864	241.19
541.078	285.19
541.292	328.19
541.506	265.19
541.72	240.19
541.934	249.19
542.147	246.19
542.361	253.19
542.575	247.19
542.789	232.19
543.002	241.19
543.216	249.19
543.43	237.19
543.644	256.19
543.857	223.19
544.071	226.19
544.285	243.19
544.498	212.19
544.712	224.19
544.925	232.19
545.139	224.19
545.352	227.19
545.566	229.19
545.779	263.19
545.993	234.19
546.206	199.19
546.42	203.19
546.633	207.19
546.847	219.19
547.06	201.19
547.274	214.19
547.487	211.19
547.7	241.19
547.914	239.19
548.127	258.19
548.34	261.19
548.554	246.19
548.767	233.19
548.98	250.19
549.193	244.19
549.407	243.19
549.62	275.19
549.833	250.19
550.046	279.19
550.259	267.19
550.473	253.19
550.686	233.19
550.899	237.19
551.112	226.19
551.325	237.19
551.538	259.19
551.751	256.19
551.964	233.19
552.177	225.19
552.39	207.19
552.603	217.19
552.816	233.19
553.029	229.19
553.242	231.19
553.455	253.19
553.667	246.19
553.88	252.19
554.093	242.19
554.306	222.19
554.519	221.19
554.732	226.19
554.944	194.19
555.157	189.19
555.37	212.19
555.583	207.19
555.795	217.19
556.008	224.19
556.221	204.19
556.433	191.19
556.646	191.19
556.859	205.19
557.071	201.19
557.284	205.19
557.496	205.19
557.709	214.19
557.921	205.19
558.134	199.19
558.346	207.19
558.559	212.19
558.771	199.19
558.984	208.19
559.196	201.19
559.409	172.19
559.621	210.19
559.833	199.19
560.046	196.19
560.258	202.19
560.47	193.19
560.683	185.19
560.895	174.19
561.107	180.19
561.32	173.19
561.532	184.19
561.744	218.19
561.956	210.19
562.168	202.19
562.381	203.19
562.593	201.19
562.805	203.19
563.017	197.19
563.229	186.19
563.441	170.19
563.653	183.19
563.865	191.19
564.077	196.19
564.289	205.19
564.501	200.19
564.713	200.19
564.925	206.19
565.137	212.19
565.349	191.19
565.561	199.19
565.773	203.19
565.985	219.19
566.197	227.19
566.408	234.19
566.62	245.19
566.832	241.19
567.044	254.19
567.255	272.19
567.467	281.19
567.679	287.19
567.891	272.19
568.102	303.19
568.314	277.19
568.526	261.19
568.737	258.19
568.949	243.19
569.161	208.19
569.372	216.19
569.584	191.19
569.795	215.19
570.007	207.19
570.218	208.19
570.43	203.19
570.641	199.19
570.853	207.19
571.064	204.19
571.276	224.19
571.487	209.19
571.698	207.19
571.91	185.19
572.121	194.19
572.333	176.19
572.544	182.19
572.755	201.19
572.966	174.19
573.178	183.19
573.389	186.19
573.6	194.19
573.811	208.19
574.023	193.19
574.234	176.19
574.445	179.19
574.656	178.19
574.867	188.19
575.078	168.19
575.289	189.19
575.501	194.19
575.712	187.19
575.923	170.19
576.134	174.19
576.345	187.19
576.556	178.19
576.767	179.19
576.978	175.19
577.188	169.19
577.399	172.19
577.61	155.19
577.821	171.19
578.032	170.19
578.243	181.19
578.454	177.19
578.665	175.19
578.875	170.19
579.086	174.19
579.297	173.19
579.508	187.19
579.718	180.19
579.929	175.19
580.14	158.19
580.35	158.19
580.561	154.19
580.772	153.19
580.982	171.19
581.193	163.19
581.403	155.19
581.614	170.19
581.825	156.19
582.035	154.19
582.246	165.19
582.456	162.19
582.667	167.19
582.877	148.19
583.087	151.19
583.298	166.19
583.508	161.19
583.719	159.19
583.929	159.19
584.139	145.19
584.35	150.19
584.56	176.19
584.77	154.19
584.981	164.19
585.191	156.19
585.401	174.19
585.611	160.19
585.821	169.19
586.032	166.19
586.242	168.19
586.452	145.19
586.662	150.19
586.872	169.19
587.082	165.19
587.292	162.19
587.502	153.19
587.713	157.19
587.923	163.19
588.133	170.19
588.343	166.19
588.553	173.19
588.762	164.19
588.972	154.19
589.182	152.19
589.392	142.19
589.602	154.19
589.812	169.19
590.022	152.19
590.232	166.19
590.441	167.19
590.651	159.19
590.861	161.19
591.071	154.19
591.281	154.19
591.49	154.19
591.7	167.19
591.91	155.19
592.119	163.19
592.329	169.19
592.539	161.19
592.748	158.19
592.958	165.19
593.167	166.19
593.377	157.19
593.587	177.19
593.796	166.19
594.006	185.19
594.215	181.19
594.424	177.19
594.634	189.19
594.843	163.19
595.053	164.19
595.262	168.19
595.472	158.19
595.681	156.19
595.89	152.19
596.1	162.19
596.309	162.19
596.518	164.19
596.727	147.19
596.937	145.19
597.146	165.19
597.355	148.19
597.564	155.19
597.774	153.19
597.983	154.19
598.192	162.19
598.401	130.19
598.61	148.19
598.819	135.19
599.028	141.19
599.237	133.19
599.446	143.19
599.655	149.19
599.864	144.19
600.073	129.19
600.282	143.19
600.491	146.19
600.7	136.19
600.909	139.19
601.118	145.19
601.327	149.19
601.536	144.19
601.745	153.19
601.953	154.19
602.162	153.19
602.371	165.19
602.58	166.19
602.789	133.19
602.997	141.19
603.206	145.19
603.415	142.19
603.623	157.19
603.832	131.19
604.041	150.19
604.249	130.19
604.458	145.19
604.666	153.19
604.875	126.19
605.084	129.19
605.292	141.19
605.501	137.19
605.709	148.19
605.918	133.19
606.126	135.19
606.334	134.19
606.543	135.19
606.751	155.19
606.96	128.19
607.168	142.19
607.376	122.19
607.585	146.19
607.793	152.19
608.001	136.19
608.21	150.19
608.418	137.19
608.626	150.19
608.834	142.19
609.043	131.19
609.251	131.19
609.459	130.19
609.667	140.19
609.875	121.19
610.083	135.19
610.291	125.19
610.499	123.19
610.707	131.19
610.916	139.19
611.124	128.19
611.332	125.19
611.54	135.19
611.748	129.19
611.955	128.19
612.163	143.19
612.371	141.19
612.579	135.19
612.787	151.19
612.995	129.19
613.203	139.19
613.411	125.19
613.618	126.19
613.826	138.19
614.034	138.19
614.242	141.19
614.449	139.19
614.657	118.19
614.865	131.19
615.072	134.19
615.28	127.19
615.488	131.19
615.695	135.19
615.903	133.19
616.111	138.19
616.318	143.19
616.526	137.19
616.733	131.19
616.941	129.19
617.148	136.19
617.356	125.19
617.563	132.19
617.771	130.19
617.978	141.19
618.185	130.19
618.393	151.19
618.6	135.19
618.807	138.19
619.015	131.19
619.222	125.19
619.429	137.19
619.637	140.19
619.844	125.19
620.051	126.19
620.258	140.19
620.466	136.19
620.673	142.19
620.88	125.19
621.087	116.19
621.294	118.19
621.501	128.19
621.708	126.19
621.915	124.19
622.122	133.19
622.329	120.19
622.536	120.19
622.743	120.19
622.95	126.19
623.157	122.19
623.364	124.19
623.571	127.19
623.778	130.19
623.985	131.19
624.192	131.19
624.399	124.19
624.606	131.19
624.812	124.19
625.019	122.19
625.226	148.19
625.433	147.19
625.639	138.19
625.846	123.19
626.053	110.19
626.259	117.19
626.466	115.19
626.673	135.19
626.879	127.19
627.086	142.19
627.293	111.19
627.499	119.19
627.706	125.19
627.912	124.19
628.119	120.19
628.325	135.19
628.532	110.19
628.738	111.19
628.945	117.19
629.151	113.19
629.357	133.19
629.564	123.19
629.77	117.19
629.976	103.19
630.183	141.19
630.389	125.19
630.595	119.19
630.802	128.19
631.008	117.19
631.214	115.19
631.42	124.19
631.627	137.19
631.833	120.19
632.039	117.19
632.245	115.19
632.451	119.19
632.657	121.19
632.863	114.19
633.069	108.19
633.275	127.19
633.481	123.19
633.688	130.19
633.893	110.19
634.099	119.19
634.305	109.19
634.511	120.19
634.717	121.19
634.923	111.19
635.129	134.19
635.335	117.19
635.541	106.19
635.747	119.19
635.952	121.19
636.158	113.19
636.364	119.19
636.57	119.19
636.775	116.19
636.981	125.19
637.187	120.19
637.392	111.19
637.598	123.19
637.804	99.19
638.009	107.19
638.215	118.19
638.421	111.19
638.626	109.19
638.832	116.19
639.037	112.19
639.243	113.19
639.448	104.19
639.654	119.19
639.859	117.19
640.065	108.19
640.27	118.19
640.475	113.19
640.681	120.19
640.886	107.19
641.091	112.19
641.297	120.19
641.502	105.19
641.707	111.19
641.913	111.19
642.118	104.19
642.323	123.19
642.528	102.19
642.733	103.19
642.939	122.19
643.144	135.19
643.349	123.19
643.554	106.19
643.759	102.19
643.964	98.19
644.169	109.19
644.374	112.19
644.579	110.19
644.784	119.19
644.989	116.19
645.194	112.19
645.399	111.19
645.604	95.19
645.809	101.19
646.014	115.19
646.219	109.19
646.423	110.19
646.628	107.19
646.833	116.19
647.038	115.19
647.243	112.19
647.447	115.19
647.652	124.19
647.857	125.19
648.062	120.19
648.266	105.19
648.471	110.19
648.676	106.19
648.88	105.19
649.085	118.19
649.289	107.19
649.494	105.19
649.698	120.19
649.903	119.19
650.107	102.19
650.312	105.19
650.516	117.19
650.721	117.19
650.925	114.19
651.13	99.19
651.334	116.19
651.539	98.19
651.743	114.19
651.947	106.19
652.152	111.19
652.356	117.19
652.56	99.19
652.764	109.19
652.969	106.19
653.173	90.19
653.377	101.19
653.581	105.19
653.785	90.19
653.99	111.19
654.194	111.19
654.398	78.19
654.602	92.19
654.806	96.19
655.01	107.19
655.214	100.19
655.418	96.19
655.622	103.19
655.826	97.19
656.03	87.19
656.234	93.19
656.438	95.19
656.642	101.19
656.846	96.19
657.049	88.19
657.253	89.19
657.457	93.19
657.661	91.19
657.865	85.19
658.068	98.19
658.272	99.19
658.476	96.19
658.68	99.19
658.883	89.19
659.087	87.19
659.291	95.19
659.494	83.19
659.698	94.19
659.901	95.19
660.105	88.19
660.309	89.19
660.512	79.19
660.716	79.19
660.919	82.19
661.123	82.19
661.326	78.19
661.53	81.19
661.733	73.19
661.936	84.19
662.14	90.19
662.343	74.19
662.546	79.19
662.75	96.19
662.953	81.19
663.156	73.19
663.36	85.19
663.563	91.19
663.766	79.19
663.969	79.19
664.173	81.19
664.376	93.19
664.579	72.19
664.782	78.19
664.985	89.19
665.188	92.19
665.391	92.19
665.594	64.19
665.797	80.19
666	82.19
666.203	80.19
666.406	86.19
666.609	97.19
666.812	86.19
667.015	86.19
667.218	73.19
667.421	92.19
667.624	66.19
667.827	74.19
668.03	82.19
668.232	81.19
668.435	78.19
668.638	78.19
668.841	89.19
669.043	79.19
669.246	80.19
669.449	87.19
669.651	95.19
669.854	74.19
670.057	81.19
670.259	83.19
670.462	96.19
670.665	66.19
670.867	82.19
671.07	77.19
671.272	76.19
671.475	86.19
671.677	94.19
671.88	63.19
672.082	72.19
672.284	74.19
672.487	74.19
672.689	77.19
672.892	80.19
