Data from NickelSpatula_HRD10591_16-35-28-126.txt Node
Date: Mon Jul 22 16:35:28 EDT 2019
User: cochatt
Spectrometer: HR+D1059
Trigger mode: 1
Integration Time (sec): 1.000000E-1
Scans to average: 1
Electric dark correction enabled: true
Nonlinearity correction enabled: false
Boxcar width: 0
XAxis mode: Wavelengths
Number of Pixels in Spectrum: 2048
>>>>>Begin Spectral Data<<<<<
223.165	-12
223.4	-12
223.635	-12
223.869	-11
224.104	-6
224.338	-20
224.573	-5
224.808	-16
225.042	-15
225.277	-6
225.511	-5
225.746	-1
225.98	13
226.215	8
226.449	9
226.683	16
226.918	15
227.152	36
227.387	36
227.621	45
227.856	33
228.09	45
228.324	44
228.559	64
228.793	60
229.027	66
229.262	73
229.496	61
229.73	72
229.964	97
230.199	92
230.433	84
230.667	87
230.901	87
231.136	85
231.37	92
231.604	89
231.838	95
232.072	92
232.306	112
232.541	108
232.775	102
233.009	99
233.243	100
233.477	126
233.711	126
233.945	124
234.179	118
234.413	132
234.647	114
234.881	126
235.115	120
235.349	105
235.583	124
235.817	121
236.051	116
236.285	120
236.519	123
236.753	130
236.987	132
237.221	126
237.455	118
237.689	125
237.922	129
238.156	124
238.39	142
238.624	159
238.858	142
239.091	129
239.325	124
239.559	130
239.793	141
240.027	149
240.26	129
240.494	138
240.728	150
240.961	150
241.195	154
241.429	157
241.662	159
241.896	152
242.13	134
242.363	116
242.597	131
242.83	152
243.064	140
243.298	153
243.531	160
243.765	164
243.998	157
244.232	142
244.465	135
244.699	144
244.932	155
245.166	153
245.399	138
245.633	147
245.866	144
246.099	160
246.333	160
246.566	176
246.8	185
247.033	177
247.266	174
247.5	157
247.733	168
247.966	157
248.2	159
248.433	181
248.666	173
248.899	193
249.133	190
249.366	213
249.599	220
249.832	213
250.066	173
250.299	186
250.532	185
250.765	194
250.998	173
251.231	172
251.465	177
251.698	184
251.931	182
252.164	167
252.397	193
252.63	213
252.863	224
253.096	245
253.329	237
253.562	220
253.795	258
254.028	287
254.261	267
254.494	257
254.727	228
254.96	228
255.193	236
255.426	245
255.659	197
255.892	180
256.124	198
256.357	226
256.59	261
256.823	245
257.056	205
257.289	204
257.521	215
257.754	227
257.987	260
258.22	235
258.452	206
258.685	215
258.918	234
259.151	258
259.383	267
259.616	289
259.849	311
260.081	313
260.314	331
260.547	266
260.779	280
261.012	329
261.244	296
261.477	290
261.71	284
261.942	255
262.175	259
262.407	242
262.64	246
262.872	279
263.105	314
263.337	311
263.57	288
263.802	200
264.035	197
264.267	182
264.499	172
264.732	174
264.964	153
265.197	169
265.429	163
265.661	190
265.894	196
266.126	195
266.358	207
266.591	250
266.823	290
267.055	285
267.287	257
267.52	249
267.752	282
267.984	270
268.216	281
268.448	237
268.681	224
268.913	248
269.145	256
269.377	251
269.609	278
269.841	253
270.073	261
270.306	290
270.538	291
270.77	269
271.002	291
271.234	300
271.466	293
271.698	268
271.93	278
272.162	270
272.394	263
272.626	262
272.858	284
273.09	268
273.322	249
273.553	258
273.785	267
274.017	342
274.249	392
274.481	403
274.713	446
274.945	496
275.176	520
275.408	430
275.64	429
275.872	448
276.104	408
276.335	361
276.567	342
276.799	346
277.031	357
277.262	296
277.494	251
277.726	233
277.957	256
278.189	271
278.421	273
278.652	258
278.884	263
279.115	235
279.347	245
279.579	241
279.81	251
280.042	260
280.273	265
280.505	250
280.736	218
280.968	204
281.199	223
281.431	244
281.662	238
281.894	245
282.125	246
282.356	263
282.588	262
282.819	262
283.051	269
283.282	318
283.513	349
283.745	372
283.976	374
284.207	372
284.439	384
284.67	347
284.901	311
285.132	340
285.364	357
285.595	328
285.826	338
286.057	362
286.288	350
286.52	330
286.751	369
286.982	376
287.213	333
287.444	322
287.675	339
287.906	342
288.138	310
288.369	275
288.6	244
288.831	269
289.062	296
289.293	329
289.524	286
289.755	307
289.986	328
290.217	287
290.448	250
290.679	211
290.91	202
291.141	216
291.371	228
291.602	201
291.833	197
292.064	206
292.295	250
292.526	260
292.757	276
292.987	293
293.218	300
293.449	311
293.68	324
293.91	301
294.141	326
294.372	288
294.603	276
294.833	296
295.064	348
295.295	334
295.525	277
295.756	241
295.987	197
296.217	210
296.448	205
296.679	213
296.909	237
297.14	234
297.37	297
297.601	261
297.831	236
298.062	258
298.292	273
298.523	289
298.753	323
298.984	306
299.214	258
299.445	211
299.675	225
299.905	215
300.136	211
300.366	225
300.597	210
300.827	232
301.057	212
301.288	216
301.518	231
301.748	248
301.979	264
302.209	284
302.439	289
302.669	253
302.9	257
303.13	250
303.36	238
303.59	225
303.82	230
304.051	247
304.281	274
304.511	282
304.741	226
304.971	244
305.201	243
305.431	244
305.661	213
305.891	205
306.121	189
306.352	191
306.582	172
306.812	166
307.042	173
307.272	182
307.502	170
307.731	181
307.961	198
308.191	172
308.421	172
308.651	163
308.881	171
309.111	178
309.341	179
309.571	191
309.8	180
310.03	194
310.26	206
310.49	196
310.72	172
310.949	202
311.179	188
311.409	194
311.639	224
311.868	242
312.098	322
312.328	351
312.557	345
312.787	338
313.017	285
313.246	324
313.476	360
313.706	297
313.935	258
314.165	193
314.394	192
314.624	214
314.853	206
315.083	216
315.312	197
315.542	211
315.771	191
316.001	177
316.23	159
316.46	182
316.689	188
316.919	191
317.148	189
317.377	187
317.607	154
317.836	180
318.065	207
318.295	230
318.524	218
318.753	211
318.983	194
319.212	204
319.441	197
319.67	222
319.9	247
320.129	214
320.358	204
320.587	187
320.816	205
321.046	229
321.275	257
321.504	250
321.733	242
321.962	228
322.191	225
322.42	218
322.649	222
322.878	247
323.108	229
323.337	212
323.566	219
323.795	200
324.024	192
324.253	202
324.482	186
324.71	196
324.939	224
325.168	216
325.397	185
325.626	179
325.855	203
326.084	194
326.313	177
326.542	180
326.77	172
326.999	180
327.228	182
327.457	195
327.686	186
327.914	184
328.143	164
328.372	181
328.6	176
328.829	185
329.058	185
329.287	206
329.515	187
329.744	181
329.972	182
330.201	154
330.43	165
330.658	202
330.887	203
331.115	204
331.344	201
331.572	187
331.801	189
332.03	182
332.258	169
332.486	188
332.715	208
332.943	194
333.172	186
333.4	183
333.629	210
333.857	217
334.085	203
334.314	213
334.542	223
334.771	195
334.999	208
335.227	189
335.455	193
335.684	193
335.912	213
336.14	240
336.369	237
336.597	215
336.825	245
337.053	261
337.281	262
337.51	193
337.738	193
337.966	200
338.194	231
338.422	213
338.65	188
338.878	185
339.106	196
339.334	202
339.562	219
339.79	184
340.018	189
340.246	210
340.474	223
340.702	225
340.93	251
341.158	240
341.386	213
341.614	219
341.842	219
342.07	222
342.298	246
342.526	263
342.754	226
342.981	222
343.209	215
343.437	200
343.665	224
343.893	220
344.12	269
344.348	312
344.576	264
344.804	220
345.031	198
345.259	185
345.487	208
345.714	197
345.942	209
346.17	237
346.397	209
346.625	177
346.853	194
347.08	193
347.308	201
347.535	205
347.763	230
347.99	189
348.218	181
348.445	200
348.673	194
348.9	194
349.128	216
349.355	214
349.583	213
349.81	204
350.037	197
350.265	179
350.492	161
350.72	177
350.947	178
351.174	185
351.402	196
351.629	201
351.856	202
352.083	192
352.311	209
352.538	225
352.765	226
352.992	212
353.22	211
353.447	216
353.674	209
353.901	205
354.128	213
354.355	199
354.583	204
354.81	213
355.037	231
355.264	212
355.491	222
355.718	243
355.945	229
356.172	226
356.399	227
356.626	260
356.853	298
357.08	314
357.307	334
357.534	266
357.761	310
357.988	332
358.215	376
358.441	341
358.668	306
358.895	293
359.122	243
359.349	259
359.576	260
359.802	233
360.029	200
360.256	223
360.483	248
360.709	308
360.936	307
361.163	281
361.39	236
361.616	197
361.843	229
362.07	280
362.296	258
362.523	220
362.749	200
362.976	192
363.203	228
363.429	243
363.656	199
363.882	197
364.109	214
364.335	209
364.562	200
364.788	217
365.015	237
365.241	232
365.468	199
365.694	183
365.92	181
366.147	176
366.373	162
366.599	158
366.826	162
367.052	172
367.278	168
367.505	152
367.731	176
367.957	200
368.184	214
368.41	214
368.636	193
368.862	230
369.089	211
369.315	190
369.541	184
369.767	185
369.993	171
370.219	192
370.445	184
370.672	203
370.898	209
371.124	210
371.35	179
371.576	180
371.802	191
372.028	222
372.254	237
372.48	209
372.706	192
372.932	221
373.158	224
373.384	267
373.61	313
373.835	321
374.061	267
374.287	235
374.513	262
374.739	290
374.965	292
375.191	292
375.416	242
375.642	217
375.868	237
376.094	248
376.319	226
376.545	236
376.771	270
376.997	230
377.222	179
377.448	162
377.674	165
377.899	167
378.125	158
378.35	165
378.576	160
378.802	182
379.027	186
379.253	187
379.478	184
379.704	192
379.929	215
380.155	236
380.38	193
380.606	199
380.831	236
381.057	202
381.282	196
381.507	228
381.733	262
381.958	274
382.184	281
382.409	321
382.634	317
382.86	312
383.085	265
383.31	230
383.535	247
383.761	257
383.986	226
384.211	283
384.436	276
384.662	202
384.887	196
385.112	200
385.337	214
385.562	213
385.787	214
386.013	241
386.238	240
386.463	203
386.688	214
386.913	189
387.138	179
387.363	190
387.588	207
387.813	198
388.038	216
388.263	219
388.488	204
388.713	219
388.938	234
389.163	216
389.387	171
389.612	194
389.837	212
390.062	187
390.287	206
390.512	228
390.736	196
390.961	187
391.186	179
391.411	183
391.636	172
391.86	196
392.085	224
392.31	208
392.534	199
392.759	188
392.984	212
393.208	215
393.433	180
393.658	189
393.882	170
394.107	168
394.331	174
394.556	174
394.78	169
395.005	166
395.229	167
395.454	170
395.678	188
395.903	209
396.127	184
396.352	189
396.576	202
396.801	213
397.025	224
397.249	235
397.474	190
397.698	191
397.922	198
398.147	172
398.371	190
398.595	192
398.82	186
399.044	182
399.268	223
399.492	224
399.717	221
399.941	218
400.165	214
400.389	199
400.613	207
400.837	208
401.062	174
401.286	190
401.51	168
401.734	196
401.958	194
402.182	188
402.406	192
402.63	190
402.854	202
403.078	216
403.302	293
403.526	296
403.75	265
403.974	219
404.198	227
404.422	264
404.645	272
404.869	269
405.093	224
405.317	207
405.541	213
405.765	213
405.988	213
406.212	227
406.436	241
406.66	269
406.883	226
407.107	232
407.331	252
407.555	253
407.778	233
408.002	211
408.226	221
408.449	232
408.673	213
408.896	183
409.12	198
409.344	185
409.567	202
409.791	188
410.014	192
410.238	182
410.461	194
410.685	189
410.908	189
411.132	193
411.355	212
411.578	213
411.802	179
412.025	201
412.249	207
412.472	201
412.695	206
412.919	186
413.142	205
413.365	215
413.589	205
413.812	186
414.035	189
414.258	186
414.482	209
414.705	210
414.928	191
415.151	185
415.374	177
415.597	194
415.821	192
416.044	187
416.267	183
416.49	181
416.713	186
416.936	168
417.159	172
417.382	185
417.605	174
417.828	200
418.051	188
418.274	190
418.497	179
418.72	193
418.943	208
419.166	210
419.389	226
419.611	219
419.834	226
420.057	227
420.28	207
420.503	218
420.726	182
420.948	180
421.171	193
421.394	200
421.617	172
421.839	181
422.062	188
422.285	199
422.507	186
422.73	194
422.953	192
423.175	205
423.398	201
423.621	201
423.843	230
424.066	209
424.288	195
424.511	190
424.733	194
424.956	213
425.178	243
425.401	256
425.623	277
425.846	245
426.068	207
426.291	237
426.513	228
426.735	211
426.958	199
427.18	222
427.402	286
427.625	274
427.847	243
428.069	196
428.292	186
428.514	202
428.736	189
428.958	196
429.181	248
429.403	218
429.625	205
429.847	205
430.069	206
430.292	205
430.514	182
430.736	187
430.958	241
431.18	206
431.402	174
431.624	174
431.846	186
432.068	184
432.29	172
432.512	188
432.734	241
432.956	216
433.178	190
433.4	182
433.622	177
433.844	206
434.066	203
434.287	194
434.509	176
434.731	191
434.953	188
435.175	184
435.397	234
435.618	188
435.84	172
436.062	173
436.284	162
436.505	167
436.727	165
436.949	178
437.17	182
437.392	175
437.614	176
437.835	173
438.057	186
438.278	197
438.5	272
438.721	265
438.943	202
439.165	184
439.386	169
439.608	163
439.829	168
440.05	169
440.272	164
440.493	202
440.715	248
440.936	203
441.158	187
441.379	173
441.6	224
441.822	224
442.043	186
442.264	188
442.486	191
442.707	176
442.928	188
443.149	181
443.371	198
443.592	198
443.813	187
444.034	186
444.255	194
444.476	198
444.698	196
444.919	206
445.14	307
445.361	266
445.582	215
445.803	189
446.024	201
446.245	220
446.466	206
446.687	207
446.908	198
447.129	192
447.35	181
447.571	178
447.792	171
448.013	165
448.234	153
448.455	171
448.675	171
448.896	173
449.117	164
449.338	189
449.559	165
449.779	198
450	192
450.221	193
450.442	170
450.662	185
450.883	176
451.104	188
451.324	162
451.545	172
451.766	167
451.986	164
452.207	165
452.428	168
452.648	173
452.869	180
453.089	199
453.31	194
453.53	174
453.751	170
453.971	168
454.192	178
454.412	176
454.633	154
454.853	188
455.073	171
455.294	153
455.514	157
455.734	167
455.955	154
456.175	178
456.395	163
456.616	157
456.836	155
457.056	154
457.276	148
457.497	161
457.717	166
457.937	144
458.157	164
458.377	156
458.598	141
458.818	158
459.038	168
459.258	167
459.478	186
459.698	182
459.918	179
460.138	188
460.358	202
460.578	190
460.798	198
461.018	196
461.238	172
461.458	189
461.678	181
461.898	196
462.118	183
462.338	192
462.558	198
462.777	213
462.997	220
463.217	198
463.437	219
463.657	202
463.876	193
464.096	185
464.316	206
464.536	208
464.755	225
464.975	221
465.195	219
465.414	233
465.634	217
465.854	191
466.073	180
466.293	186
466.512	182
466.732	206
466.951	201
467.171	188
467.391	182
467.61	183
467.829	169
468.049	198
468.268	182
468.488	189
468.707	179
468.927	190
469.146	212
469.365	195
469.585	190
469.804	199
470.023	206
470.243	182
470.462	190
470.681	177
470.901	199
471.12	210
471.339	216
471.558	201
471.777	186
471.997	204
472.216	211
472.435	196
472.654	205
472.873	190
473.092	215
473.311	221
473.53	203
473.749	188
473.968	204
474.187	211
474.406	184
474.625	190
474.844	196
475.063	206
475.282	194
475.501	226
475.72	268
475.939	237
476.158	213
476.377	266
476.596	296
476.814	304
477.033	256
477.252	204
477.471	202
477.69	197
477.908	210
478.127	214
478.346	227
478.564	247
478.783	237
479.002	224
479.22	247
479.439	261
479.658	248
479.876	205
480.095	224
480.313	235
480.532	228
480.751	209
480.969	216
481.188	225
481.406	244
481.624	205
481.843	214
482.061	199
482.28	228
482.498	295
482.717	297
482.935	244
483.153	223
483.372	205
483.59	197
483.808	216
484.027	194
484.245	197
484.463	206
484.681	203
484.9	201
485.118	231
485.336	204
485.554	196
485.772	204
485.99	220
486.209	259
486.427	235
486.645	226
486.863	234
487.081	229
487.299	282
487.517	260
487.735	220
487.953	235
488.171	234
488.389	229
488.607	204
488.825	228
489.043	242
489.261	291
489.479	301
489.696	252
489.914	232
490.132	192
490.35	217
490.568	222
490.786	210
491.003	215
491.221	212
491.439	210
491.657	216
491.874	220
492.092	281
492.31	362
492.527	343
492.745	260
492.963	242
493.18	225
493.398	243
493.615	233
493.833	235
494.05	238
494.268	230
494.485	225
494.703	222
494.92	236
495.138	221
495.355	226
495.573	240
495.79	275
496.008	366
496.225	308
496.442	257
496.66	242
496.877	244
497.094	233
497.312	228
497.529	242
497.746	242
497.963	236
498.181	259
498.398	290
498.615	304
498.832	307
499.049	319
499.267	290
499.484	296
499.701	313
499.918	324
500.135	341
500.352	360
500.569	384
500.786	388
501.003	371
501.22	331
501.437	312
501.654	285
501.871	284
502.088	307
502.305	266
502.522	263
502.739	275
502.956	249
503.172	229
503.389	240
503.606	243
503.823	223
504.04	249
504.256	264
504.473	255
504.69	248
504.907	263
505.123	246
505.34	269
505.557	246
505.773	244
505.99	230
506.207	221
506.423	242
506.64	221
506.856	237
507.073	270
507.289	232
507.506	257
507.722	273
507.939	246
508.155	276
508.372	228
508.588	233
508.805	211
509.021	225
509.238	228
509.454	222
509.67	219
509.887	233
510.103	234
510.319	245
510.536	220
510.752	208
510.968	206
511.184	187
511.401	195
511.617	217
511.833	208
512.049	214
512.265	221
512.481	233
512.698	232
512.914	264
513.13	226
513.346	224
513.562	223
513.778	225
513.994	218
514.21	250
514.426	215
514.642	227
514.858	237
515.074	220
515.29	249
515.506	278
515.721	264
515.937	223
516.153	227
516.369	217
516.585	248
516.801	257
517.016	315
517.232	278
517.448	282
517.664	252
517.879	251
518.095	259
518.311	249
518.527	248
518.742	274
518.958	258
519.173	256
519.389	257
519.605	286
519.82	266
520.036	324
520.251	304
520.467	314
520.682	519
520.898	632
521.113	600
521.329	366
521.544	278
521.76	284
521.975	266
522.19	242
522.406	249
522.621	269
522.836	290
523.052	285
523.267	245
523.482	237
523.698	276
523.913	232
524.128	208
524.343	207
524.559	237
524.774	216
524.989	229
525.204	237
525.419	240
525.634	214
525.849	244
526.064	240
526.28	247
526.495	281
526.71	332
526.925	286
527.14	281
527.355	287
527.57	244
527.785	241
527.999	247
528.214	211
528.429	227
528.644	206
528.859	206
529.074	198
529.289	204
529.503	185
529.718	216
529.933	287
530.148	289
530.363	232
530.577	214
530.792	187
531.007	196
531.221	205
531.436	216
531.651	214
531.865	219
532.08	217
532.295	212
532.509	219
532.724	259
532.938	277
533.153	342
533.367	248
533.582	225
533.796	208
534.011	219
534.225	222
534.44	235
534.654	236
534.868	297
535.083	258
535.297	213
535.511	194
535.726	251
535.94	212
536.154	213
536.369	215
536.583	213
536.797	222
537.011	210
537.225	233
537.44	237
537.654	216
537.868	208
538.082	197
538.296	208
538.51	217
538.724	216
538.938	226
539.153	200
539.367	214
539.581	212
539.795	212
540.009	247
540.222	220
540.436	224
540.65	231
540.864	255
541.078	251
541.292	315
541.506	230
541.72	227
541.934	203
542.147	204
542.361	215
542.575	214
542.789	214
543.002	186
543.216	220
543.43	203
543.644	210
543.857	195
544.071	184
544.285	205
544.498	189
544.712	196
544.925	219
545.139	214
545.352	202
545.566	196
545.779	235
545.993	205
546.206	183
546.42	178
546.633	193
546.847	178
547.06	169
547.274	188
547.487	177
547.7	195
547.914	189
548.127	236
548.34	218
548.554	203
548.767	194
548.98	198
549.193	208
549.407	211
549.62	214
549.833	240
550.046	230
550.259	221
550.473	222
550.686	196
550.899	214
551.112	213
551.325	181
551.538	198
551.751	209
551.964	194
552.177	192
552.39	191
552.603	187
552.816	190
553.029	196
553.242	202
553.455	202
553.667	216
553.88	206
554.093	180
554.306	180
554.519	169
554.732	167
554.944	168
555.157	166
555.37	177
555.583	167
555.795	186
556.008	167
556.221	174
556.433	179
556.646	168
556.859	176
557.071	182
557.284	184
557.496	181
557.709	185
557.921	159
558.134	152
558.346	170
558.559	176
558.771	184
558.984	200
559.196	180
559.409	179
559.621	172
559.833	163
560.046	157
560.258	168
560.47	158
560.683	169
560.895	165
561.107	154
561.32	162
561.532	171
561.744	171
561.956	186
562.168	173
562.381	168
562.593	166
562.805	179
563.017	166
563.229	167
563.441	161
563.653	168
563.865	179
564.077	166
564.289	160
564.501	170
564.713	195
564.925	178
565.137	168
565.349	154
565.561	175
565.773	157
565.985	181
566.197	178
566.408	182
566.62	206
566.832	206
567.044	196
567.255	200
567.467	210
567.679	211
567.891	211
568.102	198
568.314	205
568.526	201
568.737	195
568.949	197
569.161	178
569.372	163
569.584	168
569.795	157
570.007	164
570.218	174
570.43	184
570.641	173
570.853	156
571.064	162
571.276	162
571.487	163
571.698	167
571.91	169
572.121	160
572.333	144
572.544	157
572.755	167
572.966	140
573.178	146
573.389	164
573.6	157
573.811	173
574.023	150
574.234	150
574.445	146
574.656	142
574.867	151
575.078	140
575.289	154
575.501	163
575.712	148
575.923	138
576.134	144
576.345	142
576.556	134
576.767	141
576.978	142
577.188	146
577.399	146
577.61	143
577.821	145
578.032	151
578.243	156
578.454	146
578.665	156
578.875	158
579.086	183
579.297	166
579.508	154
579.718	143
579.929	154
580.14	154
580.35	148
580.561	131
580.772	152
580.982	136
581.193	150
581.403	121
581.614	127
581.825	126
582.035	131
582.246	136
582.456	128
582.667	132
582.877	154
583.087	132
583.298	132
583.508	138
583.719	130
583.929	132
584.139	121
584.35	132
584.56	132
584.77	131
584.981	133
585.191	129
585.401	129
585.611	133
585.821	135
586.032	139
586.242	126
586.452	140
586.662	146
586.872	140
587.082	142
587.292	137
587.502	120
587.713	128
587.923	141
588.133	155
588.343	123
588.553	138
588.762	151
588.972	134
589.182	154
589.392	136
589.602	141
589.812	134
590.022	149
590.232	148
590.441	131
590.651	143
590.861	136
591.071	129
591.281	118
591.49	138
591.7	137
591.91	140
592.119	136
592.329	123
592.539	130
592.748	148
592.958	146
593.167	151
593.377	156
593.587	146
593.796	125
594.006	137
594.215	142
594.424	138
594.634	137
594.843	146
595.053	125
595.262	127
595.472	136
595.681	136
595.89	114
596.1	147
596.309	135
596.518	128
596.727	125
596.937	126
597.146	136
597.355	133
597.564	145
597.774	128
597.983	124
598.192	121
598.401	120
598.61	133
598.819	134
599.028	111
599.237	120
599.446	121
599.655	124
599.864	117
600.073	123
600.282	136
600.491	137
600.7	126
600.909	121
601.118	115
601.327	124
601.536	137
601.745	125
601.953	138
602.162	124
602.371	140
602.58	127
602.789	130
602.997	131
603.206	140
603.415	109
603.623	116
603.832	128
604.041	112
604.249	124
604.458	124
604.666	125
604.875	108
605.084	115
605.292	124
605.501	114
605.709	113
605.918	139
606.126	117
606.334	120
606.543	119
606.751	112
606.96	118
607.168	111
607.376	109
607.585	114
607.793	126
608.001	122
608.21	117
608.418	110
608.626	124
608.834	118
609.043	123
609.251	123
609.459	122
609.667	120
609.875	119
610.083	114
610.291	115
610.499	109
610.707	117
610.916	128
611.124	122
611.332	115
611.54	126
611.748	119
611.955	112
612.163	120
612.371	120
612.579	119
612.787	117
612.995	118
613.203	121
613.411	116
613.618	124
613.826	124
614.034	137
614.242	109
614.449	112
614.657	121
614.865	105
615.072	104
615.28	124
615.488	115
615.695	119
615.903	126
616.111	141
616.318	111
616.526	109
616.733	120
616.941	128
617.148	125
617.356	118
617.563	93
617.771	111
617.978	104
618.185	116
618.393	112
618.6	117
618.807	108
619.015	118
619.222	120
619.429	121
619.637	114
619.844	113
620.051	114
620.258	109
620.466	122
620.673	116
620.88	113
621.087	116
621.294	127
621.501	113
621.708	102
621.915	109
622.122	125
622.329	134
622.536	110
622.743	116
622.95	108
623.157	110
623.364	121
623.571	110
623.778	110
623.985	115
624.192	118
624.399	113
624.606	120
624.812	116
625.019	120
625.226	114
625.433	131
625.639	95
625.846	102
626.053	123
626.259	112
626.466	119
626.673	107
626.879	115
627.086	106
627.293	116
627.499	102
627.706	95
627.912	99
628.119	110
628.325	108
628.532	106
628.738	117
628.945	101
629.151	112
629.357	103
629.564	115
629.77	110
629.976	88
630.183	94
630.389	109
630.595	107
630.802	97
631.008	116
631.214	111
631.42	111
631.627	115
631.833	105
632.039	112
632.245	99
632.451	109
632.657	104
632.863	112
633.069	107
633.275	104
633.481	110
633.688	121
633.893	92
634.099	108
634.305	103
634.511	105
634.717	102
634.923	98
635.129	109
635.335	112
635.541	108
635.747	94
635.952	116
636.158	116
636.364	106
636.57	105
636.775	114
636.981	107
637.187	92
637.392	110
637.598	109
637.804	98
638.009	106
638.215	119
638.421	108
638.626	106
638.832	119
639.037	113
639.243	104
639.448	104
639.654	114
639.859	101
640.065	94
640.27	122
640.475	98
640.681	109
640.886	107
641.091	95
641.297	109
641.502	105
641.707	89
641.913	92
642.118	109
642.323	106
642.528	108
642.733	100
642.939	88
643.144	100
643.349	114
643.554	96
643.759	94
643.964	98
644.169	110
644.374	116
644.579	99
644.784	107
644.989	87
645.194	102
645.399	103
645.604	104
645.809	106
646.014	92
646.219	85
646.423	91
646.628	93
646.833	91
647.038	102
647.243	96
647.447	88
647.652	100
647.857	105
648.062	81
648.266	103
648.471	95
648.676	91
648.88	95
649.085	91
649.289	91
649.494	104
649.698	106
649.903	100
650.107	97
650.312	118
650.516	92
650.721	99
650.925	96
651.13	110
651.334	96
651.539	112
651.743	101
651.947	91
652.152	95
652.356	85
652.56	90
652.764	91
652.969	78
653.173	103
653.377	93
653.581	98
653.785	87
653.99	82
654.194	84
654.398	96
654.602	94
654.806	86
655.01	94
655.214	84
655.418	95
655.622	72
655.826	89
656.03	93
656.234	90
656.438	97
656.642	80
656.846	93
657.049	114
657.253	98
657.457	95
657.661	99
657.865	75
658.068	101
658.272	85
658.476	93
658.68	89
658.883	77
659.087	93
659.291	83
659.494	91
659.698	90
659.901	79
660.105	78
660.309	84
660.512	89
660.716	97
660.919	90
661.123	86
661.326	78
661.53	83
661.733	84
661.936	94
662.14	83
662.343	80
662.546	86
662.75	101
662.953	88
663.156	80
663.36	88
663.563	83
663.766	90
663.969	82
664.173	86
664.376	82
664.579	80
664.782	63
664.985	84
665.188	76
665.391	90
665.594	94
665.797	75
666	85
666.203	81
666.406	78
666.609	94
666.812	94
667.015	86
667.218	99
667.421	81
667.624	76
667.827	67
668.03	81
668.232	76
668.435	103
668.638	72
668.841	81
669.043	83
669.246	87
669.449	75
669.651	76
669.854	76
670.057	79
670.259	75
670.462	78
670.665	86
670.867	83
671.07	93
671.272	82
671.475	87
671.677	78
671.88	90
672.082	84
672.284	85
672.487	89
672.689	85
672.892	88
