Data from NickelSpatula.Lamp.E10.P2_HRD10591_11-58-20-528.txt Node
Date: Tue Jul 23 11:58:20 EDT 2019
User: cochatt
Spectrometer: HR+D1059
Trigger mode: 1
Integration Time (sec): 1.000000E-1
Scans to average: 1
Electric dark correction enabled: true
Nonlinearity correction enabled: false
Boxcar width: 0
XAxis mode: Wavelengths
Number of Pixels in Spectrum: 2048
>>>>>Begin Spectral Data<<<<<
223.165	-8
223.4	-8
223.635	-8
223.869	-13
224.104	-26
224.338	-27
224.573	-8
224.808	-13
225.042	3
225.277	-6
225.511	-13
225.746	-5
225.98	4
226.215	16
226.449	16
226.683	22
226.918	27
227.152	31
227.387	38
227.621	37
227.856	49
228.09	41
228.324	49
228.559	58
228.793	74
229.027	161
229.262	159
229.496	160
229.73	153
229.964	188
230.199	225
230.433	213
230.667	216
230.901	220
231.136	205
231.37	198
231.604	212
231.838	256
232.072	246
232.306	241
232.541	214
232.775	255
233.009	263
233.243	293
233.477	303
233.711	339
233.945	361
234.179	333
234.413	348
234.647	386
234.881	450
235.115	407
235.349	431
235.583	360
235.817	347
236.051	384
236.285	408
236.519	460
236.753	437
236.987	422
237.221	412
237.455	425
237.689	424
237.922	456
238.156	474
238.39	536
238.624	676
238.858	603
239.091	491
239.325	495
239.559	466
239.793	547
240.027	646
240.26	596
240.494	582
240.728	588
240.961	670
241.195	641
241.429	612
241.662	613
241.896	528
242.13	484
242.363	427
242.597	461
242.83	538
243.064	549
243.298	598
243.531	625
243.765	649
243.998	621
244.232	590
244.465	607
244.699	575
244.932	658
245.166	616
245.399	539
245.633	541
245.866	593
246.099	625
246.333	690
246.566	754
246.8	764
247.033	743
247.266	691
247.5	699
247.733	682
247.966	663
248.2	688
248.433	744
248.666	849
248.899	855
249.133	874
249.366	1001
249.599	1052
249.832	938
250.066	824
250.299	835
250.532	831
250.765	810
250.998	727
251.231	707
251.465	772
251.698	827
251.931	793
252.164	821
252.397	924
252.63	1054
252.863	1153
253.096	1216
253.329	1177
253.562	1127
253.795	1265
254.028	1358
254.261	1393
254.494	1228
254.727	1124
254.96	1123
255.193	1152
255.426	1137
255.659	857
255.892	785
256.124	853
256.357	1036
256.59	1214
256.823	1161
257.056	970
257.289	943
257.521	975
257.754	1126
257.987	1250
258.22	1106
258.452	1001
258.685	1118
258.918	1293
259.151	1228
259.383	1303
259.616	1493
259.849	1549
260.081	1714
260.314	1892
260.547	1481
260.779	1493
261.012	1711
261.244	1596
261.477	1626
261.71	1532
261.942	1293
262.175	1270
262.407	1226
262.64	1268
262.872	1513
263.105	1604
263.337	1723
263.57	1543
263.802	1024
264.035	895
264.267	892
264.499	769
264.732	717
264.964	687
265.197	724
265.429	780
265.661	818
265.894	831
266.126	883
266.358	981
266.591	1240
266.823	1484
267.055	1425
267.287	1193
267.52	1228
267.752	1276
267.984	1433
268.216	1359
268.448	1135
268.681	1121
268.913	1215
269.145	1257
269.377	1317
269.609	1291
269.841	1201
270.073	1297
270.306	1355
270.538	1375
270.77	1405
271.002	1403
271.234	1475
271.466	1482
271.698	1434
271.93	1418
272.162	1408
272.394	1381
272.626	1393
272.858	1451
273.09	1453
273.322	1282
273.553	1285
273.785	1477
274.017	1992
274.249	2444
274.481	2506
274.713	2727
274.945	3183
275.176	3265
275.408	2815
275.64	2582
275.872	2597
276.104	2223
276.335	1888
276.567	1911
276.799	1982
277.031	2052
277.262	1589
277.494	1238
277.726	1197
277.957	1339
278.189	1480
278.421	1525
278.652	1411
278.884	1353
279.115	1231
279.347	1173
279.579	1177
279.81	1213
280.042	1215
280.273	1242
280.505	1147
280.736	993
280.968	1021
281.199	1109
281.431	1208
281.662	1205
281.894	1186
282.125	1271
282.356	1350
282.588	1341
282.819	1251
283.051	1345
283.282	1692
283.513	1924
283.745	2209
283.976	2157
284.207	1969
284.439	2076
284.67	2016
284.901	1762
285.132	1895
285.364	1989
285.595	1891
285.826	1966
286.057	2039
286.288	1987
286.52	2021
286.751	2067
286.982	2077
287.213	1789
287.444	1748
287.675	1843
287.906	1807
288.138	1502
288.369	1343
288.6	1285
288.831	1320
289.062	1531
289.293	1694
289.524	1598
289.755	1568
289.986	1590
290.217	1443
290.448	1079
290.679	969
290.91	905
291.141	924
291.371	961
291.602	975
291.833	989
292.064	1016
292.295	1209
292.526	1383
292.757	1450
292.987	1527
293.218	1545
293.449	1584
293.68	1671
293.91	1569
294.141	1622
294.372	1492
294.603	1393
294.833	1598
295.064	1844
295.295	1710
295.525	1312
295.756	1115
295.987	985
296.217	1002
296.448	1031
296.679	1114
296.909	1192
297.14	1292
297.37	1405
297.601	1329
297.831	1129
298.062	1231
298.292	1421
298.523	1587
298.753	1820
298.984	1589
299.214	1219
299.445	1047
299.675	1031
299.905	1036
300.136	1064
300.366	1121
300.597	1136
300.827	994
301.057	979
301.288	1020
301.518	1067
301.748	1225
301.979	1329
302.209	1402
302.439	1407
302.669	1221
302.9	1215
303.13	1124
303.36	1077
303.59	1024
303.82	1075
304.051	1205
304.281	1335
304.511	1267
304.741	1124
304.971	1143
305.201	1269
305.431	1191
305.661	1032
305.891	1045
306.121	1091
306.352	936
306.582	866
306.812	865
307.042	858
307.272	803
307.502	803
307.731	850
307.961	906
308.191	859
308.421	785
308.651	779
308.881	716
309.111	771
309.341	817
309.571	872
309.8	921
310.03	929
310.26	987
310.49	952
310.72	845
310.949	854
311.179	900
311.409	923
311.639	1059
311.868	1391
312.098	1781
312.328	1904
312.557	1850
312.787	1860
313.017	1667
313.246	1767
313.476	1960
313.706	1607
313.935	1260
314.165	1029
314.394	939
314.624	978
314.853	982
315.083	1039
315.312	980
315.542	998
315.771	933
316.001	840
316.23	838
316.46	823
316.689	846
316.919	876
317.148	898
317.377	879
317.607	861
317.836	915
318.065	1110
318.295	1224
318.524	1106
318.753	955
318.983	923
319.212	909
319.441	1037
319.67	1076
319.9	1181
320.129	1118
320.358	953
320.587	929
320.816	1005
321.046	1170
321.275	1312
321.504	1297
321.733	1277
321.962	1207
322.191	1140
322.42	1079
322.649	1095
322.878	1195
323.108	1172
323.337	1104
323.566	1078
323.795	1023
324.024	1000
324.253	942
324.482	943
324.71	1040
324.939	1175
325.168	1125
325.397	898
325.626	895
325.855	872
326.084	908
326.313	874
326.542	833
326.77	883
326.999	891
327.228	946
327.457	968
327.686	985
327.914	892
328.143	820
328.372	811
328.6	850
328.829	865
329.058	885
329.287	904
329.515	903
329.744	859
329.972	828
330.201	797
330.43	832
330.658	919
330.887	1051
331.115	994
331.344	975
331.572	949
331.801	885
332.03	866
332.258	893
332.486	935
332.715	961
332.943	879
333.172	901
333.4	932
333.629	1011
333.857	1094
334.085	1078
334.314	1103
334.542	1038
334.771	933
334.999	917
335.227	887
335.455	932
335.684	1021
335.912	1188
336.14	1286
336.369	1249
336.597	1190
336.825	1349
337.053	1523
337.281	1206
337.51	982
337.738	949
337.966	1029
338.194	1147
338.422	1083
338.65	947
338.878	895
339.106	900
339.334	992
339.562	1056
339.79	977
340.018	918
340.246	1026
340.474	1159
340.702	1276
340.93	1284
341.158	1302
341.386	1081
341.614	1095
341.842	1106
342.07	1120
342.298	1315
342.526	1339
342.754	1171
342.981	1081
343.209	1025
343.437	1083
343.665	1166
343.893	1174
344.12	1370
344.348	1517
344.576	1378
344.804	1172
345.031	1016
345.259	954
345.487	981
345.714	985
345.942	1090
346.17	1147
346.397	1109
346.625	995
346.853	950
347.08	944
347.308	980
347.535	1068
347.763	1114
347.99	959
348.218	901
348.445	961
348.673	979
348.9	954
349.128	1054
349.355	1076
349.583	1029
349.81	986
350.037	940
350.265	806
350.492	807
350.72	796
350.947	795
351.174	857
351.402	943
351.629	939
351.856	945
352.083	877
352.311	947
352.538	1036
352.765	1137
352.992	1003
353.22	940
353.447	988
353.674	956
353.901	927
354.128	962
354.355	984
354.583	973
354.81	975
355.037	1046
355.264	1004
355.491	1061
355.718	1134
355.945	1096
356.172	1079
356.399	1088
356.626	1302
356.853	1612
357.08	1722
357.307	1712
357.534	1322
357.761	1339
357.988	1683
358.215	1963
358.441	1899
358.668	1566
358.895	1462
359.122	1180
359.349	1144
359.576	1290
359.802	1084
360.029	919
360.256	1019
360.483	1236
360.709	1576
360.936	1621
361.163	1404
361.39	1119
361.616	1009
361.843	1224
362.07	1451
362.296	1329
362.523	1051
362.749	901
362.976	984
363.203	1142
363.429	1275
363.656	1067
363.882	986
364.109	973
364.335	956
364.562	960
364.788	1094
365.015	1287
365.241	1138
365.468	938
365.694	808
365.92	815
366.147	812
366.373	773
366.599	767
366.826	789
367.052	807
367.278	835
367.505	799
367.731	934
367.957	994
368.184	1013
368.41	997
368.636	1003
368.862	1045
369.089	1029
369.315	897
369.541	885
369.767	891
369.993	819
370.219	851
370.445	905
370.672	1027
370.898	1066
371.124	1062
371.35	952
371.576	873
371.802	957
372.028	1166
372.254	1271
372.48	1110
372.706	998
372.932	1074
373.158	1083
373.384	1324
373.61	1784
373.835	1821
374.061	1323
374.287	1131
374.513	1308
374.739	1629
374.965	1661
375.191	1629
375.416	1148
375.642	1009
375.868	1165
376.094	1327
376.319	1101
376.545	1270
376.771	1322
376.997	1127
377.222	859
377.448	761
377.674	720
377.899	733
378.125	754
378.35	723
378.576	784
378.802	837
379.027	921
379.253	874
379.478	904
379.704	1015
379.929	1053
380.155	1044
380.38	936
380.606	970
380.831	1058
381.057	989
381.282	965
381.507	1147
381.733	1410
381.958	1476
382.184	1563
382.409	1673
382.634	1630
382.86	1688
383.085	1427
383.31	1107
383.535	1165
383.761	1193
383.986	1112
384.211	1361
384.436	1331
384.662	1028
384.887	993
385.112	995
385.337	1031
385.562	977
385.787	1103
386.013	1176
386.238	1208
386.463	1009
386.688	965
386.913	927
387.138	890
387.363	959
387.588	965
387.813	1014
388.038	1055
388.263	964
388.488	973
388.713	1103
388.938	1193
389.163	988
389.387	895
389.612	895
389.837	936
390.062	950
390.287	994
390.512	991
390.736	914
390.961	868
391.186	864
391.411	831
391.636	842
391.86	940
392.085	985
392.31	996
392.534	934
392.759	909
392.984	957
393.208	962
393.433	858
393.658	792
393.882	792
394.107	784
394.331	799
394.556	779
394.78	789
395.005	835
395.229	876
395.454	864
395.678	889
395.903	918
396.127	852
396.352	861
396.576	937
396.801	968
397.025	1082
397.249	1132
397.474	925
397.698	897
397.922	964
398.147	906
398.371	900
398.595	931
398.82	919
399.044	911
399.268	1009
399.492	1044
399.717	1057
399.941	1075
400.165	1047
400.389	1036
400.613	1012
400.837	1037
401.062	940
401.286	868
401.51	921
401.734	876
401.958	901
402.182	888
402.406	925
402.63	917
402.854	907
403.078	1051
403.302	1281
403.526	1329
403.75	1164
403.974	1021
404.198	1060
404.422	1209
404.645	1428
404.869	1557
405.093	1162
405.317	967
405.541	972
405.765	994
405.988	1028
406.212	1100
406.436	1241
406.66	1404
406.883	1113
407.107	1159
407.331	1335
407.555	1254
407.778	1083
408.002	1037
408.226	1037
408.449	1015
408.673	1012
408.896	925
409.12	916
409.344	901
409.567	892
409.791	911
410.014	887
410.238	890
410.461	895
410.685	900
410.908	907
411.132	915
411.355	917
411.578	946
411.802	940
412.025	973
412.249	988
412.472	949
412.695	924
412.919	937
413.142	941
413.365	1046
413.589	1048
413.812	965
414.035	930
414.258	896
414.482	1040
414.705	1078
414.928	890
415.151	891
415.374	875
415.597	879
415.821	899
416.044	898
416.267	859
416.49	881
416.713	848
416.936	841
417.159	850
417.382	876
417.605	907
417.828	913
418.051	895
418.274	949
418.497	903
418.72	927
418.943	953
419.166	969
419.389	1019
419.611	990
419.834	1007
420.057	1131
420.28	1083
420.503	984
420.726	864
420.948	901
421.171	895
421.394	886
421.617	854
421.839	849
422.062	910
422.285	938
422.507	910
422.73	938
422.953	961
423.175	935
423.398	959
423.621	982
423.843	1043
424.066	977
424.288	936
424.511	922
424.733	919
424.956	965
425.178	1064
425.401	1217
425.623	1350
425.846	1149
426.068	1002
426.291	1107
426.513	1050
426.735	964
426.958	991
427.18	1136
427.402	1445
427.625	1464
427.847	1172
428.069	893
428.292	890
428.514	899
428.736	860
428.958	941
429.181	1107
429.403	1008
429.625	899
429.847	875
430.069	869
430.292	921
430.514	863
430.736	935
430.958	1167
431.18	1100
431.402	828
431.624	787
431.846	815
432.068	795
432.29	827
432.512	923
432.734	1194
432.956	1119
433.178	856
433.4	829
433.622	879
433.844	885
434.066	948
434.287	926
434.509	894
434.731	918
434.953	848
435.175	921
435.397	1016
435.618	896
435.84	815
436.062	831
436.284	803
436.505	794
436.727	791
436.949	815
437.17	829
437.392	850
437.614	806
437.835	819
438.057	849
438.278	985
438.5	1357
438.721	1363
438.943	922
439.165	804
439.386	755
439.608	776
439.829	779
440.05	769
440.272	837
440.493	980
440.715	1205
440.936	968
441.158	853
441.379	857
441.6	1000
441.822	1017
442.043	894
442.264	874
442.486	865
442.707	859
442.928	863
443.149	873
443.371	870
443.592	936
443.813	884
444.034	868
444.255	873
444.476	928
444.698	931
444.919	934
445.14	1038
445.361	1021
445.582	950
445.803	928
446.024	922
446.245	931
446.466	895
446.687	842
446.908	885
447.129	859
447.35	803
447.571	832
447.792	792
448.013	791
448.234	748
448.455	775
448.675	783
448.896	803
449.117	816
449.338	813
449.559	833
449.779	872
450	839
450.221	807
450.442	829
450.662	811
450.883	796
451.104	791
451.324	778
451.545	799
451.766	798
451.986	786
452.207	760
452.428	775
452.648	779
452.869	794
453.089	828
453.31	827
453.53	718
453.751	740
453.971	723
454.192	750
454.412	783
454.633	761
454.853	732
455.073	718
455.294	716
455.514	734
455.734	762
455.955	803
456.175	837
456.395	736
456.616	731
456.836	691
457.056	700
457.276	710
457.497	711
457.717	716
457.937	700
458.157	710
458.377	746
458.598	745
458.818	763
459.038	819
459.258	826
459.478	840
459.698	894
459.918	908
460.138	844
460.358	898
460.578	872
460.798	871
461.018	873
461.238	841
461.458	871
461.678	864
461.898	932
462.118	891
462.338	949
462.558	940
462.777	992
462.997	995
463.217	987
463.437	1032
463.657	1029
463.876	979
464.096	955
464.316	946
464.536	976
464.755	1010
464.975	991
465.195	950
465.414	1014
465.634	954
465.854	916
466.073	851
466.293	856
466.512	937
466.732	1020
466.951	1041
467.171	897
467.391	885
467.61	872
467.829	916
468.049	917
468.268	881
468.488	889
468.707	909
468.927	1042
469.146	1139
469.365	1043
469.585	968
469.804	1029
470.023	1111
470.243	963
470.462	950
470.681	891
470.901	928
471.12	960
471.339	963
471.558	924
471.777	931
471.997	1000
472.216	1131
472.435	1092
472.654	975
472.873	945
473.092	1013
473.311	1067
473.53	951
473.749	943
473.968	968
474.187	960
474.406	939
474.625	920
474.844	931
475.063	1008
475.282	1023
475.501	1091
475.72	1116
475.939	1088
476.158	1107
476.377	1256
476.596	1423
476.814	1480
477.033	1252
477.252	1046
477.471	994
477.69	1001
477.908	1098
478.127	1141
478.346	1049
478.564	1115
478.783	1091
479.002	1146
479.22	1281
479.439	1397
479.658	1223
479.876	1112
480.095	1224
480.313	1237
480.532	1133
480.751	1096
480.969	1103
481.188	1268
481.406	1325
481.624	1243
481.843	1096
482.061	1033
482.28	1183
482.498	1434
482.717	1377
482.935	1195
483.153	1099
483.372	1059
483.59	1057
483.808	1037
484.027	1046
484.245	1007
484.463	1021
484.681	1040
484.9	1094
485.118	1210
485.336	1108
485.554	1052
485.772	1092
485.99	1164
486.209	1219
486.427	1203
486.645	1207
486.863	1235
487.081	1227
487.299	1350
487.517	1350
487.735	1192
487.953	1189
488.171	1257
488.389	1160
488.607	1135
488.825	1153
489.043	1255
489.261	1425
489.479	1549
489.696	1290
489.914	1179
490.132	1091
490.35	1119
490.568	1114
490.786	1136
491.003	1107
491.221	1182
491.439	1118
491.657	1124
491.874	1208
492.092	1491
492.31	1718
492.527	1731
492.745	1533
492.963	1329
493.18	1274
493.398	1294
493.615	1269
493.833	1271
494.05	1224
494.268	1221
494.485	1215
494.703	1191
494.92	1227
495.138	1193
495.355	1208
495.573	1224
495.79	1392
496.008	1745
496.225	1527
496.442	1358
496.66	1361
496.877	1415
497.094	1402
497.312	1301
497.529	1289
497.746	1325
497.963	1372
498.181	1492
498.398	1585
498.615	1625
498.832	1667
499.049	1694
499.267	1546
499.484	1526
499.701	1592
499.918	1752
500.135	1878
500.352	1914
500.569	1946
500.786	2016
501.003	2021
501.22	1817
501.437	1701
501.654	1637
501.871	1634
502.088	1627
502.305	1503
502.522	1532
502.739	1493
502.956	1386
503.172	1362
503.389	1328
503.606	1281
503.823	1281
504.04	1297
504.256	1298
504.473	1365
504.69	1346
504.907	1403
505.123	1365
505.34	1427
505.557	1409
505.773	1318
505.99	1283
506.207	1372
506.423	1292
506.64	1191
506.856	1242
507.073	1386
507.289	1324
507.506	1329
507.722	1384
507.939	1451
508.155	1455
508.372	1307
508.588	1283
508.805	1226
509.021	1233
509.238	1164
509.454	1183
509.67	1162
509.887	1203
510.103	1337
510.319	1309
510.536	1170
510.752	1108
510.968	1029
511.184	1038
511.401	1048
511.617	1053
511.833	1017
512.049	1065
512.265	1096
512.481	1152
512.698	1235
512.914	1348
513.13	1231
513.346	1102
513.562	1138
513.778	1157
513.994	1138
514.21	1195
514.426	1201
514.642	1145
514.858	1121
515.074	1187
515.29	1234
515.506	1391
515.721	1304
515.937	1228
516.153	1135
516.369	1164
516.585	1221
516.801	1376
517.016	1603
517.232	1563
517.448	1493
517.664	1333
517.879	1274
518.095	1267
518.311	1277
518.527	1293
518.742	1386
518.958	1465
519.173	1383
519.389	1344
519.605	1377
519.82	1495
520.036	1723
520.251	1691
520.467	1562
520.682	2301
520.898	2817
521.113	2621
521.329	1681
521.544	1511
521.76	1529
521.975	1333
522.19	1242
522.406	1330
522.621	1460
522.836	1479
523.052	1560
523.267	1293
523.482	1297
523.698	1401
523.913	1320
524.128	1220
524.343	1124
524.559	1161
524.774	1104
524.989	1123
525.204	1192
525.419	1310
525.634	1225
525.849	1235
526.064	1254
526.28	1294
526.495	1450
526.71	1519
526.925	1322
527.14	1390
527.355	1319
527.57	1120
527.785	1217
527.999	1158
528.214	1090
528.429	1072
528.644	1072
528.859	1039
529.074	984
529.289	992
529.503	981
529.718	994
529.933	1154
530.148	1170
530.363	1053
530.577	1018
530.792	1002
531.007	1001
531.221	938
531.436	1002
531.651	994
531.865	1003
532.08	1013
532.295	957
532.509	1031
532.724	1168
532.938	1285
533.153	1485
533.367	1213
533.582	1161
533.796	1060
534.011	1007
534.225	1037
534.44	1012
534.654	1086
534.868	1202
535.083	1119
535.297	996
535.511	988
535.726	1117
535.94	1060
536.154	1023
536.369	981
536.583	987
536.797	1007
537.011	1015
537.225	1127
537.44	1128
537.654	998
537.868	984
538.082	1015
538.296	993
538.51	1073
538.724	1095
538.938	1043
539.153	993
539.367	966
539.581	985
539.795	1033
540.009	1117
540.222	1029
540.436	1025
540.65	1122
540.864	1176
541.078	1196
541.292	1327
541.506	1097
541.72	1060
541.934	1058
542.147	1026
542.361	1035
542.575	1045
542.789	1028
543.002	934
543.216	1022
543.43	946
543.644	946
543.857	914
544.071	956
544.285	937
544.498	902
544.712	927
544.925	985
545.139	937
545.352	891
545.566	935
545.779	1048
545.993	978
546.206	884
546.42	873
546.633	883
546.847	843
547.06	835
547.274	842
547.487	888
547.7	979
547.914	980
548.127	1157
548.34	1086
548.554	952
548.767	984
548.98	1051
549.193	986
549.407	985
549.62	1146
549.833	1093
550.046	1131
550.259	1157
550.473	1009
550.686	954
550.899	973
551.112	987
551.325	1050
551.538	1083
551.751	937
551.964	919
552.177	904
552.39	887
552.603	901
552.816	921
553.029	871
553.242	898
553.455	947
553.667	993
553.88	993
554.093	901
554.306	842
554.519	797
554.732	789
554.944	759
555.157	785
555.37	775
555.583	767
555.795	793
556.008	778
556.221	808
556.433	781
556.646	781
556.859	783
557.071	820
557.284	818
557.496	833
557.709	852
557.921	811
558.134	755
558.346	719
558.559	717
558.771	765
558.984	836
559.196	769
559.409	745
559.621	701
559.833	715
560.046	699
560.258	696
560.47	737
560.683	683
560.895	680
561.107	662
561.32	676
561.532	681
561.744	764
561.956	802
562.168	705
562.381	714
562.593	733
562.805	735
563.017	696
563.229	671
563.441	661
563.653	688
563.865	697
564.077	694
564.289	711
564.501	696
564.713	759
564.925	742
565.137	696
565.349	693
565.561	694
565.773	706
565.985	725
566.197	801
566.408	816
566.62	854
566.832	842
567.044	834
567.255	882
567.467	987
567.679	877
567.891	873
568.102	880
568.314	897
568.526	862
568.737	805
568.949	860
569.161	771
569.372	685
569.584	688
569.795	691
570.007	704
570.218	747
570.43	704
570.641	697
570.853	656
571.064	667
571.276	687
571.487	694
571.698	657
571.91	671
572.121	669
572.333	607
572.544	606
572.755	630
572.966	589
573.178	618
573.389	650
573.6	644
573.811	647
574.023	570
574.234	571
574.445	572
574.656	583
574.867	600
575.078	590
575.289	585
575.501	646
575.712	584
575.923	572
576.134	531
576.345	554
576.556	547
576.767	553
576.978	528
577.188	533
577.399	511
577.61	537
577.821	540
578.032	556
578.243	589
578.454	558
578.665	567
578.875	549
579.086	555
579.297	554
579.508	559
579.718	548
579.929	548
580.14	528
580.35	513
580.561	484
580.772	473
580.982	482
581.193	484
581.403	480
581.614	486
581.825	454
582.035	474
582.246	470
582.456	471
582.667	489
582.877	471
583.087	436
583.298	456
583.508	437
583.719	465
583.929	456
584.139	463
584.35	463
584.56	477
584.77	469
584.981	472
585.191	459
585.401	466
585.611	490
585.821	496
586.032	506
586.242	487
586.452	461
586.662	456
586.872	495
587.082	500
587.292	482
587.502	471
587.713	463
587.923	470
588.133	511
588.343	460
588.553	481
588.762	475
588.972	455
589.182	449
589.392	463
589.602	456
589.812	480
590.022	514
590.232	517
590.441	454
590.651	452
590.861	469
591.071	497
591.281	432
591.49	459
591.7	453
591.91	441
592.119	451
592.329	464
592.539	444
592.748	485
592.958	469
593.167	476
593.377	487
593.587	492
593.796	484
594.006	482
594.215	473
594.424	474
594.634	497
594.843	490
595.053	439
595.262	443
595.472	441
595.681	436
595.89	423
596.1	432
596.309	448
596.518	430
596.727	426
596.937	438
597.146	437
597.355	466
597.564	420
597.774	433
597.983	420
598.192	416
598.401	380
598.61	393
598.819	411
599.028	386
599.237	373
599.446	381
599.655	368
599.864	387
600.073	373
600.282	383
600.491	385
600.7	391
600.909	377
601.118	372
601.327	373
601.536	381
601.745	407
601.953	416
602.162	375
602.371	394
602.58	401
602.789	403
602.997	378
603.206	368
603.415	390
603.623	376
603.832	346
604.041	346
604.249	377
604.458	383
604.666	365
604.875	346
605.084	332
605.292	341
605.501	367
605.709	397
605.918	362
606.126	351
606.334	345
606.543	353
606.751	352
606.96	351
607.168	352
607.376	353
607.585	341
607.793	353
608.001	352
608.21	363
608.418	357
608.626	350
608.834	339
609.043	331
609.251	343
609.459	340
609.667	342
609.875	360
610.083	344
610.291	361
610.499	336
610.707	343
610.916	332
611.124	329
611.332	332
611.54	342
611.748	328
611.955	339
612.163	343
612.371	341
612.579	344
612.787	324
612.995	323
613.203	331
613.411	355
613.618	329
613.826	346
614.034	368
614.242	326
614.449	313
614.657	319
614.865	321
615.072	311
615.28	329
615.488	335
615.695	340
615.903	315
616.111	324
616.318	315
616.526	327
616.733	325
616.941	323
617.148	313
617.356	309
617.563	309
617.771	321
617.978	328
618.185	328
618.393	326
618.6	305
618.807	319
619.015	330
619.222	327
619.429	323
619.637	319
619.844	310
620.051	299
620.258	316
620.466	288
620.673	275
620.88	281
621.087	289
621.294	300
621.501	293
621.708	318
621.915	295
622.122	265
622.329	295
622.536	313
622.743	314
622.95	286
623.157	291
623.364	316
623.571	292
623.778	303
623.985	311
624.192	298
624.399	293
624.606	292
624.812	300
625.019	309
625.226	306
625.433	305
625.639	313
625.846	283
626.053	284
626.259	299
626.466	284
626.673	291
626.879	290
627.086	294
627.293	275
627.499	278
627.706	291
627.912	260
628.119	274
628.325	265
628.532	274
628.738	271
628.945	274
629.151	276
629.357	253
629.564	265
629.77	257
629.976	252
630.183	249
630.389	267
630.595	273
630.802	260
631.008	239
631.214	261
631.42	267
631.627	254
631.833	254
632.039	269
632.245	253
632.451	243
632.657	248
632.863	252
633.069	231
633.275	255
633.481	246
633.688	251
633.893	258
634.099	247
634.305	241
634.511	241
634.717	263
634.923	239
635.129	225
635.335	245
635.541	257
635.747	239
635.952	232
636.158	241
636.364	245
636.57	243
636.775	218
636.981	253
637.187	239
637.392	237
637.598	231
637.804	244
638.009	230
638.215	233
638.421	212
638.626	240
638.832	224
639.037	226
639.243	234
639.448	205
639.654	231
639.859	243
640.065	245
640.27	250
640.475	227
640.681	223
640.886	217
641.091	228
641.297	241
641.502	233
641.707	218
641.913	231
642.118	220
642.323	214
642.528	220
642.733	253
642.939	219
643.144	214
643.349	220
643.554	217
643.759	225
643.964	219
644.169	208
644.374	216
644.579	207
644.784	195
644.989	215
645.194	221
645.399	221
645.604	221
645.809	198
646.014	211
646.219	201
646.423	211
646.628	215
646.833	211
647.038	188
647.243	233
647.447	207
647.652	226
647.857	225
648.062	213
648.266	215
648.471	198
648.676	219
648.88	223
649.085	208
649.289	196
649.494	215
649.698	223
649.903	218
650.107	220
650.312	209
650.516	194
650.721	186
650.925	193
651.13	178
651.334	179
651.539	172
651.743	185
651.947	173
652.152	187
652.356	181
652.56	183
652.764	178
652.969	181
653.173	175
653.377	179
653.581	184
653.785	165
653.99	168
654.194	175
654.398	178
654.602	165
654.806	148
655.01	152
655.214	153
655.418	177
655.622	156
655.826	159
656.03	163
656.234	191
656.438	163
656.642	176
656.846	151
657.049	160
657.253	165
657.457	158
657.661	142
657.865	134
658.068	147
658.272	134
658.476	124
658.68	122
658.883	121
659.087	123
659.291	118
659.494	105
659.698	121
659.901	115
660.105	116
660.309	105
660.512	117
660.716	113
660.919	119
661.123	105
661.326	103
661.53	100
661.733	101
661.936	96
662.14	99
662.343	92
662.546	88
662.75	91
662.953	94
663.156	91
663.36	101
663.563	84
663.766	91
663.969	89
664.173	92
664.376	100
664.579	89
664.782	100
664.985	101
665.188	96
665.391	83
665.594	75
665.797	83
666	89
666.203	75
666.406	83
666.609	88
666.812	89
667.015	72
667.218	81
667.421	59
667.624	87
667.827	93
668.03	90
668.232	85
668.435	89
668.638	83
668.841	79
669.043	85
669.246	76
669.449	89
669.651	102
669.854	83
670.057	83
670.259	91
670.462	83
670.665	84
670.867	87
671.07	85
671.272	83
671.475	83
671.677	87
671.88	78
672.082	93
672.284	85
672.487	91
672.689	92
672.892	81
