Data from NickelSpatula_HRD10591_16-35-19-126.txt Node
Date: Mon Jul 22 16:35:19 EDT 2019
User: cochatt
Spectrometer: HR+D1059
Trigger mode: 1
Integration Time (sec): 1.000000E-1
Scans to average: 1
Electric dark correction enabled: true
Nonlinearity correction enabled: false
Boxcar width: 0
XAxis mode: Wavelengths
Number of Pixels in Spectrum: 2048
>>>>>Begin Spectral Data<<<<<
223.165	-16
223.4	-16
223.635	-16
223.869	-30
224.104	-26
224.338	3
224.573	-7
224.808	-25
225.042	4
225.277	-9
225.511	-12
225.746	-5
225.98	11
226.215	4
226.449	12
226.683	32
226.918	32
227.152	32
227.387	36
227.621	31
227.856	32
228.09	42
228.324	59
228.559	54
228.793	62
229.027	69
229.262	84
229.496	62
229.73	77
229.964	93
230.199	90
230.433	91
230.667	89
230.901	98
231.136	81
231.37	81
231.604	103
231.838	98
232.072	90
232.306	103
232.541	110
232.775	101
233.009	112
233.243	103
233.477	103
233.711	115
233.945	115
234.179	115
234.413	111
234.647	118
234.881	148
235.115	123
235.349	119
235.583	119
235.817	123
236.051	129
236.285	126
236.519	136
236.753	132
236.987	128
237.221	115
237.455	132
237.689	137
237.922	130
238.156	139
238.39	143
238.624	162
238.858	145
239.091	149
239.325	150
239.559	151
239.793	145
240.027	171
240.26	162
240.494	140
240.728	149
240.961	174
241.195	158
241.429	159
241.662	161
241.896	132
242.13	132
242.363	137
242.597	144
242.83	154
243.064	136
243.298	161
243.531	154
243.765	138
243.998	176
244.232	138
244.465	162
244.699	142
244.932	161
245.166	168
245.399	160
245.633	156
245.866	155
246.099	159
246.333	170
246.566	182
246.8	178
247.033	169
247.266	168
247.5	176
247.733	170
247.966	166
248.2	172
248.433	183
248.666	181
248.899	185
249.133	189
249.366	203
249.599	212
249.832	200
250.066	202
250.299	197
250.532	187
250.765	200
250.998	186
251.231	169
251.465	186
251.698	196
251.931	199
252.164	206
252.397	212
252.63	223
252.863	239
253.096	236
253.329	241
253.562	240
253.795	271
254.028	294
254.261	302
254.494	278
254.727	253
254.96	256
255.193	261
255.426	258
255.659	217
255.892	186
256.124	182
256.357	233
256.59	272
256.823	260
257.056	224
257.289	212
257.521	224
257.754	235
257.987	279
258.22	262
258.452	242
258.685	236
258.918	269
259.151	254
259.383	269
259.616	299
259.849	287
260.081	342
260.314	334
260.547	296
260.779	291
261.012	331
261.244	307
261.477	315
261.71	319
261.942	265
262.175	289
262.407	270
262.64	262
262.872	308
263.105	294
263.337	332
263.57	295
263.802	222
264.035	206
264.267	199
264.499	196
264.732	188
264.964	159
265.197	158
265.429	187
265.661	187
265.894	185
266.126	212
266.358	220
266.591	257
266.823	315
267.055	287
267.287	258
267.52	242
267.752	265
267.984	295
268.216	281
268.448	252
268.681	245
268.913	247
269.145	273
269.377	271
269.609	283
269.841	262
270.073	253
270.306	288
270.538	288
270.77	287
271.002	276
271.234	300
271.466	310
271.698	294
271.93	287
272.162	279
272.394	276
272.626	265
272.858	294
273.09	287
273.322	269
273.553	261
273.785	304
274.017	351
274.249	436
274.481	443
274.713	474
274.945	556
275.176	572
275.408	524
275.64	468
275.872	472
276.104	422
276.335	365
276.567	358
276.799	373
277.031	394
277.262	305
277.494	274
277.726	248
277.957	263
278.189	288
278.421	295
278.652	292
278.884	282
279.115	260
279.347	242
279.579	257
279.81	232
280.042	252
280.273	261
280.505	249
280.736	226
280.968	210
281.199	219
281.431	257
281.662	272
281.894	235
282.125	242
282.356	274
282.588	287
282.819	252
283.051	260
283.282	310
283.513	352
283.745	396
283.976	404
284.207	378
284.439	392
284.67	375
284.901	322
285.132	369
285.364	366
285.595	342
285.826	377
286.057	378
286.288	356
286.52	368
286.751	382
286.982	386
287.213	352
287.444	342
287.675	357
287.906	338
288.138	286
288.369	266
288.6	270
288.831	259
289.062	296
289.293	326
289.524	310
289.755	294
289.986	310
290.217	290
290.448	226
290.679	201
290.91	209
291.141	209
291.371	217
291.602	195
291.833	213
292.064	215
292.295	238
292.526	269
292.757	281
292.987	297
293.218	314
293.449	304
293.68	327
293.91	308
294.141	321
294.372	297
294.603	290
294.833	297
295.064	343
295.295	334
295.525	254
295.756	245
295.987	203
296.217	226
296.448	226
296.679	205
296.909	221
297.14	252
297.37	277
297.601	280
297.831	234
298.062	253
298.292	262
298.523	290
298.753	326
298.984	312
299.214	266
299.445	227
299.675	215
299.905	207
300.136	213
300.366	222
300.597	227
300.827	206
301.057	211
301.288	215
301.518	215
301.748	251
301.979	263
302.209	262
302.439	272
302.669	243
302.9	265
303.13	245
303.36	230
303.59	202
303.82	226
304.051	248
304.281	272
304.511	264
304.741	225
304.971	250
305.201	249
305.431	237
305.661	215
305.891	223
306.121	224
306.352	195
306.582	184
306.812	178
307.042	178
307.272	168
307.502	187
307.731	199
307.961	197
308.191	185
308.421	184
308.651	185
308.881	167
309.111	168
309.341	164
309.571	190
309.8	168
310.03	194
310.26	205
310.49	194
310.72	178
310.949	169
311.179	183
311.409	196
311.639	219
311.868	267
312.098	322
312.328	369
312.557	339
312.787	343
313.017	308
313.246	307
313.476	356
313.706	301
313.935	259
314.165	210
314.394	206
314.624	198
314.853	211
315.083	211
315.312	187
315.542	211
315.771	188
316.001	176
316.23	178
316.46	190
316.689	182
316.919	193
317.148	186
317.377	185
317.607	193
317.836	199
318.065	231
318.295	216
318.524	214
318.753	201
318.983	189
319.212	182
319.441	205
319.67	215
319.9	246
320.129	223
320.358	217
320.587	196
320.816	203
321.046	214
321.275	269
321.504	256
321.733	239
321.962	251
322.191	224
322.42	210
322.649	223
322.878	239
323.108	237
323.337	206
323.566	227
323.795	209
324.024	216
324.253	202
324.482	198
324.71	199
324.939	224
325.168	214
325.397	185
325.626	198
325.855	178
326.084	190
326.313	172
326.542	179
326.77	190
326.999	178
327.228	189
327.457	195
327.686	207
327.914	187
328.143	185
328.372	162
328.6	165
328.829	162
329.058	187
329.287	157
329.515	174
329.744	179
329.972	176
330.201	170
330.43	186
330.658	167
330.887	210
331.115	196
331.344	194
331.572	191
331.801	194
332.03	176
332.258	171
332.486	192
332.715	203
332.943	186
333.172	185
333.4	192
333.629	208
333.857	213
334.085	197
334.314	211
334.542	220
334.771	186
334.999	176
335.227	187
335.455	192
335.684	185
335.912	216
336.14	245
336.369	244
336.597	228
336.825	248
337.053	276
337.281	238
337.51	181
337.738	204
337.966	202
338.194	232
338.422	214
338.65	189
338.878	182
339.106	186
339.334	215
339.562	218
339.79	214
340.018	184
340.246	200
340.474	215
340.702	218
340.93	247
341.158	233
341.386	214
341.614	204
341.842	210
342.07	211
342.298	229
342.526	246
342.754	239
342.981	204
343.209	201
343.437	201
343.665	225
343.893	229
344.12	242
344.348	297
344.576	260
344.804	215
345.031	216
345.259	200
345.487	194
345.714	198
345.942	202
346.17	223
346.397	220
346.625	195
346.853	187
347.08	182
347.308	192
347.535	206
347.763	216
347.99	198
348.218	189
348.445	191
348.673	203
348.9	200
349.128	203
349.355	198
349.583	216
349.81	192
350.037	198
350.265	176
350.492	192
350.72	178
350.947	160
351.174	176
351.402	176
351.629	189
351.856	187
352.083	190
352.311	200
352.538	202
352.765	214
352.992	207
353.22	204
353.447	185
353.674	185
353.901	203
354.128	201
354.355	199
354.583	212
354.81	200
355.037	208
355.264	213
355.491	196
355.718	210
355.945	209
356.172	203
356.399	217
356.626	231
356.853	273
357.08	292
357.307	309
357.534	250
357.761	251
357.988	296
358.215	332
358.441	306
358.668	304
358.895	279
359.122	215
359.349	235
359.576	228
359.802	209
360.029	191
360.256	199
360.483	241
360.709	285
360.936	293
361.163	282
361.39	220
361.616	201
361.843	221
362.07	243
362.296	248
362.523	201
362.749	186
362.976	187
363.203	202
363.429	229
363.656	206
363.882	207
364.109	192
364.335	188
364.562	181
364.788	200
365.015	223
365.241	227
365.468	195
365.694	150
365.92	166
366.147	163
366.373	167
366.599	158
366.826	162
367.052	158
367.278	164
367.505	178
367.731	180
367.957	176
368.184	208
368.41	186
368.636	191
368.862	212
369.089	205
369.315	185
369.541	185
369.767	179
369.993	179
370.219	169
370.445	177
370.672	209
370.898	210
371.124	217
371.35	179
371.576	166
371.802	171
372.028	200
372.254	227
372.48	217
372.706	201
372.932	204
373.158	223
373.384	224
373.61	302
373.835	292
374.061	246
374.287	202
374.513	241
374.739	296
374.965	284
375.191	285
375.416	203
375.642	187
375.868	211
376.094	258
376.319	211
376.545	234
376.771	215
376.997	221
377.222	182
377.448	160
377.674	155
377.899	166
378.125	170
378.35	176
378.576	178
378.802	172
379.027	205
379.253	190
379.478	190
379.704	207
379.929	207
380.155	207
380.38	191
380.606	197
380.831	233
381.057	212
381.282	188
381.507	218
381.733	253
381.958	258
382.184	260
382.409	307
382.634	291
382.86	314
383.085	266
383.31	204
383.535	218
383.761	233
383.986	216
384.211	266
384.436	266
384.662	204
384.887	196
385.112	209
385.337	209
385.562	203
385.787	217
386.013	243
386.238	233
386.463	198
386.688	204
386.913	184
387.138	179
387.363	199
387.588	213
387.813	204
388.038	214
388.263	207
388.488	200
388.713	215
388.938	229
389.163	201
389.387	191
389.612	180
389.837	186
390.062	198
390.287	199
390.512	193
390.736	199
390.961	186
391.186	182
391.411	167
391.636	176
391.86	194
392.085	203
392.31	206
392.534	196
392.759	201
392.984	204
393.208	181
393.433	176
393.658	158
393.882	178
394.107	180
394.331	173
394.556	168
394.78	162
395.005	189
395.229	186
395.454	162
395.678	178
395.903	172
396.127	187
396.352	187
396.576	202
396.801	217
397.025	225
397.249	222
397.474	177
397.698	193
397.922	191
398.147	192
398.371	196
398.595	193
398.82	196
399.044	197
399.268	193
399.492	198
399.717	226
399.941	215
400.165	213
400.389	226
400.613	210
400.837	209
401.062	186
401.286	175
401.51	181
401.734	196
401.958	195
402.182	198
402.406	205
402.63	192
402.854	201
403.078	219
403.302	264
403.526	298
403.75	242
403.974	235
404.198	239
404.422	262
404.645	266
404.869	276
405.093	234
405.317	209
405.541	208
405.765	219
405.988	214
406.212	214
406.436	237
406.66	234
406.883	214
407.107	213
407.331	260
407.555	260
407.778	213
408.002	220
408.226	211
408.449	219
408.673	195
408.896	203
409.12	174
409.344	207
409.567	184
409.791	186
410.014	175
410.238	197
410.461	186
410.685	183
410.908	192
411.132	198
411.355	185
411.578	211
411.802	190
412.025	212
412.249	201
412.472	202
412.695	193
412.919	191
413.142	209
413.365	221
413.589	194
413.812	197
414.035	189
414.258	211
414.482	203
414.705	200
414.928	183
415.151	185
415.374	187
415.597	177
415.821	207
416.044	199
416.267	196
416.49	174
416.713	180
416.936	186
417.159	184
417.382	166
417.605	179
417.828	208
418.051	183
418.274	201
418.497	203
418.72	204
418.943	185
419.166	212
419.389	191
419.611	199
419.834	202
420.057	216
420.28	238
420.503	223
420.726	194
420.948	196
421.171	177
421.394	189
421.617	179
421.839	188
422.062	207
422.285	204
422.507	208
422.73	195
422.953	201
423.175	208
423.398	200
423.621	227
423.843	225
424.066	196
424.288	200
424.511	186
424.733	190
424.956	201
425.178	214
425.401	231
425.623	248
425.846	249
426.068	205
426.291	219
426.513	211
426.735	190
426.958	193
427.18	214
427.402	281
427.625	282
427.847	249
428.069	199
428.292	184
428.514	193
428.736	191
428.958	186
429.181	245
429.403	209
429.625	192
429.847	184
430.069	179
430.292	197
430.514	189
430.736	179
430.958	222
431.18	217
431.402	179
431.624	179
431.846	160
432.068	174
432.29	180
432.512	183
432.734	226
432.956	208
433.178	191
433.4	172
433.622	174
433.844	187
434.066	193
434.287	195
434.509	197
434.731	219
434.953	185
435.175	180
435.397	217
435.618	195
435.84	183
436.062	185
436.284	171
436.505	174
436.727	167
436.949	166
437.17	157
437.392	179
437.614	190
437.835	183
438.057	182
438.278	207
438.5	244
438.721	259
438.943	194
439.165	167
439.386	168
439.608	174
439.829	177
440.05	174
440.272	161
440.493	204
440.715	222
440.936	198
441.158	184
441.379	178
441.6	217
441.822	222
442.043	186
442.264	192
442.486	189
442.707	178
442.928	170
443.149	193
443.371	185
443.592	191
443.813	186
444.034	177
444.255	191
444.476	206
444.698	198
444.919	200
445.14	314
445.361	248
445.582	219
445.803	202
446.024	204
446.245	202
446.466	202
446.687	196
446.908	188
447.129	178
447.35	179
447.571	186
447.792	168
448.013	181
448.234	174
448.455	164
448.675	190
448.896	187
449.117	171
449.338	186
449.559	169
449.779	193
450	189
450.221	163
450.442	186
450.662	170
450.883	168
451.104	186
451.324	167
451.545	180
451.766	174
451.986	192
452.207	174
452.428	164
452.648	178
452.869	177
453.089	182
453.31	183
453.53	175
453.751	160
453.971	182
454.192	174
454.412	178
454.633	162
454.853	164
455.073	158
455.294	161
455.514	165
455.734	174
455.955	187
456.175	186
456.395	170
456.616	166
456.836	167
457.056	148
457.276	168
457.497	156
457.717	163
457.937	160
458.157	171
458.377	164
458.598	154
458.818	180
459.038	180
459.258	183
459.478	179
459.698	190
459.918	199
460.138	211
460.358	203
460.578	192
460.798	181
461.018	195
461.238	201
461.458	197
461.678	190
461.898	196
462.118	194
462.338	187
462.558	192
462.777	199
462.997	210
463.217	217
463.437	227
463.657	207
463.876	204
464.096	202
464.316	194
464.536	194
464.755	219
464.975	238
465.195	218
465.414	207
465.634	194
465.854	203
466.073	190
466.293	186
466.512	199
466.732	211
466.951	229
467.171	200
467.391	174
467.61	182
467.829	193
468.049	193
468.268	191
468.488	163
468.707	181
468.927	214
469.146	229
469.365	216
469.585	194
469.804	211
470.023	216
470.243	196
470.462	202
470.681	193
470.901	194
471.12	240
471.339	207
471.558	214
471.777	199
471.997	222
472.216	215
472.435	216
472.654	212
472.873	210
473.092	210
473.311	204
473.53	197
473.749	184
473.968	208
474.187	201
474.406	213
474.625	189
474.844	197
475.063	220
475.282	219
475.501	225
475.72	239
475.939	235
476.158	219
476.377	250
476.596	278
476.814	292
477.033	278
477.252	213
477.471	202
477.69	200
477.908	214
478.127	226
478.346	213
478.564	248
478.783	233
479.002	233
479.22	245
479.439	246
479.658	236
479.876	215
480.095	259
480.313	246
480.532	235
480.751	225
480.969	230
481.188	236
481.406	276
481.624	250
481.843	217
482.061	210
482.28	220
482.498	295
482.717	279
482.935	255
483.153	241
483.372	219
483.59	216
483.808	217
484.027	195
484.245	196
484.463	193
484.681	192
484.9	228
485.118	224
485.336	210
485.554	202
485.772	212
485.99	234
486.209	240
486.427	240
486.645	222
486.863	252
487.081	230
487.299	270
487.517	272
487.735	233
487.953	243
488.171	235
488.389	218
488.607	226
488.825	232
489.043	232
489.261	287
489.479	300
489.696	243
489.914	222
490.132	227
490.35	226
490.568	211
490.786	215
491.003	225
491.221	220
491.439	220
491.657	212
491.874	236
492.092	287
492.31	365
492.527	329
492.745	262
492.963	239
493.18	232
493.398	260
493.615	245
493.833	244
494.05	232
494.268	249
494.485	232
494.703	225
494.92	240
495.138	240
495.355	239
495.573	235
495.79	271
496.008	335
496.225	283
496.442	292
496.66	261
496.877	276
497.094	276
497.312	255
497.529	252
497.746	238
497.963	242
498.181	260
498.398	278
498.615	308
498.832	336
499.049	328
499.267	303
499.484	307
499.701	327
499.918	336
500.135	386
500.352	363
500.569	388
500.786	422
501.003	396
501.22	368
501.437	331
501.654	312
501.871	315
502.088	300
502.305	280
502.522	287
502.739	300
502.956	270
503.172	264
503.389	226
503.606	233
503.823	244
504.04	244
504.256	246
504.473	268
504.69	268
504.907	269
505.123	265
505.34	266
505.557	272
505.773	254
505.99	232
506.207	246
506.423	259
506.64	233
506.856	260
507.073	262
507.289	261
507.506	267
507.722	272
507.939	275
508.155	274
508.372	258
508.588	243
508.805	254
509.021	239
509.238	251
509.454	232
509.67	220
509.887	221
510.103	256
510.319	251
510.536	225
510.752	231
510.968	222
511.184	198
511.401	213
511.617	214
511.833	223
512.049	211
512.265	219
512.481	225
512.698	259
512.914	265
513.13	244
513.346	222
513.562	227
513.778	239
513.994	213
514.21	233
514.426	244
514.642	225
514.858	233
515.074	226
515.29	223
515.506	254
515.721	265
515.937	228
516.153	223
516.369	218
516.585	228
516.801	272
517.016	315
517.232	304
517.448	270
517.664	264
517.879	266
518.095	247
518.311	260
518.527	272
518.742	289
518.958	299
519.173	281
519.389	284
519.605	274
519.82	282
520.036	329
520.251	300
520.467	299
520.682	479
520.898	578
521.113	540
521.329	329
521.544	305
521.76	272
521.975	241
522.19	235
522.406	258
522.621	260
522.836	268
523.052	309
523.267	256
523.482	260
523.698	262
523.913	254
524.128	226
524.343	219
524.559	226
524.774	241
524.989	229
525.204	242
525.419	251
525.634	233
525.849	254
526.064	237
526.28	243
526.495	285
526.71	309
526.925	268
527.14	274
527.355	264
527.57	228
527.785	262
527.999	228
528.214	219
528.429	212
528.644	205
528.859	206
529.074	194
529.289	196
529.503	198
529.718	228
529.933	267
530.148	283
530.363	223
530.577	198
530.792	216
531.007	204
531.221	228
531.436	185
531.651	186
531.865	207
532.08	216
532.295	202
532.509	232
532.724	241
532.938	267
533.153	346
533.367	245
533.582	230
533.796	208
534.011	202
534.225	203
534.44	222
534.654	224
534.868	269
535.083	239
535.297	216
535.511	179
535.726	241
535.94	226
536.154	198
536.369	194
536.583	213
536.797	210
537.011	220
537.225	244
537.44	262
537.654	202
537.868	226
538.082	213
538.296	200
538.51	226
538.724	231
538.938	211
539.153	199
539.367	200
539.581	206
539.795	213
540.009	253
540.222	215
540.436	214
540.65	226
540.864	251
541.078	254
541.292	284
541.506	225
541.72	237
541.934	218
542.147	214
542.361	209
542.575	220
542.789	210
543.002	198
543.216	227
543.43	214
543.644	204
543.857	189
544.071	201
544.285	178
544.498	198
544.712	200
544.925	219
545.139	196
545.352	190
545.566	194
545.779	232
545.993	208
546.206	182
546.42	192
546.633	176
546.847	185
547.06	169
547.274	170
547.487	187
547.7	181
547.914	203
548.127	229
548.34	235
548.554	196
548.767	194
548.98	224
549.193	201
549.407	204
549.62	227
549.833	229
550.046	213
550.259	222
550.473	212
550.686	204
550.899	218
551.112	202
551.325	224
551.538	209
551.751	202
551.964	203
552.177	197
552.39	197
552.603	188
552.816	203
553.029	198
553.242	172
553.455	202
553.667	205
553.88	200
554.093	202
554.306	161
554.519	178
554.732	168
554.944	157
555.157	169
555.37	163
555.583	161
555.795	167
556.008	178
556.221	190
556.433	194
556.646	191
556.859	172
557.071	176
557.284	182
557.496	178
557.709	181
557.921	199
558.134	169
558.346	174
558.559	167
558.771	172
558.984	202
559.196	182
559.409	168
559.621	161
559.833	167
560.046	186
560.258	161
560.47	184
560.683	160
560.895	166
561.107	176
561.32	162
561.532	152
561.744	186
561.956	171
562.168	152
562.381	159
562.593	178
562.805	164
563.017	152
563.229	158
563.441	154
563.653	164
563.865	178
564.077	160
564.289	156
564.501	177
564.713	184
564.925	163
565.137	175
565.349	169
565.561	168
565.773	153
565.985	159
566.197	193
566.408	194
566.62	202
566.832	190
567.044	200
567.255	210
567.467	234
567.679	221
567.891	207
568.102	213
568.314	235
568.526	179
568.737	193
568.949	195
569.161	170
569.372	169
569.584	175
569.795	150
570.007	192
570.218	177
570.43	183
570.641	156
570.853	168
571.064	161
571.276	173
571.487	184
571.698	163
571.91	168
572.121	164
572.333	149
572.544	160
572.755	164
572.966	153
573.178	164
573.389	154
573.6	147
573.811	163
574.023	147
574.234	153
574.445	151
574.656	158
574.867	141
575.078	149
575.289	141
575.501	149
575.712	150
575.923	145
576.134	150
576.345	135
576.556	150
576.767	150
576.978	144
577.188	142
577.399	140
577.61	137
577.821	144
578.032	144
578.243	148
578.454	137
578.665	159
578.875	159
579.086	142
579.297	168
579.508	151
579.718	152
579.929	150
580.14	150
580.35	152
580.561	149
580.772	129
580.982	138
581.193	127
581.403	121
581.614	140
581.825	149
582.035	133
582.246	140
582.456	136
582.667	134
582.877	129
583.087	131
583.298	139
583.508	136
583.719	150
583.929	146
584.139	150
584.35	131
584.56	121
584.77	134
584.981	134
585.191	138
585.401	118
585.611	134
585.821	142
586.032	134
586.242	130
586.452	124
586.662	120
586.872	132
587.082	126
587.292	134
587.502	132
587.713	130
587.923	148
588.133	154
588.343	124
588.553	133
588.762	138
588.972	138
589.182	143
589.392	126
589.602	129
589.812	114
590.022	137
590.232	150
590.441	113
590.651	136
590.861	134
591.071	136
591.281	139
591.49	133
591.7	140
591.91	141
592.119	124
592.329	126
592.539	132
592.748	147
592.958	122
593.167	130
593.377	132
593.587	159
593.796	134
594.006	138
594.215	121
594.424	140
594.634	150
594.843	151
595.053	137
595.262	131
595.472	107
595.681	136
595.89	124
596.1	126
596.309	130
596.518	122
596.727	135
596.937	134
597.146	131
597.355	128
597.564	108
597.774	110
597.983	132
598.192	123
598.401	123
598.61	127
598.819	124
599.028	132
599.237	128
599.446	130
599.655	112
599.864	121
600.073	119
600.282	127
600.491	125
600.7	111
600.909	138
601.118	121
601.327	118
601.536	114
601.745	129
601.953	135
602.162	131
602.371	126
602.58	127
602.789	121
602.997	119
603.206	128
603.415	113
603.623	105
603.832	111
604.041	122
604.249	128
604.458	120
604.666	121
604.875	112
605.084	121
605.292	106
605.501	115
605.709	120
605.918	131
606.126	136
606.334	119
606.543	131
606.751	119
606.96	100
607.168	121
607.376	108
607.585	138
607.793	122
608.001	100
608.21	124
608.418	132
608.626	126
608.834	116
609.043	121
609.251	120
609.459	127
609.667	122
609.875	110
610.083	106
610.291	113
610.499	123
610.707	111
610.916	116
611.124	127
611.332	115
611.54	109
611.748	118
611.955	116
612.163	112
612.371	112
612.579	112
612.787	116
612.995	121
613.203	114
613.411	117
613.618	116
613.826	123
614.034	137
614.242	117
614.449	108
614.657	122
614.865	114
615.072	111
615.28	119
615.488	96
615.695	136
615.903	122
616.111	105
616.318	122
616.526	100
616.733	115
616.941	111
617.148	110
617.356	109
617.563	121
617.771	105
617.978	111
618.185	113
618.393	118
618.6	121
618.807	113
619.015	121
619.222	103
619.429	112
619.637	114
619.844	104
620.051	97
620.258	101
620.466	107
620.673	115
620.88	136
621.087	114
621.294	120
621.501	119
621.708	116
621.915	100
622.122	116
622.329	134
622.536	122
622.743	115
622.95	112
623.157	107
623.364	108
623.571	107
623.778	102
623.985	121
624.192	118
624.399	140
624.606	120
624.812	108
625.019	106
625.226	100
625.433	98
625.639	119
625.846	117
626.053	118
626.259	118
626.466	102
626.673	107
626.879	104
627.086	104
627.293	104
627.499	118
627.706	104
627.912	114
628.119	105
628.325	95
628.532	94
628.738	95
628.945	104
629.151	118
629.357	110
629.564	105
629.77	104
629.976	112
630.183	104
630.389	102
630.595	99
630.802	117
631.008	118
631.214	107
631.42	120
631.627	106
631.833	101
632.039	118
632.245	96
632.451	110
632.657	101
632.863	102
633.069	100
633.275	110
633.481	106
633.688	106
633.893	103
634.099	97
634.305	96
634.511	101
634.717	105
634.923	95
635.129	100
635.335	95
635.541	107
635.747	100
635.952	104
636.158	110
636.364	109
636.57	92
636.775	99
636.981	101
637.187	105
637.392	98
637.598	97
637.804	94
638.009	87
638.215	104
638.421	99
638.626	102
638.832	102
639.037	102
639.243	94
639.448	103
639.654	110
639.859	97
640.065	107
640.27	97
640.475	114
640.681	115
640.886	101
641.091	90
641.297	113
641.502	91
641.707	96
641.913	116
642.118	118
642.323	104
642.528	99
642.733	116
642.939	98
643.144	110
643.349	114
643.554	112
643.759	102
643.964	89
644.169	94
644.374	94
644.579	98
644.784	88
644.989	102
645.194	92
645.399	87
645.604	95
645.809	91
646.014	97
646.219	104
646.423	108
646.628	93
646.833	99
647.038	98
647.243	87
647.447	110
647.652	94
647.857	102
648.062	119
648.266	95
648.471	102
648.676	87
648.88	94
649.085	98
649.289	98
649.494	83
649.698	94
649.903	102
650.107	114
650.312	104
650.516	104
650.721	96
650.925	94
651.13	84
651.334	102
651.539	104
651.743	96
651.947	95
652.152	95
652.356	76
652.56	99
652.764	88
652.969	91
653.173	91
653.377	87
653.581	86
653.785	83
653.99	88
654.194	87
654.398	87
654.602	86
654.806	87
655.01	95
655.214	90
655.418	94
655.622	87
655.826	90
656.03	86
656.234	91
656.438	93
656.642	97
656.846	98
657.049	86
657.253	94
657.457	91
657.661	109
657.865	92
658.068	84
658.272	87
658.476	76
658.68	98
658.883	81
659.087	85
659.291	86
659.494	91
659.698	75
659.901	93
660.105	84
660.309	82
660.512	83
660.716	86
660.919	85
661.123	76
661.326	87
661.53	74
661.733	86
661.936	83
662.14	85
662.343	85
662.546	84
662.75	84
662.953	94
663.156	77
663.36	75
663.563	87
663.766	75
663.969	80
664.173	89
664.376	78
664.579	76
664.782	93
664.985	68
665.188	76
665.391	79
665.594	78
665.797	94
666	86
666.203	81
666.406	76
666.609	79
666.812	88
667.015	77
667.218	85
667.421	71
667.624	75
667.827	75
668.03	77
668.232	67
668.435	94
668.638	76
668.841	87
669.043	74
669.246	77
669.449	87
669.651	82
669.854	74
670.057	84
670.259	84
670.462	80
670.665	77
670.867	72
671.07	79
671.272	70
671.475	91
671.677	74
671.88	88
672.082	83
672.284	76
672.487	84
672.689	80
672.892	79
