Data from NickelSpatula.Lamp.E5.5.P2_HRD10591_11-51-39-559.txt Node
Date: Tue Jul 23 11:51:39 EDT 2019
User: cochatt
Spectrometer: HR+D1059
Trigger mode: 1
Integration Time (sec): 1.000000E-1
Scans to average: 1
Electric dark correction enabled: true
Nonlinearity correction enabled: false
Boxcar width: 0
XAxis mode: Wavelengths
Number of Pixels in Spectrum: 2048
>>>>>Begin Spectral Data<<<<<
223.165	-21.81
223.4	-21.81
223.635	-21.81
223.869	-27.81
224.104	-15.81
224.338	-13.81
224.573	-7.81
224.808	-3.81
225.042	-7.81
225.277	-9.81
225.511	-17.81
225.746	2.19
225.98	10.19
226.215	13.19
226.449	7.19
226.683	22.19
226.918	24.19
227.152	47.19
227.387	44.19
227.621	28.19
227.856	47.19
228.09	38.19
228.324	60.19
228.559	72.19
228.793	59.19
229.027	69.19
229.262	69.19
229.496	90.19
229.73	70.19
229.964	100.19
230.199	108.19
230.433	98.19
230.667	116.19
230.901	114.19
231.136	106.19
231.37	93.19
231.604	89.19
231.838	96.19
232.072	106.19
232.306	113.19
232.541	105.19
232.775	103.19
233.009	112.19
233.243	106.19
233.477	124.19
233.711	128.19
233.945	114.19
234.179	127.19
234.413	130.19
234.647	124.19
234.881	148.19
235.115	116.19
235.349	126.19
235.583	122.19
235.817	124.19
236.051	133.19
236.285	126.19
236.519	138.19
236.753	150.19
236.987	130.19
237.221	126.19
237.455	129.19
237.689	131.19
237.922	153.19
238.156	138.19
238.39	152.19
238.624	174.19
238.858	156.19
239.091	140.19
239.325	133.19
239.559	142.19
239.793	141.19
240.027	177.19
240.26	149.19
240.494	166.19
240.728	168.19
240.961	189.19
241.195	187.19
241.429	170.19
241.662	172.19
241.896	152.19
242.13	154.19
242.363	140.19
242.597	138.19
242.83	147.19
243.064	134.19
243.298	158.19
243.531	170.19
243.765	170.19
243.998	181.19
244.232	162.19
244.465	163.19
244.699	161.19
244.932	174.19
245.166	151.19
245.399	148.19
245.633	154.19
245.866	161.19
246.099	164.19
246.333	186.19
246.566	194.19
246.8	183.19
247.033	192.19
247.266	172.19
247.5	166.19
247.733	177.19
247.966	165.19
248.2	190.19
248.433	184.19
248.666	199.19
248.899	204.19
249.133	193.19
249.366	217.19
249.599	232.19
249.832	203.19
250.066	200.19
250.299	182.19
250.532	204.19
250.765	200.19
250.998	187.19
251.231	200.19
251.465	199.19
251.698	200.19
251.931	208.19
252.164	209.19
252.397	208.19
252.63	222.19
252.863	244.19
253.096	261.19
253.329	270.19
253.562	262.19
253.795	256.19
254.028	294.19
254.261	295.19
254.494	249.19
254.727	244.19
254.96	262.19
255.193	266.19
255.426	260.19
255.659	222.19
255.892	202.19
256.124	219.19
256.357	234.19
256.59	275.19
256.823	251.19
257.056	231.19
257.289	202.19
257.521	233.19
257.754	265.19
257.987	310.19
258.22	270.19
258.452	242.19
258.685	244.19
258.918	283.19
259.151	285.19
259.383	310.19
259.616	347.19
259.849	332.19
260.081	350.19
260.314	369.19
260.547	312.19
260.779	320.19
261.012	351.19
261.244	341.19
261.477	348.19
261.71	302.19
261.942	286.19
262.175	283.19
262.407	273.19
262.64	287.19
262.872	312.19
263.105	334.19
263.337	353.19
263.57	341.19
263.802	239.19
264.035	221.19
264.267	227.19
264.499	208.19
264.732	195.19
264.964	194.19
265.197	191.19
265.429	197.19
265.661	210.19
265.894	228.19
266.126	230.19
266.358	252.19
266.591	284.19
266.823	317.19
267.055	306.19
267.287	292.19
267.52	293.19
267.752	314.19
267.984	328.19
268.216	329.19
268.448	282.19
268.681	252.19
268.913	266.19
269.145	287.19
269.377	314.19
269.609	293.19
269.841	271.19
270.073	293.19
270.306	320.19
270.538	330.19
270.77	313.19
271.002	314.19
271.234	305.19
271.466	324.19
271.698	326.19
271.93	304.19
272.162	308.19
272.394	333.19
272.626	292.19
272.858	322.19
273.09	333.19
273.322	274.19
273.553	274.19
273.785	307.19
274.017	389.19
274.249	468.19
274.481	450.19
274.713	512.19
274.945	585.19
275.176	577.19
275.408	528.19
275.64	496.19
275.872	502.19
276.104	438.19
276.335	392.19
276.567	388.19
276.799	389.19
277.031	400.19
277.262	347.19
277.494	285.19
277.726	263.19
277.957	291.19
278.189	299.19
278.421	296.19
278.652	299.19
278.884	302.19
279.115	287.19
279.347	281.19
279.579	284.19
279.81	271.19
280.042	273.19
280.273	290.19
280.505	260.19
280.736	257.19
280.968	240.19
281.199	242.19
281.431	267.19
281.662	290.19
281.894	267.19
282.125	289.19
282.356	315.19
282.588	309.19
282.819	282.19
283.051	295.19
283.282	330.19
283.513	406.19
283.745	412.19
283.976	433.19
284.207	392.19
284.439	430.19
284.67	402.19
284.901	368.19
285.132	388.19
285.364	424.19
285.595	354.19
285.826	406.19
286.057	408.19
286.288	393.19
286.52	407.19
286.751	406.19
286.982	397.19
287.213	371.19
287.444	376.19
287.675	368.19
287.906	388.19
288.138	326.19
288.369	296.19
288.6	274.19
288.831	301.19
289.062	342.19
289.293	378.19
289.524	338.19
289.755	335.19
289.986	346.19
290.217	344.19
290.448	260.19
290.679	226.19
290.91	226.19
291.141	236.19
291.371	243.19
291.602	223.19
291.833	235.19
292.064	250.19
292.295	276.19
292.526	302.19
292.757	304.19
292.987	336.19
293.218	351.19
293.449	363.19
293.68	371.19
293.91	342.19
294.141	374.19
294.372	340.19
294.603	309.19
294.833	329.19
295.064	404.19
295.295	394.19
295.525	310.19
295.756	269.19
295.987	243.19
296.217	239.19
296.448	242.19
296.679	243.19
296.909	268.19
297.14	298.19
297.37	322.19
297.601	302.19
297.831	270.19
298.062	282.19
298.292	311.19
298.523	322.19
298.753	374.19
298.984	348.19
299.214	283.19
299.445	268.19
299.675	230.19
299.905	225.19
300.136	235.19
300.366	263.19
300.597	250.19
300.827	246.19
301.057	246.19
301.288	253.19
301.518	261.19
301.748	297.19
301.979	306.19
302.209	322.19
302.439	329.19
302.669	288.19
302.9	286.19
303.13	276.19
303.36	271.19
303.59	252.19
303.82	252.19
304.051	287.19
304.281	315.19
304.511	299.19
304.741	268.19
304.971	288.19
305.201	287.19
305.431	284.19
305.661	262.19
305.891	265.19
306.121	268.19
306.352	243.19
306.582	219.19
306.812	203.19
307.042	207.19
307.272	206.19
307.502	206.19
307.731	215.19
307.961	211.19
308.191	219.19
308.421	192.19
308.651	206.19
308.881	198.19
309.111	207.19
309.341	200.19
309.571	204.19
309.8	205.19
310.03	230.19
310.26	252.19
310.49	211.19
310.72	210.19
310.949	211.19
311.179	219.19
311.409	220.19
311.639	238.19
311.868	292.19
312.098	374.19
312.328	418.19
312.557	376.19
312.787	392.19
313.017	341.19
313.246	355.19
313.476	400.19
313.706	349.19
313.935	289.19
314.165	241.19
314.394	236.19
314.624	244.19
314.853	242.19
315.083	252.19
315.312	232.19
315.542	240.19
315.771	226.19
316.001	211.19
316.23	198.19
316.46	214.19
316.689	213.19
316.919	212.19
317.148	215.19
317.377	226.19
317.607	214.19
317.836	225.19
318.065	240.19
318.295	280.19
318.524	263.19
318.753	215.19
318.983	203.19
319.212	217.19
319.441	227.19
319.67	256.19
319.9	279.19
320.129	239.19
320.358	221.19
320.587	224.19
320.816	236.19
321.046	254.19
321.275	290.19
321.504	272.19
321.733	276.19
321.962	250.19
322.191	250.19
322.42	238.19
322.649	260.19
322.878	274.19
323.108	244.19
323.337	234.19
323.566	258.19
323.795	248.19
324.024	245.19
324.253	229.19
324.482	241.19
324.71	257.19
324.939	263.19
325.168	233.19
325.397	222.19
325.626	212.19
325.855	216.19
326.084	217.19
326.313	217.19
326.542	206.19
326.77	214.19
326.999	225.19
327.228	230.19
327.457	239.19
327.686	231.19
327.914	216.19
328.143	216.19
328.372	218.19
328.6	231.19
328.829	199.19
329.058	204.19
329.287	211.19
329.515	211.19
329.744	226.19
329.972	201.19
330.201	209.19
330.43	202.19
330.658	219.19
330.887	256.19
331.115	246.19
331.344	251.19
331.572	234.19
331.801	225.19
332.03	208.19
332.258	223.19
332.486	254.19
332.715	240.19
332.943	246.19
333.172	231.19
333.4	260.19
333.629	271.19
333.857	277.19
334.085	276.19
334.314	264.19
334.542	254.19
334.771	251.19
334.999	239.19
335.227	226.19
335.455	230.19
335.684	228.19
335.912	288.19
336.14	298.19
336.369	280.19
336.597	268.19
336.825	302.19
337.053	309.19
337.281	281.19
337.51	240.19
337.738	242.19
337.966	237.19
338.194	274.19
338.422	246.19
338.65	229.19
338.878	221.19
339.106	225.19
339.334	243.19
339.562	250.19
339.79	223.19
340.018	232.19
340.246	253.19
340.474	244.19
340.702	279.19
340.93	285.19
341.158	285.19
341.386	257.19
341.614	242.19
341.842	255.19
342.07	256.19
342.298	288.19
342.526	282.19
342.754	272.19
342.981	266.19
343.209	240.19
343.437	268.19
343.665	274.19
343.893	296.19
344.12	326.19
344.348	346.19
344.576	324.19
344.804	273.19
345.031	231.19
345.259	235.19
345.487	233.19
345.714	222.19
345.942	252.19
346.17	279.19
346.397	265.19
346.625	242.19
346.853	230.19
347.08	208.19
347.308	248.19
347.535	281.19
347.763	267.19
347.99	240.19
348.218	229.19
348.445	224.19
348.673	240.19
348.9	233.19
349.128	250.19
349.355	244.19
349.583	256.19
349.81	238.19
350.037	242.19
350.265	211.19
350.492	192.19
350.72	211.19
350.947	208.19
351.174	216.19
351.402	211.19
351.629	243.19
351.856	239.19
352.083	238.19
352.311	224.19
352.538	251.19
352.765	272.19
352.992	258.19
353.22	235.19
353.447	259.19
353.674	226.19
353.901	247.19
354.128	220.19
354.355	236.19
354.583	234.19
354.81	246.19
355.037	265.19
355.264	260.19
355.491	260.19
355.718	265.19
355.945	275.19
356.172	258.19
356.399	259.19
356.626	280.19
356.853	338.19
357.08	361.19
357.307	380.19
357.534	311.19
357.761	310.19
357.988	368.19
358.215	436.19
358.441	411.19
358.668	340.19
358.895	331.19
359.122	298.19
359.349	294.19
359.576	326.19
359.802	272.19
360.029	238.19
360.256	235.19
360.483	292.19
360.709	366.19
360.936	370.19
361.163	316.19
361.39	244.19
361.616	240.19
361.843	242.19
362.07	298.19
362.296	295.19
362.523	250.19
362.749	241.19
362.976	230.19
363.203	275.19
363.429	287.19
363.656	238.19
363.882	220.19
364.109	246.19
364.335	247.19
364.562	227.19
364.788	250.19
365.015	304.19
365.241	242.19
365.468	230.19
365.694	215.19
365.92	216.19
366.147	204.19
366.373	193.19
366.599	210.19
366.826	198.19
367.052	190.19
367.278	213.19
367.505	184.19
367.731	227.19
367.957	249.19
368.184	240.19
368.41	223.19
368.636	213.19
368.862	252.19
369.089	250.19
369.315	233.19
369.541	208.19
369.767	223.19
369.993	226.19
370.219	209.19
370.445	218.19
370.672	262.19
370.898	268.19
371.124	275.19
371.35	222.19
371.576	214.19
371.802	234.19
372.028	278.19
372.254	295.19
372.48	260.19
372.706	242.19
372.932	269.19
373.158	256.19
373.384	289.19
373.61	378.19
373.835	400.19
374.061	294.19
374.287	258.19
374.513	319.19
374.739	359.19
374.965	382.19
375.191	384.19
375.416	287.19
375.642	254.19
375.868	289.19
376.094	317.19
376.319	282.19
376.545	294.19
376.771	326.19
376.997	279.19
377.222	219.19
377.448	199.19
377.674	203.19
377.899	189.19
378.125	204.19
378.35	192.19
378.576	190.19
378.802	222.19
379.027	230.19
379.253	222.19
379.478	231.19
379.704	234.19
379.929	266.19
380.155	260.19
380.38	220.19
380.606	226.19
380.831	260.19
381.057	273.19
381.282	253.19
381.507	267.19
381.733	312.19
381.958	315.19
382.184	358.19
382.409	374.19
382.634	386.19
382.86	371.19
383.085	311.19
383.31	277.19
383.535	292.19
383.761	295.19
383.986	266.19
384.211	311.19
384.436	312.19
384.662	244.19
384.887	268.19
385.112	260.19
385.337	294.19
385.562	256.19
385.787	274.19
386.013	286.19
386.238	312.19
386.463	270.19
386.688	259.19
386.913	255.19
387.138	230.19
387.363	262.19
387.588	251.19
387.813	258.19
388.038	257.19
388.263	263.19
388.488	245.19
388.713	260.19
388.938	291.19
389.163	245.19
389.387	239.19
389.612	216.19
389.837	240.19
390.062	247.19
390.287	241.19
390.512	244.19
390.736	231.19
390.961	227.19
391.186	224.19
391.411	226.19
391.636	219.19
391.86	247.19
392.085	247.19
392.31	261.19
392.534	268.19
392.759	240.19
392.984	243.19
393.208	264.19
393.433	226.19
393.658	208.19
393.882	220.19
394.107	206.19
394.331	211.19
394.556	211.19
394.78	203.19
395.005	199.19
395.229	222.19
395.454	209.19
395.678	228.19
395.903	242.19
396.127	223.19
396.352	218.19
396.576	250.19
396.801	233.19
397.025	263.19
397.249	271.19
397.474	231.19
397.698	239.19
397.922	260.19
398.147	226.19
398.371	228.19
398.595	243.19
398.82	250.19
399.044	244.19
399.268	261.19
399.492	283.19
399.717	291.19
399.941	295.19
400.165	268.19
400.389	260.19
400.613	276.19
400.837	273.19
401.062	244.19
401.286	227.19
401.51	217.19
401.734	228.19
401.958	246.19
402.182	235.19
402.406	237.19
402.63	250.19
402.854	251.19
403.078	305.19
403.302	384.19
403.526	410.19
403.75	358.19
403.974	295.19
404.198	292.19
404.422	311.19
404.645	338.19
404.869	373.19
405.093	300.19
405.317	254.19
405.541	260.19
405.765	277.19
405.988	283.19
406.212	283.19
406.436	307.19
406.66	334.19
406.883	295.19
407.107	296.19
407.331	333.19
407.555	332.19
407.778	287.19
408.002	297.19
408.226	283.19
408.449	278.19
408.673	286.19
408.896	271.19
409.12	253.19
409.344	272.19
409.567	246.19
409.791	242.19
410.014	253.19
410.238	249.19
410.461	263.19
410.685	234.19
410.908	249.19
411.132	254.19
411.355	258.19
411.578	237.19
411.802	232.19
412.025	242.19
412.249	265.19
412.472	256.19
412.695	258.19
412.919	257.19
413.142	251.19
413.365	263.19
413.589	271.19
413.812	239.19
414.035	244.19
414.258	245.19
414.482	262.19
414.705	265.19
414.928	244.19
415.151	210.19
415.374	235.19
415.597	252.19
415.821	232.19
416.044	244.19
416.267	240.19
416.49	231.19
416.713	229.19
416.936	239.19
417.159	254.19
417.382	252.19
417.605	248.19
417.828	251.19
418.051	236.19
418.274	238.19
418.497	246.19
418.72	233.19
418.943	263.19
419.166	260.19
419.389	282.19
419.611	258.19
419.834	268.19
420.057	278.19
420.28	304.19
420.503	254.19
420.726	216.19
420.948	236.19
421.171	243.19
421.394	248.19
421.617	235.19
421.839	230.19
422.062	246.19
422.285	251.19
422.507	252.19
422.73	264.19
422.953	275.19
423.175	258.19
423.398	251.19
423.621	267.19
423.843	280.19
424.066	263.19
424.288	252.19
424.511	246.19
424.733	245.19
424.956	238.19
425.178	272.19
425.401	322.19
425.623	385.19
425.846	326.19
426.068	254.19
426.291	271.19
426.513	255.19
426.735	243.19
426.958	262.19
427.18	286.19
427.402	342.19
427.625	355.19
427.847	333.19
428.069	243.19
428.292	264.19
428.514	238.19
428.736	242.19
428.958	274.19
429.181	336.19
429.403	273.19
429.625	254.19
429.847	239.19
430.069	227.19
430.292	235.19
430.514	235.19
430.736	243.19
430.958	306.19
431.18	271.19
431.402	231.19
431.624	231.19
431.846	212.19
432.068	224.19
432.29	224.19
432.512	249.19
432.734	279.19
432.956	269.19
433.178	234.19
433.4	225.19
433.622	228.19
433.844	238.19
434.066	267.19
434.287	254.19
434.509	265.19
434.731	268.19
434.953	269.19
435.175	255.19
435.397	271.19
435.618	252.19
435.84	212.19
436.062	233.19
436.284	233.19
436.505	208.19
436.727	225.19
436.949	230.19
437.17	223.19
437.392	222.19
437.614	219.19
437.835	238.19
438.057	223.19
438.278	239.19
438.5	305.19
438.721	342.19
438.943	248.19
439.165	227.19
439.386	214.19
439.608	211.19
439.829	212.19
440.05	217.19
440.272	222.19
440.493	254.19
440.715	292.19
440.936	249.19
441.158	230.19
441.379	233.19
441.6	267.19
441.822	272.19
442.043	252.19
442.264	255.19
442.486	246.19
442.707	233.19
442.928	231.19
443.149	243.19
443.371	263.19
443.592	252.19
443.813	249.19
444.034	256.19
444.255	246.19
444.476	245.19
444.698	267.19
444.919	263.19
445.14	339.19
445.361	298.19
445.582	258.19
445.803	247.19
446.024	260.19
446.245	266.19
446.466	248.19
446.687	235.19
446.908	230.19
447.129	224.19
447.35	210.19
447.571	234.19
447.792	205.19
448.013	231.19
448.234	205.19
448.455	192.19
448.675	211.19
448.896	210.19
449.117	212.19
449.338	221.19
449.559	232.19
449.779	230.19
450	216.19
450.221	225.19
450.442	223.19
450.662	229.19
450.883	230.19
451.104	234.19
451.324	222.19
451.545	225.19
451.766	241.19
451.986	228.19
452.207	212.19
452.428	222.19
452.648	219.19
452.869	228.19
453.089	252.19
453.31	231.19
453.53	221.19
453.751	206.19
453.971	204.19
454.192	220.19
454.412	216.19
454.633	222.19
454.853	223.19
455.073	213.19
455.294	212.19
455.514	223.19
455.734	217.19
455.955	225.19
456.175	242.19
456.395	199.19
456.616	219.19
456.836	207.19
457.056	211.19
457.276	205.19
457.497	200.19
457.717	204.19
457.937	199.19
458.157	209.19
458.377	213.19
458.598	220.19
458.818	199.19
459.038	215.19
459.258	225.19
459.478	231.19
459.698	240.19
459.918	249.19
460.138	259.19
460.358	252.19
460.578	252.19
460.798	257.19
461.018	246.19
461.238	238.19
461.458	245.19
461.678	251.19
461.898	278.19
462.118	275.19
462.338	266.19
462.558	253.19
462.777	287.19
462.997	290.19
463.217	294.19
463.437	316.19
463.657	301.19
463.876	264.19
464.096	255.19
464.316	303.19
464.536	297.19
464.755	284.19
464.975	294.19
465.195	260.19
465.414	286.19
465.634	257.19
465.854	239.19
466.073	239.19
466.293	263.19
466.512	236.19
466.732	256.19
466.951	234.19
467.171	257.19
467.391	242.19
467.61	215.19
467.829	237.19
468.049	229.19
468.268	219.19
468.488	222.19
468.707	252.19
468.927	263.19
469.146	267.19
469.365	255.19
469.585	223.19
469.804	257.19
470.023	247.19
470.243	260.19
470.462	244.19
470.681	222.19
470.901	255.19
471.12	248.19
471.339	259.19
471.558	234.19
471.777	237.19
471.997	252.19
472.216	265.19
472.435	272.19
472.654	236.19
472.873	236.19
473.092	248.19
473.311	243.19
473.53	251.19
473.749	249.19
473.968	255.19
474.187	249.19
474.406	248.19
474.625	238.19
474.844	234.19
475.063	246.19
475.282	238.19
475.501	268.19
475.72	281.19
475.939	289.19
476.158	280.19
476.377	303.19
476.596	357.19
476.814	347.19
477.033	315.19
477.252	250.19
477.471	253.19
477.69	265.19
477.908	272.19
478.127	274.19
478.346	284.19
478.564	315.19
478.783	305.19
479.002	295.19
479.22	314.19
479.439	328.19
479.658	296.19
479.876	279.19
480.095	293.19
480.313	315.19
480.532	283.19
480.751	288.19
480.969	302.19
481.188	303.19
481.406	304.19
481.624	288.19
481.843	271.19
482.061	265.19
482.28	304.19
482.498	354.19
482.717	347.19
482.935	299.19
483.153	286.19
483.372	268.19
483.59	272.19
483.808	264.19
484.027	265.19
484.245	258.19
484.463	257.19
484.681	244.19
484.9	278.19
485.118	282.19
485.336	279.19
485.554	266.19
485.772	279.19
485.99	270.19
486.209	297.19
486.427	300.19
486.645	276.19
486.863	288.19
487.081	287.19
487.299	327.19
487.517	299.19
487.735	301.19
487.953	301.19
488.171	308.19
488.389	277.19
488.607	270.19
488.825	304.19
489.043	288.19
489.261	320.19
489.479	340.19
489.696	294.19
489.914	280.19
490.132	269.19
490.35	276.19
490.568	266.19
490.786	269.19
491.003	269.19
491.221	284.19
491.439	290.19
491.657	278.19
491.874	295.19
492.092	335.19
492.31	380.19
492.527	366.19
492.745	358.19
492.963	299.19
493.18	293.19
493.398	297.19
493.615	294.19
493.833	293.19
494.05	288.19
494.268	302.19
494.485	302.19
494.703	291.19
494.92	302.19
495.138	282.19
495.355	289.19
495.573	277.19
495.79	317.19
496.008	400.19
496.225	320.19
496.442	285.19
496.66	319.19
496.877	320.19
497.094	319.19
497.312	306.19
497.529	331.19
497.746	353.19
497.963	327.19
498.181	343.19
498.398	346.19
498.615	361.19
498.832	396.19
499.049	396.19
499.267	382.19
499.484	421.19
499.701	432.19
499.918	441.19
500.135	506.19
500.352	510.19
500.569	574.19
500.786	563.19
501.003	567.19
501.22	474.19
501.437	454.19
501.654	411.19
501.871	389.19
502.088	380.19
502.305	376.19
502.522	347.19
502.739	374.19
502.956	316.19
503.172	325.19
503.389	292.19
503.606	301.19
503.823	308.19
504.04	319.19
504.256	316.19
504.473	337.19
504.69	355.19
504.907	346.19
505.123	312.19
505.34	339.19
505.557	332.19
505.773	288.19
505.99	303.19
506.207	322.19
506.423	300.19
506.64	271.19
506.856	295.19
507.073	311.19
507.289	315.19
507.506	312.19
507.722	320.19
507.939	316.19
508.155	330.19
508.372	311.19
508.588	296.19
508.805	278.19
509.021	282.19
509.238	262.19
509.454	267.19
509.67	283.19
509.887	282.19
510.103	317.19
510.319	295.19
510.536	292.19
510.752	278.19
510.968	271.19
511.184	265.19
511.401	260.19
511.617	246.19
511.833	257.19
512.049	265.19
512.265	260.19
512.481	285.19
512.698	283.19
512.914	304.19
513.13	314.19
513.346	277.19
513.562	272.19
513.778	276.19
513.994	292.19
514.21	282.19
514.426	264.19
514.642	278.19
514.858	275.19
515.074	290.19
515.29	312.19
515.506	347.19
515.721	311.19
515.937	311.19
516.153	286.19
516.369	272.19
516.585	282.19
516.801	337.19
517.016	372.19
517.232	344.19
517.448	351.19
517.664	351.19
517.879	326.19
518.095	324.19
518.311	325.19
518.527	330.19
518.742	340.19
518.958	343.19
519.173	325.19
519.389	295.19
519.605	325.19
519.82	309.19
520.036	378.19
520.251	387.19
520.467	373.19
520.682	622.19
520.898	784.19
521.113	748.19
521.329	430.19
521.544	347.19
521.76	322.19
521.975	310.19
522.19	294.19
522.406	316.19
522.621	339.19
522.836	351.19
523.052	353.19
523.267	283.19
523.482	303.19
523.698	304.19
523.913	309.19
524.128	291.19
524.343	286.19
524.559	276.19
524.774	268.19
524.989	290.19
525.204	295.19
525.419	312.19
525.634	280.19
525.849	286.19
526.064	286.19
526.28	312.19
526.495	337.19
526.71	358.19
526.925	333.19
527.14	325.19
527.355	340.19
527.57	293.19
527.785	306.19
527.999	280.19
528.214	269.19
528.429	261.19
528.644	268.19
528.859	264.19
529.074	265.19
529.289	248.19
529.503	270.19
529.718	273.19
529.933	312.19
530.148	330.19
530.363	270.19
530.577	279.19
530.792	264.19
531.007	262.19
531.221	255.19
531.436	260.19
531.651	264.19
531.865	273.19
532.08	254.19
532.295	238.19
532.509	276.19
532.724	291.19
532.938	328.19
533.153	380.19
533.367	318.19
533.582	288.19
533.796	269.19
534.011	268.19
534.225	275.19
534.44	279.19
534.654	301.19
534.868	335.19
535.083	302.19
535.297	278.19
535.511	267.19
535.726	292.19
535.94	276.19
536.154	260.19
536.369	262.19
536.583	250.19
536.797	259.19
537.011	276.19
537.225	277.19
537.44	286.19
537.654	262.19
537.868	267.19
538.082	260.19
538.296	252.19
538.51	271.19
538.724	274.19
538.938	267.19
539.153	250.19
539.367	259.19
539.581	268.19
539.795	271.19
540.009	289.19
540.222	269.19
540.436	278.19
540.65	267.19
540.864	291.19
541.078	301.19
541.292	351.19
541.506	276.19
541.72	258.19
541.934	276.19
542.147	255.19
542.361	251.19
542.575	260.19
542.789	275.19
543.002	260.19
543.216	295.19
543.43	246.19
543.644	244.19
543.857	248.19
544.071	233.19
544.285	229.19
544.498	238.19
544.712	241.19
544.925	270.19
545.139	235.19
545.352	225.19
545.566	232.19
545.779	263.19
545.993	238.19
546.206	224.19
546.42	229.19
546.633	228.19
546.847	233.19
547.06	250.19
547.274	234.19
547.487	223.19
547.7	247.19
547.914	248.19
548.127	248.19
548.34	282.19
548.554	251.19
548.767	238.19
548.98	258.19
549.193	240.19
549.407	255.19
549.62	298.19
549.833	283.19
550.046	295.19
550.259	272.19
550.473	263.19
550.686	257.19
550.899	250.19
551.112	275.19
551.325	258.19
551.538	279.19
551.751	255.19
551.964	243.19
552.177	241.19
552.39	246.19
552.603	241.19
552.816	245.19
553.029	229.19
553.242	243.19
553.455	256.19
553.667	280.19
553.88	252.19
554.093	239.19
554.306	229.19
554.519	229.19
554.732	228.19
554.944	226.19
555.157	219.19
555.37	230.19
555.583	217.19
555.795	214.19
556.008	214.19
556.221	206.19
556.433	231.19
556.646	222.19
556.859	205.19
557.071	216.19
557.284	230.19
557.496	224.19
557.709	227.19
557.921	221.19
558.134	229.19
558.346	210.19
558.559	212.19
558.771	211.19
558.984	210.19
559.196	193.19
559.409	199.19
559.621	206.19
559.833	214.19
560.046	192.19
560.258	198.19
560.47	219.19
560.683	193.19
560.895	197.19
561.107	202.19
561.32	205.19
561.532	213.19
561.744	219.19
561.956	213.19
562.168	199.19
562.381	198.19
562.593	199.19
562.805	226.19
563.017	216.19
563.229	206.19
563.441	190.19
563.653	200.19
563.865	211.19
564.077	196.19
564.289	211.19
564.501	198.19
564.713	227.19
564.925	207.19
565.137	228.19
565.349	210.19
565.561	218.19
565.773	219.19
565.985	225.19
566.197	226.19
566.408	262.19
566.62	236.19
566.832	256.19
567.044	262.19
567.255	260.19
567.467	296.19
567.679	287.19
567.891	306.19
568.102	290.19
568.314	290.19
568.526	274.19
568.737	256.19
568.949	262.19
569.161	237.19
569.372	242.19
569.584	233.19
569.795	208.19
570.007	206.19
570.218	212.19
570.43	203.19
570.641	218.19
570.853	196.19
571.064	213.19
571.276	208.19
571.487	228.19
571.698	209.19
571.91	195.19
572.121	203.19
572.333	201.19
572.544	200.19
572.755	201.19
572.966	201.19
573.178	197.19
573.389	207.19
573.6	206.19
573.811	197.19
574.023	200.19
574.234	179.19
574.445	191.19
574.656	181.19
574.867	186.19
575.078	180.19
575.289	193.19
575.501	190.19
575.712	185.19
575.923	182.19
576.134	160.19
576.345	179.19
576.556	181.19
576.767	167.19
576.978	174.19
577.188	174.19
577.399	177.19
577.61	172.19
577.821	186.19
578.032	182.19
578.243	200.19
578.454	204.19
578.665	183.19
578.875	191.19
579.086	198.19
579.297	184.19
579.508	198.19
579.718	190.19
579.929	176.19
580.14	185.19
580.35	153.19
580.561	166.19
580.772	159.19
580.982	148.19
581.193	180.19
581.403	161.19
581.614	168.19
581.825	155.19
582.035	163.19
582.246	169.19
582.456	162.19
582.667	165.19
582.877	153.19
583.087	159.19
583.298	158.19
583.508	174.19
583.719	152.19
583.929	163.19
584.139	180.19
584.35	174.19
584.56	166.19
584.77	174.19
584.981	164.19
585.191	170.19
585.401	156.19
585.611	169.19
585.821	173.19
586.032	177.19
586.242	159.19
586.452	151.19
586.662	171.19
586.872	178.19
587.082	161.19
587.292	168.19
587.502	170.19
587.713	152.19
587.923	166.19
588.133	171.19
588.343	158.19
588.553	158.19
588.762	151.19
588.972	156.19
589.182	161.19
589.392	151.19
589.602	169.19
589.812	183.19
590.022	162.19
590.232	174.19
590.441	168.19
590.651	164.19
590.861	175.19
591.071	168.19
591.281	174.19
591.49	162.19
591.7	160.19
591.91	167.19
592.119	179.19
592.329	168.19
592.539	161.19
592.748	161.19
592.958	178.19
593.167	183.19
593.377	182.19
593.587	178.19
593.796	187.19
594.006	177.19
594.215	184.19
594.424	189.19
594.634	182.19
594.843	173.19
595.053	177.19
595.262	171.19
595.472	169.19
595.681	168.19
595.89	153.19
596.1	168.19
596.309	149.19
596.518	171.19
596.727	165.19
596.937	137.19
597.146	140.19
597.355	175.19
597.564	162.19
597.774	137.19
597.983	163.19
598.192	162.19
598.401	159.19
598.61	164.19
598.819	149.19
599.028	146.19
599.237	149.19
599.446	160.19
599.655	152.19
599.864	148.19
600.073	150.19
600.282	136.19
600.491	146.19
600.7	144.19
600.909	152.19
601.118	136.19
601.327	148.19
601.536	141.19
601.745	152.19
601.953	158.19
602.162	152.19
602.371	154.19
602.58	171.19
602.789	154.19
602.997	154.19
603.206	136.19
603.415	139.19
603.623	158.19
603.832	146.19
604.041	156.19
604.249	154.19
604.458	145.19
604.666	146.19
604.875	143.19
605.084	146.19
605.292	147.19
605.501	155.19
605.709	158.19
605.918	155.19
606.126	142.19
606.334	137.19
606.543	138.19
606.751	127.19
606.96	147.19
607.168	153.19
607.376	143.19
607.585	150.19
607.793	122.19
608.001	132.19
608.21	136.19
608.418	147.19
608.626	144.19
608.834	135.19
609.043	135.19
609.251	139.19
609.459	122.19
609.667	130.19
609.875	141.19
610.083	142.19
610.291	140.19
610.499	141.19
610.707	140.19
610.916	146.19
611.124	144.19
611.332	127.19
611.54	147.19
611.748	136.19
611.955	141.19
612.163	139.19
612.371	141.19
612.579	135.19
612.787	140.19
612.995	140.19
613.203	136.19
613.411	138.19
613.618	133.19
613.826	132.19
614.034	146.19
614.242	138.19
614.449	144.19
614.657	154.19
614.865	124.19
615.072	146.19
615.28	134.19
615.488	148.19
615.695	130.19
615.903	124.19
616.111	123.19
616.318	133.19
616.526	127.19
616.733	135.19
616.941	140.19
617.148	142.19
617.356	140.19
617.563	140.19
617.771	132.19
617.978	129.19
618.185	134.19
618.393	133.19
618.6	146.19
618.807	136.19
619.015	136.19
619.222	127.19
619.429	138.19
619.637	157.19
619.844	140.19
620.051	134.19
620.258	137.19
620.466	123.19
620.673	130.19
620.88	141.19
621.087	150.19
621.294	132.19
621.501	134.19
621.708	122.19
621.915	132.19
622.122	129.19
622.329	129.19
622.536	127.19
622.743	117.19
622.95	130.19
623.157	132.19
623.364	143.19
623.571	136.19
623.778	127.19
623.985	120.19
624.192	128.19
624.399	136.19
624.606	127.19
624.812	115.19
625.019	123.19
625.226	120.19
625.433	122.19
625.639	130.19
625.846	141.19
626.053	141.19
626.259	138.19
626.466	130.19
626.673	140.19
626.879	128.19
627.086	121.19
627.293	110.19
627.499	126.19
627.706	136.19
627.912	130.19
628.119	126.19
628.325	134.19
628.532	117.19
628.738	137.19
628.945	118.19
629.151	124.19
629.357	115.19
629.564	135.19
629.77	126.19
629.976	121.19
630.183	132.19
630.389	118.19
630.595	128.19
630.802	118.19
631.008	120.19
631.214	114.19
631.42	117.19
631.627	122.19
631.833	126.19
632.039	123.19
632.245	108.19
632.451	124.19
632.657	128.19
632.863	131.19
633.069	125.19
633.275	118.19
633.481	113.19
633.688	109.19
633.893	133.19
634.099	122.19
634.305	113.19
634.511	117.19
634.717	134.19
634.923	107.19
635.129	120.19
635.335	113.19
635.541	110.19
635.747	105.19
635.952	119.19
636.158	115.19
636.364	114.19
636.57	118.19
636.775	116.19
636.981	110.19
637.187	113.19
637.392	113.19
637.598	119.19
637.804	125.19
638.009	105.19
638.215	101.19
638.421	130.19
638.626	121.19
638.832	108.19
639.037	110.19
639.243	112.19
639.448	101.19
639.654	127.19
639.859	114.19
640.065	116.19
640.27	142.19
640.475	103.19
640.681	114.19
640.886	120.19
641.091	110.19
641.297	113.19
641.502	118.19
641.707	121.19
641.913	114.19
642.118	104.19
642.323	107.19
642.528	123.19
642.733	112.19
642.939	117.19
643.144	118.19
643.349	110.19
643.554	110.19
643.759	116.19
643.964	116.19
644.169	116.19
644.374	113.19
644.579	114.19
644.784	123.19
644.989	124.19
645.194	109.19
645.399	104.19
645.604	110.19
645.809	103.19
646.014	112.19
646.219	98.19
646.423	100.19
646.628	111.19
646.833	100.19
647.038	106.19
647.243	133.19
647.447	114.19
647.652	120.19
647.857	109.19
648.062	104.19
648.266	119.19
648.471	106.19
648.676	130.19
648.88	123.19
649.085	112.19
649.289	107.19
649.494	106.19
649.698	118.19
649.903	108.19
650.107	108.19
650.312	112.19
650.516	101.19
650.721	118.19
650.925	116.19
651.13	116.19
651.334	104.19
651.539	100.19
651.743	104.19
651.947	116.19
652.152	111.19
652.356	110.19
652.56	103.19
652.764	101.19
652.969	104.19
653.173	88.19
653.377	91.19
653.581	94.19
653.785	112.19
653.99	102.19
654.194	103.19
654.398	110.19
654.602	107.19
654.806	102.19
655.01	94.19
655.214	102.19
655.418	101.19
655.622	99.19
655.826	111.19
656.03	106.19
656.234	97.19
656.438	104.19
656.642	105.19
656.846	92.19
657.049	107.19
657.253	102.19
657.457	106.19
657.661	78.19
657.865	88.19
658.068	109.19
658.272	110.19
658.476	91.19
658.68	91.19
658.883	71.19
659.087	90.19
659.291	87.19
659.494	89.19
659.698	94.19
659.901	96.19
660.105	90.19
660.309	92.19
660.512	90.19
660.716	101.19
660.919	77.19
661.123	100.19
661.326	75.19
661.53	97.19
661.733	98.19
661.936	84.19
662.14	92.19
662.343	79.19
662.546	89.19
662.75	91.19
662.953	81.19
663.156	84.19
663.36	86.19
663.563	80.19
663.766	80.19
663.969	85.19
664.173	84.19
664.376	84.19
664.579	83.19
664.782	84.19
664.985	86.19
665.188	81.19
665.391	74.19
665.594	86.19
665.797	89.19
666	86.19
666.203	97.19
666.406	87.19
666.609	91.19
666.812	81.19
667.015	90.19
667.218	90.19
667.421	88.19
667.624	79.19
667.827	76.19
668.03	90.19
668.232	86.19
668.435	84.19
668.638	84.19
668.841	83.19
669.043	85.19
669.246	84.19
669.449	86.19
669.651	92.19
669.854	87.19
670.057	71.19
670.259	100.19
670.462	79.19
670.665	81.19
670.867	97.19
671.07	89.19
671.272	90.19
671.475	82.19
671.677	81.19
671.88	77.19
672.082	89.19
672.284	79.19
672.487	73.19
672.689	89.19
672.892	81.19
