Data from NickelSpatula_HRD10591_16-34-22-126.txt Node
Date: Mon Jul 22 16:34:22 EDT 2019
User: cochatt
Spectrometer: HR+D1059
Trigger mode: 1
Integration Time (sec): 1.000000E-1
Scans to average: 1
Electric dark correction enabled: true
Nonlinearity correction enabled: false
Boxcar width: 0
XAxis mode: Wavelengths
Number of Pixels in Spectrum: 2048
>>>>>Begin Spectral Data<<<<<
223.165	-4
223.4	-4
223.635	-4
223.869	-29
224.104	-16
224.338	-23
224.573	-9
224.808	-17
225.042	-15
225.277	-1
225.511	7
225.746	-4
225.98	1
226.215	1
226.449	21
226.683	26
226.918	33
227.152	29
227.387	37
227.621	43
227.856	67
228.09	41
228.324	45
228.559	48
228.793	64
229.027	82
229.262	60
229.496	62
229.73	80
229.964	85
230.199	87
230.433	84
230.667	90
230.901	99
231.136	85
231.37	100
231.604	92
231.838	108
232.072	107
232.306	100
232.541	103
232.775	106
233.009	107
233.243	114
233.477	121
233.711	97
233.945	116
234.179	119
234.413	120
234.647	122
234.881	123
235.115	138
235.349	122
235.583	123
235.817	122
236.051	120
236.285	131
236.519	139
236.753	130
236.987	132
237.221	130
237.455	128
237.689	109
237.922	132
238.156	122
238.39	138
238.624	152
238.858	144
239.091	124
239.325	141
239.559	140
239.793	123
240.027	148
240.26	134
240.494	158
240.728	160
240.961	161
241.195	162
241.429	152
241.662	155
241.896	162
242.13	132
242.363	126
242.597	138
242.83	134
243.064	145
243.298	169
243.531	175
243.765	154
243.998	154
244.232	175
244.465	158
244.699	150
244.932	169
245.166	161
245.399	141
245.633	144
245.866	153
246.099	167
246.333	164
246.566	188
246.8	198
247.033	184
247.266	175
247.5	167
247.733	178
247.966	155
248.2	174
248.433	183
248.666	189
248.899	182
249.133	185
249.366	201
249.599	236
249.832	211
250.066	185
250.299	190
250.532	196
250.765	201
250.998	169
251.231	190
251.465	175
251.698	198
251.931	196
252.164	204
252.397	221
252.63	230
252.863	254
253.096	258
253.329	248
253.562	238
253.795	258
254.028	286
254.261	296
254.494	271
254.727	251
254.96	229
255.193	262
255.426	264
255.659	197
255.892	201
256.124	194
256.357	232
256.59	268
256.823	265
257.056	221
257.289	195
257.521	217
257.754	258
257.987	302
258.22	249
258.452	231
258.685	244
258.918	267
259.151	258
259.383	296
259.616	323
259.849	313
260.081	318
260.314	352
260.547	298
260.779	290
261.012	343
261.244	309
261.477	315
261.71	327
261.942	263
262.175	265
262.407	269
262.64	259
262.872	311
263.105	339
263.337	332
263.57	310
263.802	227
264.035	210
264.267	215
264.499	180
264.732	178
264.964	178
265.197	168
265.429	176
265.661	184
265.894	200
266.126	208
266.358	225
266.591	271
266.823	309
267.055	292
267.287	283
267.52	288
267.752	286
267.984	283
268.216	294
268.448	251
268.681	254
268.913	267
269.145	265
269.377	281
269.609	280
269.841	265
270.073	286
270.306	275
270.538	299
270.77	304
271.002	286
271.234	313
271.466	312
271.698	289
271.93	276
272.162	289
272.394	292
272.626	284
272.858	296
273.09	299
273.322	272
273.553	240
273.785	290
274.017	366
274.249	416
274.481	454
274.713	474
274.945	542
275.176	552
275.408	498
275.64	486
275.872	466
276.104	423
276.335	380
276.567	356
276.799	379
277.031	396
277.262	342
277.494	265
277.726	255
277.957	275
278.189	324
278.421	289
278.652	266
278.884	276
279.115	280
279.347	251
279.579	260
279.81	257
280.042	256
280.273	269
280.505	243
280.736	224
280.968	204
281.199	236
281.431	270
281.662	254
281.894	270
282.125	255
282.356	274
282.588	280
282.819	262
283.051	269
283.282	336
283.513	379
283.745	411
283.976	415
284.207	371
284.439	384
284.67	373
284.901	345
285.132	370
285.364	392
285.595	356
285.826	373
286.057	378
286.288	378
286.52	391
286.751	390
286.982	416
287.213	361
287.444	345
287.675	372
287.906	368
288.138	315
288.369	294
288.6	258
288.831	265
289.062	314
289.293	350
289.524	328
289.755	324
289.986	345
290.217	310
290.448	249
290.679	213
290.91	203
291.141	198
291.371	225
291.602	224
291.833	219
292.064	229
292.295	255
292.526	290
292.757	283
292.987	321
293.218	320
293.449	340
293.68	329
293.91	328
294.141	360
294.372	326
294.603	305
294.833	333
295.064	374
295.295	364
295.525	276
295.756	255
295.987	236
296.217	225
296.448	242
296.679	238
296.909	242
297.14	259
297.37	301
297.601	287
297.831	250
298.062	258
298.292	292
298.523	311
298.753	338
298.984	330
299.214	254
299.445	235
299.675	206
299.905	223
300.136	217
300.366	233
300.597	235
300.827	217
301.057	204
301.288	219
301.518	233
301.748	260
301.979	277
302.209	283
302.439	274
302.669	244
302.9	251
303.13	267
303.36	242
303.59	240
303.82	253
304.051	240
304.281	282
304.511	266
304.741	226
304.971	226
305.201	267
305.431	260
305.661	229
305.891	216
306.121	223
306.352	204
306.582	202
306.812	183
307.042	204
307.272	186
307.502	188
307.731	199
307.961	204
308.191	184
308.421	188
308.651	178
308.881	196
309.111	169
309.341	197
309.571	215
309.8	204
310.03	202
310.26	203
310.49	216
310.72	200
310.949	178
311.179	188
311.409	187
311.639	223
311.868	270
312.098	346
312.328	351
312.557	360
312.787	342
313.017	311
313.246	345
313.476	362
313.706	320
313.935	256
314.165	235
314.394	197
314.624	216
314.853	232
315.083	231
315.312	210
315.542	201
315.771	215
316.001	201
316.23	203
316.46	193
316.689	186
316.919	188
317.148	187
317.377	206
317.607	190
317.836	212
318.065	242
318.295	267
318.524	243
318.753	232
318.983	190
319.212	194
319.441	182
319.67	231
319.9	222
320.129	252
320.358	192
320.587	200
320.816	202
321.046	238
321.275	268
321.504	249
321.733	264
321.962	248
322.191	225
322.42	224
322.649	222
322.878	248
323.108	235
323.337	232
323.566	221
323.795	219
324.024	229
324.253	213
324.482	183
324.71	206
324.939	240
325.168	231
325.397	182
325.626	199
325.855	200
326.084	216
326.313	179
326.542	184
326.77	196
326.999	195
327.228	198
327.457	212
327.686	202
327.914	203
328.143	192
328.372	169
328.6	181
328.829	190
329.058	198
329.287	195
329.515	184
329.744	203
329.972	186
330.201	187
330.43	188
330.658	208
330.887	219
331.115	216
331.344	196
331.572	193
331.801	204
332.03	197
332.258	187
332.486	203
332.715	198
332.943	197
333.172	222
333.4	203
333.629	230
333.857	255
334.085	224
334.314	248
334.542	229
334.771	236
334.999	201
335.227	198
335.455	202
335.684	232
335.912	258
336.14	287
336.369	246
336.597	224
336.825	257
337.053	296
337.281	255
337.51	202
337.738	208
337.966	218
338.194	241
338.422	233
338.65	206
338.878	201
339.106	194
339.334	212
339.562	202
339.79	207
340.018	203
340.246	225
340.474	224
340.702	244
340.93	260
341.158	259
341.386	220
341.614	235
341.842	220
342.07	235
342.298	258
342.526	279
342.754	239
342.981	247
343.209	193
343.437	223
343.665	242
343.893	249
344.12	279
344.348	306
344.576	286
344.804	239
345.031	215
345.259	203
345.487	196
345.714	216
345.942	200
346.17	240
346.397	227
346.625	203
346.853	209
347.08	198
347.308	202
347.535	227
347.763	237
347.99	207
348.218	180
348.445	212
348.673	209
348.9	214
349.128	234
349.355	216
349.583	213
349.81	217
350.037	199
350.265	180
350.492	178
350.72	174
350.947	180
351.174	193
351.402	182
351.629	204
351.856	201
352.083	182
352.311	204
352.538	226
352.765	219
352.992	224
353.22	220
353.447	220
353.674	230
353.901	218
354.128	198
354.355	201
354.583	184
354.81	193
355.037	240
355.264	206
355.491	213
355.718	235
355.945	242
356.172	212
356.399	200
356.626	238
356.853	308
357.08	328
357.307	330
357.534	258
357.761	270
357.988	320
358.215	366
358.441	336
358.668	304
358.895	287
359.122	233
359.349	223
359.576	270
359.802	232
360.029	183
360.256	197
360.483	248
360.709	287
360.936	298
361.163	258
361.39	234
361.616	204
361.843	221
362.07	279
362.296	265
362.523	220
362.749	204
362.976	202
363.203	229
363.429	254
363.656	214
363.882	197
364.109	225
364.335	206
364.562	203
364.788	206
365.015	238
365.241	233
365.468	204
365.694	178
365.92	181
366.147	168
366.373	166
366.599	191
366.826	188
367.052	165
367.278	180
367.505	169
367.731	174
367.957	215
368.184	211
368.41	202
368.636	210
368.862	224
369.089	211
369.315	202
369.541	202
369.767	180
369.993	194
370.219	186
370.445	191
370.672	191
370.898	209
371.124	224
371.35	200
371.576	183
371.802	212
372.028	214
372.254	219
372.48	221
372.706	210
372.932	225
373.158	218
373.384	238
373.61	307
373.835	314
374.061	254
374.287	236
374.513	260
374.739	311
374.965	312
375.191	320
375.416	240
375.642	230
375.868	234
376.094	258
376.319	225
376.545	254
376.771	243
376.997	208
377.222	190
377.448	157
377.674	165
377.899	178
378.125	182
378.35	177
378.576	182
378.802	181
379.027	204
379.253	202
379.478	188
379.704	218
379.929	218
380.155	227
380.38	204
380.606	206
380.831	213
381.057	228
381.282	191
381.507	229
381.733	289
381.958	279
382.184	304
382.409	312
382.634	326
382.86	304
383.085	288
383.31	234
383.535	232
383.761	251
383.986	234
384.211	260
384.436	258
384.662	212
384.887	204
385.112	229
385.337	224
385.562	221
385.787	217
386.013	246
386.238	238
386.463	212
386.688	222
386.913	197
387.138	174
387.363	204
387.588	216
387.813	210
388.038	220
388.263	200
388.488	186
388.713	229
388.938	257
389.163	206
389.387	188
389.612	195
389.837	213
390.062	198
390.287	204
390.512	219
390.736	193
390.961	198
391.186	197
391.411	183
391.636	197
391.86	210
392.085	227
392.31	218
392.534	224
392.759	198
392.984	202
393.208	225
393.433	188
393.658	191
393.882	166
394.107	180
394.331	183
394.556	184
394.78	166
395.005	182
395.229	184
395.454	194
395.678	193
395.903	203
396.127	203
396.352	197
396.576	211
396.801	220
397.025	232
397.249	239
397.474	203
397.698	214
397.922	204
398.147	198
398.371	216
398.595	199
398.82	218
399.044	208
399.268	207
399.492	233
399.717	235
399.941	245
400.165	226
400.389	227
400.613	225
400.837	214
401.062	203
401.286	177
401.51	196
401.734	210
401.958	186
402.182	188
402.406	193
402.63	228
402.854	208
403.078	235
403.302	272
403.526	322
403.75	272
403.974	229
404.198	247
404.422	263
404.645	272
404.869	297
405.093	265
405.317	242
405.541	235
405.765	244
405.988	219
406.212	228
406.436	261
406.66	287
406.883	219
407.107	242
407.331	260
407.555	268
407.778	239
408.002	233
408.226	225
408.449	232
408.673	239
408.896	207
409.12	201
409.344	199
409.567	229
409.791	191
410.014	219
410.238	217
410.461	202
410.685	188
410.908	211
411.132	193
411.355	200
411.578	203
411.802	216
412.025	206
412.249	214
412.472	195
412.695	211
412.919	224
413.142	201
413.365	223
413.589	228
413.812	216
414.035	195
414.258	211
414.482	229
414.705	227
414.928	227
415.151	200
415.374	194
415.597	218
415.821	219
416.044	195
416.267	191
416.49	198
416.713	180
416.936	170
417.159	199
417.382	199
417.605	197
417.828	191
418.051	210
418.274	218
418.497	216
418.72	214
418.943	206
419.166	212
419.389	224
419.611	214
419.834	202
420.057	248
420.28	238
420.503	209
420.726	203
420.948	222
421.171	206
421.394	208
421.617	205
421.839	208
422.062	212
422.285	208
422.507	199
422.73	217
422.953	215
423.175	219
423.398	193
423.621	240
423.843	250
424.066	219
424.288	209
424.511	208
424.733	214
424.956	203
425.178	232
425.401	257
425.623	283
425.846	254
426.068	220
426.291	231
426.513	231
426.735	202
426.958	217
427.18	258
427.402	285
427.625	288
427.847	259
428.069	205
428.292	199
428.514	201
428.736	191
428.958	210
429.181	234
429.403	193
429.625	195
429.847	188
430.069	200
430.292	208
430.514	191
430.736	197
430.958	235
431.18	219
431.402	192
431.624	190
431.846	188
432.068	207
432.29	176
432.512	195
432.734	219
432.956	239
433.178	196
433.4	186
433.622	180
433.844	198
434.066	206
434.287	208
434.509	202
434.731	235
434.953	195
435.175	213
435.397	223
435.618	191
435.84	179
436.062	196
436.284	190
436.505	190
436.727	180
436.949	176
437.17	186
437.392	199
437.614	194
437.835	188
438.057	203
438.278	206
438.5	258
438.721	273
438.943	201
439.165	176
439.386	160
439.608	170
439.829	164
440.05	183
440.272	176
440.493	202
440.715	250
440.936	212
441.158	184
441.379	201
441.6	215
441.822	216
442.043	215
442.264	194
442.486	185
442.707	203
442.928	193
443.149	199
443.371	200
443.592	198
443.813	203
444.034	205
444.255	198
444.476	194
444.698	201
444.919	217
445.14	327
445.361	276
445.582	227
445.803	219
446.024	210
446.245	242
446.466	196
446.687	187
446.908	194
447.129	186
447.35	188
447.571	187
447.792	174
448.013	178
448.234	179
448.455	184
448.675	181
448.896	185
449.117	199
449.338	189
449.559	194
449.779	202
450	199
450.221	200
450.442	186
450.662	172
450.883	185
451.104	190
451.324	172
451.545	191
451.766	184
451.986	174
452.207	172
452.428	179
452.648	191
452.869	187
453.089	191
453.31	190
453.53	169
453.751	182
453.971	160
454.192	165
454.412	184
454.633	169
454.853	174
455.073	176
455.294	159
455.514	168
455.734	174
455.955	189
456.175	183
456.395	176
456.616	166
456.836	172
457.056	168
457.276	177
457.497	164
457.717	176
457.937	163
458.157	169
458.377	176
458.598	167
458.818	173
459.038	180
459.258	192
459.478	180
459.698	204
459.918	189
460.138	194
460.358	187
460.578	200
460.798	204
461.018	208
461.238	206
461.458	200
461.678	214
461.898	210
462.118	211
462.338	218
462.558	213
462.777	231
462.997	212
463.217	228
463.437	232
463.657	225
463.876	210
464.096	194
464.316	215
464.536	208
464.755	231
464.975	240
465.195	203
465.414	210
465.634	222
465.854	210
466.073	174
466.293	188
466.512	204
466.732	214
466.951	217
467.171	190
467.391	203
467.61	195
467.829	203
468.049	207
468.268	199
468.488	184
468.707	188
468.927	214
469.146	229
469.365	215
469.585	211
469.804	212
470.023	233
470.243	194
470.462	182
470.681	197
470.901	197
471.12	204
471.339	194
471.558	193
471.777	184
471.997	222
472.216	232
472.435	217
472.654	198
472.873	201
473.092	210
473.311	208
473.53	210
473.749	205
473.968	204
474.187	202
474.406	202
474.625	195
474.844	204
475.063	201
475.282	211
475.501	225
475.72	252
475.939	246
476.158	232
476.377	256
476.596	286
476.814	300
477.033	262
477.252	214
477.471	202
477.69	198
477.908	228
478.127	228
478.346	216
478.564	266
478.783	239
479.002	220
479.22	248
479.439	268
479.658	222
479.876	238
480.095	241
480.313	275
480.532	245
480.751	229
480.969	224
481.188	264
481.406	252
481.624	231
481.843	214
482.061	214
482.28	243
482.498	296
482.717	285
482.935	249
483.153	230
483.372	222
483.59	205
483.808	216
484.027	221
484.245	219
484.463	201
484.681	213
484.9	224
485.118	242
485.336	233
485.554	208
485.772	216
485.99	243
486.209	244
486.427	243
486.645	242
486.863	255
487.081	250
487.299	282
487.517	257
487.735	243
487.953	244
488.171	240
488.389	225
488.607	209
488.825	225
489.043	248
489.261	261
489.479	306
489.696	261
489.914	230
490.132	219
490.35	220
490.568	212
490.786	217
491.003	233
491.221	230
491.439	224
491.657	226
491.874	237
492.092	306
492.31	360
492.527	315
492.745	272
492.963	254
493.18	252
493.398	261
493.615	259
493.833	266
494.05	264
494.268	257
494.485	256
494.703	229
494.92	242
495.138	238
495.355	232
495.573	227
495.79	267
496.008	354
496.225	298
496.442	266
496.66	256
496.877	260
497.094	249
497.312	262
497.529	252
497.746	267
497.963	253
498.181	281
498.398	304
498.615	310
498.832	344
499.049	342
499.267	310
499.484	325
499.701	337
499.918	348
500.135	396
500.352	411
500.569	436
500.786	436
501.003	452
501.22	375
501.437	354
501.654	343
501.871	339
502.088	318
502.305	296
502.522	280
502.739	290
502.956	262
503.172	287
503.389	274
503.606	276
503.823	254
504.04	259
504.256	261
504.473	256
504.69	254
504.907	275
505.123	294
505.34	302
505.557	292
505.773	247
505.99	252
506.207	258
506.423	248
506.64	243
506.856	242
507.073	264
507.289	252
507.506	270
507.722	286
507.939	299
508.155	282
508.372	260
508.588	233
508.805	242
509.021	235
509.238	236
509.454	220
509.67	245
509.887	238
510.103	268
510.319	250
510.536	225
510.752	217
510.968	226
511.184	218
511.401	212
511.617	220
511.833	234
512.049	225
512.265	227
512.481	216
512.698	241
512.914	249
513.13	247
513.346	241
513.562	240
513.778	235
513.994	215
514.21	256
514.426	246
514.642	223
514.858	227
515.074	240
515.29	237
515.506	264
515.721	261
515.937	251
516.153	240
516.369	239
516.585	247
516.801	266
517.016	315
517.232	290
517.448	302
517.664	286
517.879	248
518.095	261
518.311	271
518.527	266
518.742	286
518.958	296
519.173	286
519.389	274
519.605	293
519.82	291
520.036	306
520.251	296
520.467	320
520.682	466
520.898	591
521.113	562
521.329	362
521.544	274
521.76	285
521.975	268
522.19	256
522.406	251
522.621	275
522.836	309
523.052	302
523.267	273
523.482	266
523.698	279
523.913	280
524.128	226
524.343	235
524.559	228
524.774	236
524.989	234
525.204	212
525.419	239
525.634	239
525.849	263
526.064	241
526.28	253
526.495	284
526.71	308
526.925	277
527.14	294
527.355	304
527.57	238
527.785	256
527.999	248
528.214	223
528.429	223
528.644	229
528.859	219
529.074	218
529.289	206
529.503	207
529.718	212
529.933	284
530.148	286
530.363	243
530.577	220
530.792	215
531.007	212
531.221	224
531.436	205
531.651	214
531.865	212
532.08	223
532.295	232
532.509	233
532.724	257
532.938	280
533.153	353
533.367	265
533.582	251
533.796	223
534.011	233
534.225	231
534.44	229
534.654	219
534.868	291
535.083	255
535.297	206
535.511	227
535.726	253
535.94	223
536.154	220
536.369	214
536.583	220
536.797	217
537.011	235
537.225	241
537.44	268
537.654	211
537.868	226
538.082	218
538.296	220
538.51	242
538.724	218
538.938	219
539.153	216
539.367	203
539.581	221
539.795	213
540.009	260
540.222	210
540.436	224
540.65	261
540.864	240
541.078	233
541.292	295
541.506	234
541.72	220
541.934	226
542.147	232
542.361	216
542.575	234
542.789	217
543.002	198
543.216	231
543.43	190
543.644	210
543.857	194
544.071	193
544.285	202
544.498	203
544.712	199
544.925	230
545.139	217
545.352	187
545.566	209
545.779	232
545.993	216
546.206	172
546.42	177
546.633	199
546.847	196
547.06	193
547.274	200
547.487	187
547.7	200
547.914	229
548.127	217
548.34	225
548.554	196
548.767	220
548.98	203
549.193	191
549.407	212
549.62	238
549.833	234
550.046	254
550.259	259
550.473	227
550.686	217
550.899	239
551.112	222
551.325	225
551.538	225
551.751	224
551.964	199
552.177	211
552.39	214
552.603	189
552.816	222
553.029	202
553.242	197
553.455	210
553.667	225
553.88	219
554.093	200
554.306	198
554.519	187
554.732	167
554.944	193
555.157	191
555.37	164
555.583	185
555.795	185
556.008	199
556.221	194
556.433	177
556.646	177
556.859	177
557.071	191
557.284	191
557.496	184
557.709	187
557.921	200
558.134	191
558.346	168
558.559	164
558.771	183
558.984	194
559.196	176
559.409	190
559.621	163
559.833	172
560.046	172
560.258	178
560.47	188
560.683	167
560.895	164
561.107	169
561.32	166
561.532	178
561.744	184
561.956	180
562.168	145
562.381	148
562.593	171
562.805	182
563.017	170
563.229	164
563.441	156
563.653	165
563.865	168
564.077	167
564.289	180
564.501	167
564.713	176
564.925	172
565.137	177
565.349	176
565.561	159
565.773	179
565.985	187
566.197	202
566.408	192
566.62	200
566.832	192
567.044	207
567.255	198
567.467	210
567.679	204
567.891	231
568.102	212
568.314	244
568.526	214
568.737	209
568.949	217
569.161	180
569.372	176
569.584	162
569.795	165
570.007	194
570.218	194
570.43	186
570.641	175
570.853	154
571.064	160
571.276	163
571.487	168
571.698	166
571.91	172
572.121	169
572.333	157
572.544	146
572.755	167
572.966	161
573.178	168
573.389	161
573.6	169
573.811	164
574.023	158
574.234	146
574.445	151
574.656	149
574.867	140
575.078	162
575.289	151
575.501	158
575.712	153
575.923	149
576.134	146
576.345	141
576.556	165
576.767	129
576.978	145
577.188	136
577.399	142
577.61	124
577.821	143
578.032	164
578.243	158
578.454	153
578.665	152
578.875	149
579.086	152
579.297	166
579.508	163
579.718	152
579.929	144
580.14	152
580.35	155
580.561	150
580.772	131
580.982	147
581.193	138
581.403	143
581.614	141
581.825	135
582.035	134
582.246	136
582.456	135
582.667	135
582.877	136
583.087	148
583.298	130
583.508	122
583.719	124
583.929	135
584.139	132
584.35	125
584.56	136
584.77	146
584.981	151
585.191	142
585.401	130
585.611	138
585.821	147
586.032	158
586.242	134
586.452	147
586.662	140
586.872	147
587.082	153
587.292	134
587.502	140
587.713	136
587.923	148
588.133	138
588.343	146
588.553	136
588.762	151
588.972	145
589.182	145
589.392	141
589.602	139
589.812	136
590.022	167
590.232	147
590.441	149
590.651	126
590.861	138
591.071	127
591.281	127
591.49	125
591.7	124
591.91	134
592.119	124
592.329	144
592.539	137
592.748	138
592.958	138
593.167	148
593.377	134
593.587	147
593.796	144
594.006	143
594.215	142
594.424	143
594.634	147
594.843	127
595.053	137
595.262	134
595.472	148
595.681	139
595.89	118
596.1	137
596.309	139
596.518	140
596.727	132
596.937	139
597.146	137
597.355	118
597.564	126
597.774	127
597.983	125
598.192	131
598.401	135
598.61	116
598.819	134
599.028	110
599.237	123
599.446	112
599.655	132
599.864	119
600.073	129
600.282	113
600.491	125
600.7	127
600.909	133
601.118	113
601.327	129
601.536	138
601.745	121
601.953	127
602.162	121
602.371	126
602.58	142
602.789	126
602.997	111
603.206	134
603.415	121
603.623	120
603.832	123
604.041	121
604.249	118
604.458	116
604.666	125
604.875	126
605.084	117
605.292	121
605.501	121
605.709	124
605.918	110
606.126	119
606.334	110
606.543	121
606.751	128
606.96	131
607.168	108
607.376	108
607.585	131
607.793	119
608.001	128
608.21	122
608.418	120
608.626	115
608.834	119
609.043	114
609.251	128
609.459	120
609.667	124
609.875	103
610.083	105
610.291	110
610.499	98
610.707	120
610.916	112
611.124	117
611.332	126
611.54	129
611.748	114
611.955	109
612.163	104
612.371	118
612.579	112
612.787	126
612.995	116
613.203	116
613.411	118
613.618	121
613.826	101
614.034	116
614.242	123
614.449	113
614.657	107
614.865	107
615.072	121
615.28	130
615.488	113
615.695	112
615.903	95
616.111	100
616.318	118
616.526	114
616.733	120
616.941	116
617.148	110
617.356	106
617.563	110
617.771	124
617.978	121
618.185	106
618.393	121
618.6	122
618.807	112
619.015	113
619.222	105
619.429	108
619.637	116
619.844	105
620.051	120
620.258	114
620.466	107
620.673	106
620.88	111
621.087	103
621.294	101
621.501	107
621.708	104
621.915	97
622.122	92
622.329	107
622.536	112
622.743	104
622.95	114
623.157	95
623.364	106
623.571	114
623.778	98
623.985	113
624.192	110
624.399	110
624.606	111
624.812	112
625.019	101
625.226	107
625.433	105
625.639	105
625.846	99
626.053	114
626.259	107
626.466	99
626.673	111
626.879	118
627.086	123
627.293	112
627.499	110
627.706	104
627.912	100
628.119	115
628.325	114
628.532	107
628.738	115
628.945	102
629.151	114
629.357	119
629.564	104
629.77	114
629.976	104
630.183	105
630.389	107
630.595	94
630.802	95
631.008	113
631.214	108
631.42	106
631.627	122
631.833	110
632.039	95
632.245	106
632.451	122
632.657	98
632.863	96
633.069	94
633.275	101
633.481	99
633.688	97
633.893	104
634.099	97
634.305	110
634.511	108
634.717	114
634.923	112
635.129	98
635.335	114
635.541	98
635.747	88
635.952	95
636.158	114
636.364	105
636.57	102
636.775	103
636.981	104
637.187	94
637.392	104
637.598	100
637.804	96
638.009	100
638.215	107
638.421	100
638.626	85
638.832	106
639.037	104
639.243	103
639.448	94
639.654	105
639.859	101
640.065	91
640.27	113
640.475	100
640.681	105
640.886	110
641.091	94
641.297	110
641.502	107
641.707	100
641.913	97
642.118	101
642.323	96
642.528	87
642.733	98
642.939	102
643.144	107
643.349	100
643.554	107
643.759	100
643.964	103
644.169	97
644.374	80
644.579	101
644.784	111
644.989	94
645.194	82
645.399	84
645.604	97
645.809	95
646.014	99
646.219	81
646.423	97
646.628	104
646.833	97
647.038	99
647.243	103
647.447	93
647.652	110
647.857	107
648.062	100
648.266	103
648.471	97
648.676	79
648.88	102
649.085	87
649.289	95
649.494	99
649.698	98
649.903	104
650.107	94
650.312	100
650.516	103
650.721	89
650.925	101
651.13	99
651.334	95
651.539	80
651.743	91
651.947	98
652.152	101
652.356	86
652.56	91
652.764	88
652.969	81
653.173	84
653.377	93
653.581	83
653.785	97
653.99	92
654.194	99
654.398	99
654.602	88
654.806	106
655.01	96
655.214	98
655.418	84
655.622	98
655.826	99
656.03	90
656.234	93
656.438	87
656.642	97
656.846	94
657.049	84
657.253	87
657.457	90
657.661	95
657.865	80
658.068	89
658.272	85
658.476	83
658.68	80
658.883	90
659.087	87
659.291	90
659.494	78
659.698	89
659.901	86
660.105	76
660.309	82
660.512	79
660.716	76
660.919	88
661.123	79
661.326	86
661.53	101
661.733	82
661.936	91
662.14	85
662.343	73
662.546	93
662.75	82
662.953	76
663.156	70
663.36	99
663.563	83
663.766	85
663.969	77
664.173	78
664.376	80
664.579	74
664.782	73
664.985	93
665.188	80
665.391	80
665.594	85
665.797	78
666	82
666.203	83
666.406	80
666.609	82
666.812	79
667.015	85
667.218	85
667.421	79
667.624	75
667.827	75
668.03	67
668.232	67
668.435	85
668.638	80
668.841	97
669.043	89
669.246	86
669.449	75
669.651	88
669.854	83
670.057	85
670.259	84
670.462	95
670.665	91
670.867	74
671.07	84
671.272	86
671.475	90
671.677	76
671.88	83
672.082	73
672.284	82
672.487	70
672.689	79
672.892	86
