Data from NickelSpatula_HRD10591_16-33-58-126.txt Node
Date: Mon Jul 22 16:33:58 EDT 2019
User: cochatt
Spectrometer: HR+D1059
Trigger mode: 1
Integration Time (sec): 1.000000E-1
Scans to average: 1
Electric dark correction enabled: true
Nonlinearity correction enabled: false
Boxcar width: 0
XAxis mode: Wavelengths
Number of Pixels in Spectrum: 2048
>>>>>Begin Spectral Data<<<<<
223.165	-28
223.4	-28
223.635	-28
223.869	-23
224.104	-10
224.338	-13
224.573	-20
224.808	-20
225.042	-13
225.277	0
225.511	-7
225.746	18
225.98	7
226.215	23
226.449	13
226.683	24
226.918	13
227.152	36
227.387	30
227.621	53
227.856	35
228.09	45
228.324	53
228.559	58
228.793	63
229.027	81
229.262	62
229.496	80
229.73	73
229.964	83
230.199	88
230.433	96
230.667	97
230.901	96
231.136	93
231.37	108
231.604	92
231.838	98
232.072	119
232.306	102
232.541	110
232.775	101
233.009	108
233.243	100
233.477	122
233.711	125
233.945	125
234.179	109
234.413	128
234.647	127
234.881	137
235.115	134
235.349	125
235.583	116
235.817	139
236.051	123
236.285	127
236.519	154
236.753	141
236.987	138
237.221	150
237.455	135
237.689	135
237.922	133
238.156	122
238.39	147
238.624	161
238.858	144
239.091	147
239.325	143
239.559	136
239.793	146
240.027	165
240.26	175
240.494	158
240.728	155
240.961	169
241.195	169
241.429	170
241.662	165
241.896	162
242.13	145
242.363	134
242.597	136
242.83	150
243.064	156
243.298	157
243.531	164
243.765	165
243.998	172
244.232	170
244.465	168
244.699	165
244.932	194
245.166	171
245.399	170
245.633	156
245.866	142
246.099	167
246.333	205
246.566	190
246.8	202
247.033	207
247.266	181
247.5	179
247.733	177
247.966	184
248.2	195
248.433	207
248.666	211
248.899	176
249.133	211
249.366	221
249.599	221
249.832	206
250.066	193
250.299	212
250.532	207
250.765	200
250.998	193
251.231	186
251.465	203
251.698	191
251.931	203
252.164	199
252.397	211
252.63	237
252.863	265
253.096	266
253.329	258
253.562	278
253.795	282
254.028	315
254.261	312
254.494	275
254.727	270
254.96	258
255.193	278
255.426	277
255.659	211
255.892	197
256.124	218
256.357	249
256.59	294
256.823	279
257.056	235
257.289	221
257.521	236
257.754	280
257.987	295
258.22	281
258.452	248
258.685	271
258.918	285
259.151	314
259.383	298
259.616	336
259.849	350
260.081	350
260.314	394
260.547	342
260.779	345
261.012	395
261.244	369
261.477	373
261.71	346
261.942	307
262.175	308
262.407	283
262.64	295
262.872	345
263.105	366
263.337	355
263.57	339
263.802	258
264.035	241
264.267	223
264.499	184
264.732	189
264.964	185
265.197	195
265.429	210
265.661	226
265.894	214
266.126	212
266.358	247
266.591	275
266.823	350
267.055	344
267.287	300
267.52	310
267.752	313
267.984	338
268.216	331
268.448	261
268.681	250
268.913	289
269.145	298
269.377	303
269.609	310
269.841	284
270.073	320
270.306	333
270.538	320
270.77	336
271.002	348
271.234	350
271.466	372
271.698	330
271.93	312
272.162	313
272.394	315
272.626	320
272.858	329
273.09	350
273.322	295
273.553	270
273.785	286
274.017	395
274.249	470
274.481	507
274.713	536
274.945	621
275.176	631
275.408	565
275.64	514
275.872	529
276.104	480
276.335	429
276.567	413
276.799	421
277.031	457
277.262	375
277.494	282
277.726	267
277.957	299
278.189	328
278.421	345
278.652	323
278.884	305
279.115	277
279.347	299
279.579	277
279.81	284
280.042	285
280.273	287
280.505	253
280.736	213
280.968	238
281.199	243
281.431	271
281.662	269
281.894	267
282.125	285
282.356	311
282.588	312
282.819	285
283.051	297
283.282	350
283.513	406
283.745	441
283.976	454
284.207	422
284.439	450
284.67	411
284.901	384
285.132	420
285.364	418
285.595	400
285.826	436
286.057	427
286.288	410
286.52	437
286.751	442
286.982	466
287.213	416
287.444	401
287.675	404
287.906	399
288.138	348
288.369	329
288.6	283
288.831	301
289.062	352
289.293	372
289.524	357
289.755	359
289.986	370
290.217	341
290.448	275
290.679	238
290.91	201
291.141	228
291.371	221
291.602	211
291.833	230
292.064	241
292.295	263
292.526	315
292.757	308
292.987	344
293.218	361
293.449	347
293.68	378
293.91	374
294.141	397
294.372	364
294.603	318
294.833	350
295.064	402
295.295	392
295.525	305
295.756	251
295.987	220
296.217	245
296.448	229
296.679	229
296.909	262
297.14	288
297.37	315
297.601	283
297.831	254
298.062	273
298.292	303
298.523	331
298.753	357
298.984	352
299.214	290
299.445	237
299.675	241
299.905	222
300.136	234
300.366	257
300.597	279
300.827	222
301.057	209
301.288	236
301.518	239
301.748	259
301.979	295
302.209	281
302.439	285
302.669	291
302.9	279
303.13	261
303.36	246
303.59	254
303.82	233
304.051	273
304.281	297
304.511	310
304.741	257
304.971	269
305.201	281
305.431	263
305.661	237
305.891	227
306.121	229
306.352	211
306.582	200
306.812	204
307.042	189
307.272	189
307.502	181
307.731	215
307.961	207
308.191	198
308.421	201
308.651	188
308.881	207
309.111	179
309.341	190
309.571	196
309.8	208
310.03	216
310.26	227
310.49	209
310.72	201
310.949	189
311.179	211
311.409	200
311.639	228
311.868	306
312.098	361
312.328	410
312.557	381
312.787	394
313.017	367
313.246	373
313.476	407
313.706	343
313.935	302
314.165	215
314.394	216
314.624	210
314.853	230
315.083	227
315.312	228
315.542	227
315.771	219
316.001	188
316.23	207
316.46	185
316.689	188
316.919	210
317.148	215
317.377	197
317.607	195
317.836	198
318.065	236
318.295	281
318.524	267
318.753	204
318.983	212
319.212	194
319.441	208
319.67	231
319.9	265
320.129	262
320.358	211
320.587	221
320.816	218
321.046	254
321.275	270
321.504	260
321.733	275
321.962	243
322.191	240
322.42	231
322.649	237
322.878	277
323.108	266
323.337	257
323.566	227
323.795	230
324.024	239
324.253	216
324.482	232
324.71	228
324.939	253
325.168	235
325.397	198
325.626	221
325.855	216
326.084	214
326.313	206
326.542	182
326.77	202
326.999	197
327.228	213
327.457	203
327.686	203
327.914	198
328.143	183
328.372	189
328.6	201
328.829	199
329.058	196
329.287	191
329.515	204
329.744	197
329.972	200
330.201	181
330.43	190
330.658	211
330.887	245
331.115	223
331.344	211
331.572	211
331.801	187
332.03	180
332.258	215
332.486	208
332.715	215
332.943	213
333.172	204
333.4	201
333.629	232
333.857	263
334.085	241
334.314	231
334.542	227
334.771	219
334.999	213
335.227	219
335.455	225
335.684	228
335.912	242
336.14	273
336.369	274
336.597	270
336.825	281
337.053	334
337.281	271
337.51	207
337.738	199
337.966	229
338.194	239
338.422	238
338.65	195
338.878	195
339.106	195
339.334	234
339.562	221
339.79	189
340.018	202
340.246	211
340.474	243
340.702	251
340.93	260
341.158	294
341.386	241
341.614	224
341.842	227
342.07	223
342.298	258
342.526	308
342.754	246
342.981	215
343.209	213
343.437	251
343.665	274
343.893	253
344.12	292
344.348	365
344.576	314
344.804	269
345.031	234
345.259	217
345.487	223
345.714	216
345.942	241
346.17	275
346.397	237
346.625	217
346.853	215
347.08	214
347.308	211
347.535	246
347.763	238
347.99	227
348.218	198
348.445	207
348.673	229
348.9	209
349.128	214
349.355	225
349.583	225
349.81	229
350.037	208
350.265	169
350.492	192
350.72	183
350.947	190
351.174	189
351.402	191
351.629	204
351.856	202
352.083	177
352.311	199
352.538	217
352.765	238
352.992	218
353.22	235
353.447	230
353.674	220
353.901	210
354.128	206
354.355	222
354.583	211
354.81	202
355.037	231
355.264	225
355.491	236
355.718	241
355.945	252
356.172	217
356.399	217
356.626	247
356.853	296
357.08	346
357.307	336
357.534	280
357.761	282
357.988	342
358.215	387
358.441	370
358.668	338
358.895	307
359.122	252
359.349	251
359.576	284
359.802	243
360.029	214
360.256	217
360.483	245
360.709	294
360.936	342
361.163	299
361.39	233
361.616	206
361.843	233
362.07	271
362.296	270
362.523	222
362.749	202
362.976	196
363.203	229
363.429	250
363.656	221
363.882	212
364.109	218
364.335	212
364.562	206
364.788	226
365.015	265
365.241	231
365.468	204
365.694	194
365.92	178
366.147	162
366.373	161
366.599	161
366.826	167
367.052	178
367.278	170
367.505	182
367.731	187
367.957	199
368.184	209
368.41	230
368.636	220
368.862	237
369.089	213
369.315	205
369.541	204
369.767	174
369.993	183
370.219	185
370.445	184
370.672	200
370.898	205
371.124	224
371.35	195
371.576	207
371.802	203
372.028	222
372.254	261
372.48	220
372.706	202
372.932	218
373.158	232
373.384	259
373.61	330
373.835	307
374.061	257
374.287	242
374.513	295
374.739	305
374.965	307
375.191	326
375.416	237
375.642	224
375.868	229
376.094	274
376.319	220
376.545	234
376.771	257
376.997	228
377.222	175
377.448	163
377.674	171
377.899	161
378.125	171
378.35	171
378.576	181
378.802	206
379.027	214
379.253	205
379.478	217
379.704	221
379.929	213
380.155	233
380.38	194
380.606	214
380.831	218
381.057	229
381.282	222
381.507	234
381.733	267
381.958	270
382.184	328
382.409	318
382.634	326
382.86	329
383.085	297
383.31	241
383.535	243
383.761	247
383.986	223
384.211	265
384.436	278
384.662	216
384.887	208
385.112	227
385.337	231
385.562	215
385.787	230
386.013	273
386.238	246
386.463	213
386.688	215
386.913	195
387.138	198
387.363	193
387.588	220
387.813	208
388.038	229
388.263	207
388.488	206
388.713	244
388.938	246
389.163	222
389.387	190
389.612	189
389.837	194
390.062	211
390.287	205
390.512	245
390.736	218
390.961	195
391.186	199
391.411	187
391.636	196
391.86	199
392.085	218
392.31	228
392.534	222
392.759	218
392.984	211
393.208	212
393.433	181
393.658	198
393.882	173
394.107	170
394.331	179
394.556	183
394.78	188
395.005	180
395.229	183
395.454	195
395.678	180
395.903	184
396.127	188
396.352	181
396.576	218
396.801	227
397.025	228
397.249	229
397.474	196
397.698	192
397.922	214
398.147	183
398.371	207
398.595	196
398.82	190
399.044	209
399.268	206
399.492	236
399.717	236
399.941	229
400.165	237
400.389	222
400.613	204
400.837	229
401.062	193
401.286	194
401.51	191
401.734	186
401.958	222
402.182	189
402.406	190
402.63	201
402.854	196
403.078	227
403.302	295
403.526	323
403.75	280
403.974	237
404.198	247
404.422	262
404.645	268
404.869	324
405.093	245
405.317	221
405.541	218
405.765	229
405.988	225
406.212	218
406.436	261
406.66	295
406.883	237
407.107	230
407.331	269
407.555	277
407.778	249
408.002	242
408.226	238
408.449	230
408.673	225
408.896	219
409.12	203
409.344	194
409.567	201
409.791	205
410.014	196
410.238	185
410.461	219
410.685	201
410.908	206
411.132	198
411.355	228
411.578	205
411.802	190
412.025	206
412.249	212
412.472	215
412.695	207
412.919	210
413.142	214
413.365	233
413.589	213
413.812	196
414.035	199
414.258	189
414.482	220
414.705	227
414.928	205
415.151	191
415.374	196
415.597	210
415.821	212
416.044	192
416.267	210
416.49	181
416.713	174
416.936	188
417.159	189
417.382	191
417.605	186
417.828	203
418.051	212
418.274	206
418.497	206
418.72	197
418.943	199
419.166	217
419.389	209
419.611	204
419.834	217
420.057	238
420.28	244
420.503	205
420.726	184
420.948	194
421.171	211
421.394	201
421.617	186
421.839	193
422.062	180
422.285	209
422.507	199
422.73	197
422.953	215
423.175	201
423.398	206
423.621	211
423.843	236
424.066	202
424.288	200
424.511	201
424.733	201
424.956	206
425.178	220
425.401	245
425.623	288
425.846	243
426.068	217
426.291	252
426.513	231
426.735	197
426.958	200
427.18	252
427.402	291
427.625	294
427.847	267
428.069	186
428.292	193
428.514	201
428.736	186
428.958	196
429.181	244
429.403	206
429.625	197
429.847	193
430.069	194
430.292	209
430.514	195
430.736	203
430.958	251
431.18	237
431.402	179
431.624	178
431.846	193
432.068	181
432.29	158
432.512	208
432.734	250
432.956	231
433.178	197
433.4	195
433.622	181
433.844	206
434.066	223
434.287	201
434.509	202
434.731	210
434.953	201
435.175	201
435.397	231
435.618	209
435.84	206
436.062	175
436.284	173
436.505	186
436.727	188
436.949	174
437.17	191
437.392	178
437.614	187
437.835	190
438.057	187
438.278	220
438.5	277
438.721	275
438.943	216
439.165	177
439.386	169
439.608	186
439.829	161
440.05	174
440.272	185
440.493	213
440.715	255
440.936	215
441.158	205
441.379	189
441.6	207
441.822	221
442.043	193
442.264	196
442.486	202
442.707	188
442.928	195
443.149	192
443.371	187
443.592	185
443.813	186
444.034	189
444.255	193
444.476	212
444.698	200
444.919	191
445.14	323
445.361	259
445.582	213
445.803	218
446.024	228
446.245	220
446.466	228
446.687	203
446.908	177
447.129	181
447.35	204
447.571	174
447.792	169
448.013	165
448.234	182
448.455	182
448.675	186
448.896	182
449.117	172
449.338	174
449.559	187
449.779	195
450	206
450.221	190
450.442	182
450.662	178
450.883	157
451.104	185
451.324	181
451.545	190
451.766	181
451.986	181
452.207	187
452.428	170
452.648	171
452.869	193
453.089	201
453.31	207
453.53	171
453.751	173
453.971	170
454.192	197
454.412	165
454.633	179
454.853	186
455.073	173
455.294	150
455.514	163
455.734	169
455.955	169
456.175	187
456.395	157
456.616	154
456.836	143
457.056	146
457.276	155
457.497	148
457.717	178
457.937	170
458.157	151
458.377	169
458.598	168
458.818	174
459.038	184
459.258	190
459.478	161
459.698	177
459.918	206
460.138	211
460.358	224
460.578	207
460.798	195
461.018	199
461.238	177
461.458	189
461.678	202
461.898	202
462.118	204
462.338	218
462.558	217
462.777	231
462.997	228
463.217	242
463.437	241
463.657	224
463.876	209
464.096	218
464.316	204
464.536	216
464.755	228
464.975	229
465.195	209
465.414	237
465.634	210
465.854	199
466.073	186
466.293	198
466.512	207
466.732	230
466.951	226
467.171	206
467.391	185
467.61	203
467.829	212
468.049	208
468.268	192
468.488	202
468.707	181
468.927	234
469.146	243
469.365	201
469.585	200
469.804	214
470.023	229
470.243	223
470.462	196
470.681	207
470.901	186
471.12	217
471.339	200
471.558	218
471.777	216
471.997	226
472.216	240
472.435	211
472.654	195
472.873	203
473.092	216
473.311	216
473.53	202
473.749	197
473.968	197
474.187	202
474.406	202
474.625	180
474.844	196
475.063	220
475.282	201
475.501	212
475.72	251
475.939	256
476.158	234
476.377	273
476.596	277
476.814	287
477.033	284
477.252	234
477.471	203
477.69	221
477.908	215
478.127	230
478.346	231
478.564	261
478.783	239
479.002	233
479.22	275
479.439	265
479.658	248
479.876	213
480.095	235
480.313	242
480.532	222
480.751	220
480.969	233
481.188	263
481.406	243
481.624	244
481.843	228
482.061	216
482.28	243
482.498	302
482.717	303
482.935	250
483.153	243
483.372	227
483.59	238
483.808	215
484.027	231
484.245	206
484.463	198
484.681	217
484.9	230
485.118	231
485.336	225
485.554	213
485.772	218
485.99	242
486.209	233
486.427	247
486.645	238
486.863	257
487.081	241
487.299	278
487.517	279
487.735	233
487.953	256
488.171	247
488.389	235
488.607	221
488.825	235
489.043	253
489.261	285
489.479	324
489.696	259
489.914	243
490.132	207
490.35	242
490.568	236
490.786	229
491.003	220
491.221	232
491.439	228
491.657	223
491.874	234
492.092	293
492.31	363
492.527	349
492.745	293
492.963	251
493.18	265
493.398	261
493.615	271
493.833	249
494.05	234
494.268	257
494.485	240
494.703	241
494.92	245
495.138	240
495.355	230
495.573	244
495.79	276
496.008	372
496.225	307
496.442	249
496.66	274
496.877	266
497.094	262
497.312	259
497.529	257
497.746	234
497.963	255
498.181	278
498.398	293
498.615	323
498.832	339
499.049	325
499.267	309
499.484	314
499.701	310
499.918	353
500.135	392
500.352	399
500.569	419
500.786	439
501.003	421
501.22	409
501.437	339
501.654	294
501.871	303
502.088	302
502.305	300
502.522	313
502.739	289
502.956	267
503.172	267
503.389	253
503.606	260
503.823	270
504.04	269
504.256	276
504.473	280
504.69	271
504.907	277
505.123	276
505.34	291
505.557	275
505.773	258
505.99	263
506.207	257
506.423	241
506.64	238
506.856	239
507.073	292
507.289	260
507.506	272
507.722	297
507.939	283
508.155	297
508.372	266
508.588	258
508.805	245
509.021	245
509.238	243
509.454	241
509.67	242
509.887	249
510.103	265
510.319	268
510.536	258
510.752	230
510.968	217
511.184	207
511.401	208
511.617	217
511.833	217
512.049	217
512.265	213
512.481	222
512.698	243
512.914	279
513.13	251
513.346	233
513.562	242
513.778	243
513.994	231
514.21	257
514.426	261
514.642	234
514.858	235
515.074	236
515.29	248
515.506	272
515.721	264
515.937	268
516.153	242
516.369	232
516.585	253
516.801	285
517.016	317
517.232	313
517.448	310
517.664	270
517.879	263
518.095	263
518.311	260
518.527	262
518.742	281
518.958	315
519.173	289
519.389	292
519.605	273
519.82	285
520.036	341
520.251	329
520.467	318
520.682	479
520.898	653
521.113	618
521.329	357
521.544	299
521.76	307
521.975	285
522.19	268
522.406	287
522.621	285
522.836	324
523.052	313
523.267	277
523.482	262
523.698	292
523.913	268
524.128	260
524.343	242
524.559	237
524.774	235
524.989	252
525.204	257
525.419	275
525.634	249
525.849	243
526.064	271
526.28	252
526.495	313
526.71	318
526.925	302
527.14	302
527.355	293
527.57	257
527.785	263
527.999	246
528.214	245
528.429	243
528.644	226
528.859	220
529.074	221
529.289	213
529.503	206
529.718	245
529.933	279
530.148	309
530.363	219
530.577	232
530.792	217
531.007	216
531.221	213
531.436	211
531.651	213
531.865	197
532.08	232
532.295	217
532.509	216
532.724	250
532.938	259
533.153	358
533.367	265
533.582	252
533.796	232
534.011	217
534.225	222
534.44	224
534.654	266
534.868	295
535.083	264
535.297	233
535.511	216
535.726	246
535.94	245
536.154	213
536.369	201
536.583	203
536.797	214
537.011	234
537.225	242
537.44	250
537.654	228
537.868	227
538.082	202
538.296	221
538.51	241
538.724	230
538.938	224
539.153	201
539.367	214
539.581	217
539.795	228
540.009	253
540.222	230
540.436	236
540.65	253
540.864	252
541.078	266
541.292	314
541.506	262
541.72	245
541.934	224
542.147	225
542.361	239
542.575	265
542.789	220
543.002	224
543.216	217
543.43	213
543.644	215
543.857	199
544.071	188
544.285	212
544.498	197
544.712	210
544.925	219
545.139	199
545.352	185
545.566	189
545.779	226
545.993	202
546.206	187
546.42	199
546.633	194
546.847	199
547.06	181
547.274	191
547.487	201
547.7	200
547.914	231
548.127	245
548.34	228
548.554	206
548.767	225
548.98	225
549.193	223
549.407	239
549.62	244
549.833	243
550.046	245
550.259	239
550.473	236
550.686	214
550.899	218
551.112	242
551.325	226
551.538	221
551.751	216
551.964	211
552.177	217
552.39	205
552.603	196
552.816	193
553.029	214
553.242	201
553.455	188
553.667	218
553.88	218
554.093	212
554.306	178
554.519	188
554.732	170
554.944	182
555.157	174
555.37	182
555.583	173
555.795	189
556.008	178
556.221	196
556.433	193
556.646	181
556.859	182
557.071	182
557.284	187
557.496	203
557.709	192
557.921	188
558.134	163
558.346	175
558.559	170
558.771	171
558.984	186
559.196	198
559.409	169
559.621	181
559.833	154
560.046	165
560.258	166
560.47	189
560.683	171
560.895	158
561.107	175
561.32	164
561.532	181
561.744	184
561.956	197
562.168	170
562.381	186
562.593	153
562.805	185
563.017	159
563.229	161
563.441	174
563.653	169
563.865	185
564.077	164
564.289	169
564.501	159
564.713	168
564.925	191
565.137	172
565.349	174
565.561	165
565.773	174
565.985	181
566.197	179
566.408	188
566.62	195
566.832	204
567.044	206
567.255	206
567.467	244
567.679	204
567.891	217
568.102	227
568.314	227
568.526	216
568.737	210
568.949	211
569.161	196
569.372	179
569.584	186
569.795	163
570.007	173
570.218	185
570.43	181
570.641	171
570.853	163
571.064	168
571.276	185
571.487	170
571.698	159
571.91	166
572.121	174
572.333	161
572.544	159
572.755	181
572.966	170
573.178	158
573.389	166
573.6	157
573.811	144
574.023	151
574.234	164
574.445	151
574.656	155
574.867	153
575.078	160
575.289	158
575.501	161
575.712	164
575.923	152
576.134	159
576.345	158
576.556	143
576.767	154
576.978	159
577.188	146
577.399	151
577.61	145
577.821	143
578.032	141
578.243	178
578.454	168
578.665	163
578.875	168
579.086	165
579.297	160
579.508	150
579.718	147
579.929	150
580.14	155
580.35	158
580.561	136
580.772	135
580.982	142
581.193	138
581.403	151
581.614	139
581.825	135
582.035	138
582.246	136
582.456	134
582.667	133
582.877	134
583.087	126
583.298	129
583.508	133
583.719	136
583.929	145
584.139	134
584.35	117
584.56	146
584.77	154
584.981	128
585.191	141
585.401	131
585.611	139
585.821	145
586.032	149
586.242	148
586.452	141
586.662	137
586.872	159
587.082	129
587.292	131
587.502	139
587.713	140
587.923	147
588.133	133
588.343	148
588.553	136
588.762	139
588.972	147
589.182	127
589.392	151
589.602	148
589.812	158
590.022	141
590.232	159
590.441	149
590.651	129
590.861	125
591.071	148
591.281	137
591.49	129
591.7	140
591.91	147
592.119	138
592.329	141
592.539	140
592.748	158
592.958	143
593.167	147
593.377	156
593.587	144
593.796	162
594.006	142
594.215	149
594.424	122
594.634	131
594.843	139
595.053	147
595.262	138
595.472	129
595.681	133
595.89	126
596.1	141
596.309	133
596.518	140
596.727	128
596.937	130
597.146	126
597.355	136
597.564	128
597.774	135
597.983	118
598.192	131
598.401	131
598.61	140
598.819	139
599.028	133
599.237	115
599.446	115
599.655	114
599.864	118
600.073	137
600.282	116
600.491	127
600.7	114
600.909	131
601.118	138
601.327	136
601.536	133
601.745	124
601.953	136
602.162	131
602.371	136
602.58	126
602.789	130
602.997	121
603.206	123
603.415	133
603.623	109
603.832	113
604.041	121
604.249	127
604.458	127
604.666	122
604.875	99
605.084	121
605.292	123
605.501	134
605.709	122
605.918	133
606.126	121
606.334	131
606.543	114
606.751	138
606.96	128
607.168	130
607.376	114
607.585	118
607.793	128
608.001	117
608.21	110
608.418	109
608.626	129
608.834	106
609.043	130
609.251	135
609.459	127
609.667	115
609.875	129
610.083	136
610.291	123
610.499	130
610.707	117
610.916	115
611.124	119
611.332	119
611.54	116
611.748	121
611.955	131
612.163	101
612.371	114
612.579	116
612.787	129
612.995	105
613.203	101
613.411	124
613.618	111
613.826	113
614.034	125
614.242	121
614.449	123
614.657	114
614.865	103
615.072	113
615.28	103
615.488	118
615.695	119
615.903	134
616.111	122
616.318	124
616.526	110
616.733	112
616.941	108
617.148	107
617.356	116
617.563	110
617.771	117
617.978	109
618.185	115
618.393	113
618.6	97
618.807	117
619.015	135
619.222	125
619.429	118
619.637	105
619.844	113
620.051	116
620.258	111
620.466	128
620.673	108
620.88	115
621.087	119
621.294	113
621.501	121
621.708	111
621.915	117
622.122	100
622.329	102
622.536	108
622.743	119
622.95	131
623.157	110
623.364	114
623.571	119
623.778	123
623.985	114
624.192	117
624.399	129
624.606	117
624.812	113
625.019	117
625.226	105
625.433	99
625.639	128
625.846	115
626.053	115
626.259	122
626.466	109
626.673	115
626.879	126
627.086	121
627.293	106
627.499	106
627.706	110
627.912	104
628.119	107
628.325	115
628.532	104
628.738	118
628.945	113
629.151	102
629.357	102
629.564	106
629.77	111
629.976	110
630.183	115
630.389	111
630.595	90
630.802	106
631.008	120
631.214	114
631.42	97
631.627	119
631.833	105
632.039	111
632.245	113
632.451	94
632.657	107
632.863	100
633.069	87
633.275	100
633.481	92
633.688	106
633.893	103
634.099	99
634.305	101
634.511	101
634.717	106
634.923	107
635.129	108
635.335	103
635.541	109
635.747	116
635.952	95
636.158	99
636.364	107
636.57	89
636.775	105
636.981	103
637.187	111
637.392	104
637.598	102
637.804	100
638.009	101
638.215	100
638.421	79
638.626	109
638.832	107
639.037	108
639.243	93
639.448	105
639.654	107
639.859	100
640.065	100
640.27	109
640.475	109
640.681	96
640.886	107
641.091	96
641.297	120
641.502	93
641.707	117
641.913	86
642.118	101
642.323	103
642.528	93
642.733	101
642.939	118
643.144	106
643.349	108
643.554	88
643.759	96
643.964	84
644.169	104
644.374	106
644.579	108
644.784	106
644.989	107
645.194	111
645.399	111
645.604	91
645.809	104
646.014	108
646.219	89
646.423	105
646.628	102
646.833	108
647.038	98
647.243	117
647.447	110
647.652	104
647.857	98
648.062	106
648.266	106
648.471	105
648.676	86
648.88	101
649.085	110
649.289	97
649.494	93
649.698	97
649.903	101
650.107	101
650.312	97
650.516	90
650.721	111
650.925	90
651.13	88
651.334	94
651.539	102
651.743	86
651.947	104
652.152	107
652.356	104
652.56	103
652.764	96
652.969	104
653.173	84
653.377	95
653.581	100
653.785	94
653.99	94
654.194	102
654.398	88
654.602	102
654.806	93
655.01	95
655.214	110
655.418	101
655.622	97
655.826	79
656.03	98
656.234	99
656.438	87
656.642	83
656.846	85
657.049	87
657.253	99
657.457	94
657.661	84
657.865	95
658.068	84
658.272	90
658.476	94
658.68	93
658.883	93
659.087	85
659.291	94
659.494	79
659.698	86
659.901	78
660.105	92
660.309	88
660.512	88
660.716	95
660.919	91
661.123	97
661.326	84
661.53	106
661.733	83
661.936	95
662.14	78
662.343	89
662.546	86
662.75	94
662.953	90
663.156	83
663.36	91
663.563	91
663.766	86
663.969	83
664.173	95
664.376	76
664.579	79
664.782	75
664.985	71
665.188	88
665.391	73
665.594	82
665.797	83
666	90
666.203	86
666.406	99
666.609	95
666.812	83
667.015	75
667.218	91
667.421	76
667.624	88
667.827	92
668.03	78
668.232	91
668.435	94
668.638	75
668.841	78
669.043	86
669.246	88
669.449	93
669.651	96
669.854	85
670.057	98
670.259	80
670.462	94
670.665	79
670.867	84
671.07	83
671.272	93
671.475	77
671.677	86
671.88	77
672.082	84
672.284	76
672.487	89
672.689	80
672.892	75
