Data from NickelSpatula_HRD10591_16-33-47-126.txt Node
Date: Mon Jul 22 16:33:47 EDT 2019
User: cochatt
Spectrometer: HR+D1059
Trigger mode: 1
Integration Time (sec): 1.000000E-1
Scans to average: 1
Electric dark correction enabled: true
Nonlinearity correction enabled: false
Boxcar width: 0
XAxis mode: Wavelengths
Number of Pixels in Spectrum: 2048
>>>>>Begin Spectral Data<<<<<
223.165	-6.81
223.4	-6.81
223.635	-6.81
223.869	-7.81
224.104	-21.81
224.338	-12.81
224.573	-14.81
224.808	-2.81
225.042	-12.81
225.277	-14.81
225.511	3.19
225.746	7.19
225.98	14.19
226.215	5.19
226.449	6.19
226.683	16.19
226.918	23.19
227.152	19.19
227.387	39.19
227.621	42.19
227.856	54.19
228.09	54.19
228.324	51.19
228.559	66.19
228.793	71.19
229.027	69.19
229.262	73.19
229.496	74.19
229.73	76.19
229.964	85.19
230.199	93.19
230.433	111.19
230.667	96.19
230.901	99.19
231.136	99.19
231.37	103.19
231.604	105.19
231.838	104.19
232.072	119.19
232.306	99.19
232.541	100.19
232.775	112.19
233.009	105.19
233.243	108.19
233.477	119.19
233.711	131.19
233.945	110.19
234.179	127.19
234.413	123.19
234.647	128.19
234.881	142.19
235.115	138.19
235.349	139.19
235.583	119.19
235.817	115.19
236.051	127.19
236.285	132.19
236.519	127.19
236.753	127.19
236.987	135.19
237.221	133.19
237.455	151.19
237.689	141.19
237.922	131.19
238.156	148.19
238.39	160.19
238.624	174.19
238.858	155.19
239.091	143.19
239.325	158.19
239.559	139.19
239.793	132.19
240.027	169.19
240.26	145.19
240.494	156.19
240.728	152.19
240.961	169.19
241.195	165.19
241.429	157.19
241.662	161.19
241.896	152.19
242.13	124.19
242.363	145.19
242.597	157.19
242.83	157.19
243.064	144.19
243.298	141.19
243.531	173.19
243.765	178.19
243.998	163.19
244.232	165.19
244.465	163.19
244.699	167.19
244.932	167.19
245.166	161.19
245.399	152.19
245.633	155.19
245.866	164.19
246.099	161.19
246.333	183.19
246.566	185.19
246.8	185.19
247.033	199.19
247.266	194.19
247.5	177.19
247.733	168.19
247.966	168.19
248.2	163.19
248.433	190.19
248.666	192.19
248.899	187.19
249.133	201.19
249.366	239.19
249.599	228.19
249.832	225.19
250.066	193.19
250.299	200.19
250.532	201.19
250.765	216.19
250.998	197.19
251.231	172.19
251.465	198.19
251.698	199.19
251.931	194.19
252.164	197.19
252.397	219.19
252.63	241.19
252.863	267.19
253.096	265.19
253.329	259.19
253.562	267.19
253.795	276.19
254.028	287.19
254.261	288.19
254.494	269.19
254.727	250.19
254.96	237.19
255.193	252.19
255.426	240.19
255.659	208.19
255.892	204.19
256.124	196.19
256.357	243.19
256.59	268.19
256.823	243.19
257.056	238.19
257.289	208.19
257.521	233.19
257.754	281.19
257.987	297.19
258.22	264.19
258.452	231.19
258.685	246.19
258.918	270.19
259.151	268.19
259.383	284.19
259.616	332.19
259.849	344.19
260.081	342.19
260.314	365.19
260.547	300.19
260.779	319.19
261.012	363.19
261.244	330.19
261.477	326.19
261.71	326.19
261.942	281.19
262.175	294.19
262.407	279.19
262.64	278.19
262.872	307.19
263.105	324.19
263.337	355.19
263.57	307.19
263.802	234.19
264.035	217.19
264.267	219.19
264.499	193.19
264.732	179.19
264.964	181.19
265.197	185.19
265.429	196.19
265.661	211.19
265.894	199.19
266.126	223.19
266.358	234.19
266.591	261.19
266.823	327.19
267.055	312.19
267.287	293.19
267.52	296.19
267.752	285.19
267.984	327.19
268.216	315.19
268.448	266.19
268.681	269.19
268.913	271.19
269.145	276.19
269.377	302.19
269.609	317.19
269.841	293.19
270.073	302.19
270.306	313.19
270.538	323.19
270.77	312.19
271.002	327.19
271.234	332.19
271.466	353.19
271.698	328.19
271.93	298.19
272.162	309.19
272.394	300.19
272.626	313.19
272.858	315.19
273.09	310.19
273.322	289.19
273.553	274.19
273.785	284.19
274.017	371.19
274.249	446.19
274.481	464.19
274.713	502.19
274.945	551.19
275.176	571.19
275.408	525.19
275.64	503.19
275.872	513.19
276.104	430.19
276.335	402.19
276.567	375.19
276.799	385.19
277.031	409.19
277.262	337.19
277.494	273.19
277.726	268.19
277.957	268.19
278.189	320.19
278.421	337.19
278.652	315.19
278.884	308.19
279.115	270.19
279.347	272.19
279.579	271.19
279.81	277.19
280.042	273.19
280.273	278.19
280.505	272.19
280.736	245.19
280.968	231.19
281.199	239.19
281.431	264.19
281.662	279.19
281.894	243.19
282.125	280.19
282.356	292.19
282.588	318.19
282.819	269.19
283.051	277.19
283.282	336.19
283.513	383.19
283.745	423.19
283.976	436.19
284.207	392.19
284.439	410.19
284.67	388.19
284.901	353.19
285.132	368.19
285.364	399.19
285.595	368.19
285.826	413.19
286.057	401.19
286.288	409.19
286.52	386.19
286.751	409.19
286.982	443.19
287.213	381.19
287.444	382.19
287.675	374.19
287.906	373.19
288.138	340.19
288.369	302.19
288.6	283.19
288.831	295.19
289.062	327.19
289.293	343.19
289.524	354.19
289.755	337.19
289.986	344.19
290.217	304.19
290.448	258.19
290.679	238.19
290.91	218.19
291.141	231.19
291.371	219.19
291.602	226.19
291.833	223.19
292.064	235.19
292.295	265.19
292.526	282.19
292.757	303.19
292.987	325.19
293.218	349.19
293.449	344.19
293.68	364.19
293.91	347.19
294.141	356.19
294.372	357.19
294.603	292.19
294.833	333.19
295.064	380.19
295.295	364.19
295.525	292.19
295.756	234.19
295.987	227.19
296.217	219.19
296.448	247.19
296.679	237.19
296.909	248.19
297.14	286.19
297.37	320.19
297.601	282.19
297.831	248.19
298.062	253.19
298.292	303.19
298.523	305.19
298.753	338.19
298.984	311.19
299.214	276.19
299.445	245.19
299.675	252.19
299.905	233.19
300.136	219.19
300.366	247.19
300.597	232.19
300.827	231.19
301.057	207.19
301.288	248.19
301.518	236.19
301.748	259.19
301.979	255.19
302.209	287.19
302.439	284.19
302.669	277.19
302.9	273.19
303.13	261.19
303.36	248.19
303.59	246.19
303.82	241.19
304.051	250.19
304.281	283.19
304.511	292.19
304.741	248.19
304.971	261.19
305.201	240.19
305.431	259.19
305.661	215.19
305.891	223.19
306.121	228.19
306.352	197.19
306.582	196.19
306.812	199.19
307.042	206.19
307.272	176.19
307.502	200.19
307.731	179.19
307.961	198.19
308.191	206.19
308.421	195.19
308.651	169.19
308.881	183.19
309.111	182.19
309.341	183.19
309.571	199.19
309.8	213.19
310.03	191.19
310.26	210.19
310.49	193.19
310.72	203.19
310.949	206.19
311.179	177.19
311.409	202.19
311.639	215.19
311.868	269.19
312.098	348.19
312.328	383.19
312.557	359.19
312.787	360.19
313.017	326.19
313.246	346.19
313.476	379.19
313.706	329.19
313.935	264.19
314.165	228.19
314.394	214.19
314.624	207.19
314.853	224.19
315.083	237.19
315.312	208.19
315.542	222.19
315.771	203.19
316.001	185.19
316.23	194.19
316.46	175.19
316.689	200.19
316.919	195.19
317.148	196.19
317.377	196.19
317.607	185.19
317.836	206.19
318.065	217.19
318.295	241.19
318.524	237.19
318.753	218.19
318.983	198.19
319.212	193.19
319.441	216.19
319.67	228.19
319.9	231.19
320.129	244.19
320.358	207.19
320.587	201.19
320.816	220.19
321.046	231.19
321.275	257.19
321.504	259.19
321.733	244.19
321.962	245.19
322.191	231.19
322.42	234.19
322.649	232.19
322.878	243.19
323.108	248.19
323.337	247.19
323.566	228.19
323.795	225.19
324.024	217.19
324.253	212.19
324.482	205.19
324.71	218.19
324.939	247.19
325.168	208.19
325.397	185.19
325.626	204.19
325.855	200.19
326.084	205.19
326.313	205.19
326.542	190.19
326.77	200.19
326.999	202.19
327.228	204.19
327.457	209.19
327.686	207.19
327.914	191.19
328.143	188.19
328.372	189.19
328.6	184.19
328.829	207.19
329.058	204.19
329.287	189.19
329.515	200.19
329.744	189.19
329.972	183.19
330.201	173.19
330.43	179.19
330.658	199.19
330.887	228.19
331.115	209.19
331.344	211.19
331.572	202.19
331.801	189.19
332.03	181.19
332.258	191.19
332.486	203.19
332.715	208.19
332.943	208.19
333.172	191.19
333.4	190.19
333.629	222.19
333.857	226.19
334.085	230.19
334.314	224.19
334.542	249.19
334.771	219.19
334.999	212.19
335.227	210.19
335.455	203.19
335.684	223.19
335.912	258.19
336.14	272.19
336.369	257.19
336.597	246.19
336.825	278.19
337.053	302.19
337.281	254.19
337.51	212.19
337.738	223.19
337.966	204.19
338.194	238.19
338.422	231.19
338.65	193.19
338.878	205.19
339.106	187.19
339.334	212.19
339.562	229.19
339.79	191.19
340.018	202.19
340.246	229.19
340.474	221.19
340.702	250.19
340.93	227.19
341.158	268.19
341.386	231.19
341.614	211.19
341.842	243.19
342.07	243.19
342.298	249.19
342.526	274.19
342.754	249.19
342.981	215.19
343.209	211.19
343.437	237.19
343.665	241.19
343.893	246.19
344.12	272.19
344.348	312.19
344.576	306.19
344.804	249.19
345.031	224.19
345.259	202.19
345.487	217.19
345.714	208.19
345.942	216.19
346.17	264.19
346.397	230.19
346.625	209.19
346.853	199.19
347.08	200.19
347.308	208.19
347.535	223.19
347.763	249.19
347.99	221.19
348.218	195.19
348.445	212.19
348.673	210.19
348.9	208.19
349.128	197.19
349.355	198.19
349.583	223.19
349.81	206.19
350.037	215.19
350.265	182.19
350.492	173.19
350.72	159.19
350.947	175.19
351.174	177.19
351.402	192.19
351.629	207.19
351.856	191.19
352.083	188.19
352.311	204.19
352.538	209.19
352.765	238.19
352.992	228.19
353.22	207.19
353.447	208.19
353.674	215.19
353.901	172.19
354.128	192.19
354.355	203.19
354.583	223.19
354.81	219.19
355.037	231.19
355.264	209.19
355.491	218.19
355.718	238.19
355.945	245.19
356.172	232.19
356.399	212.19
356.626	233.19
356.853	296.19
357.08	326.19
357.307	348.19
357.534	267.19
357.761	267.19
357.988	327.19
358.215	378.19
358.441	347.19
358.668	309.19
358.895	296.19
359.122	230.19
359.349	235.19
359.576	255.19
359.802	214.19
360.029	203.19
360.256	208.19
360.483	244.19
360.709	321.19
360.936	302.19
361.163	283.19
361.39	222.19
361.616	212.19
361.843	228.19
362.07	277.19
362.296	265.19
362.523	216.19
362.749	195.19
362.976	211.19
363.203	233.19
363.429	275.19
363.656	220.19
363.882	209.19
364.109	215.19
364.335	212.19
364.562	213.19
364.788	215.19
365.015	248.19
365.241	216.19
365.468	214.19
365.694	189.19
365.92	176.19
366.147	176.19
366.373	171.19
366.599	174.19
366.826	174.19
367.052	192.19
367.278	169.19
367.505	158.19
367.731	175.19
367.957	207.19
368.184	206.19
368.41	203.19
368.636	221.19
368.862	215.19
369.089	219.19
369.315	187.19
369.541	208.19
369.767	192.19
369.993	170.19
370.219	185.19
370.445	192.19
370.672	206.19
370.898	231.19
371.124	231.19
371.35	191.19
371.576	185.19
371.802	195.19
372.028	204.19
372.254	252.19
372.48	227.19
372.706	214.19
372.932	205.19
373.158	220.19
373.384	249.19
373.61	302.19
373.835	330.19
374.061	265.19
374.287	228.19
374.513	261.19
374.739	318.19
374.965	315.19
375.191	305.19
375.416	211.19
375.642	216.19
375.868	237.19
376.094	251.19
376.319	220.19
376.545	219.19
376.771	259.19
376.997	237.19
377.222	187.19
377.448	169.19
377.674	163.19
377.899	157.19
378.125	177.19
378.35	159.19
378.576	171.19
378.802	189.19
379.027	204.19
379.253	202.19
379.478	191.19
379.704	217.19
379.929	225.19
380.155	228.19
380.38	212.19
380.606	220.19
380.831	234.19
381.057	223.19
381.282	192.19
381.507	220.19
381.733	273.19
381.958	280.19
382.184	315.19
382.409	329.19
382.634	300.19
382.86	319.19
383.085	282.19
383.31	223.19
383.535	246.19
383.761	247.19
383.986	235.19
384.211	276.19
384.436	270.19
384.662	224.19
384.887	211.19
385.112	225.19
385.337	224.19
385.562	208.19
385.787	216.19
386.013	257.19
386.238	234.19
386.463	201.19
386.688	201.19
386.913	190.19
387.138	199.19
387.363	197.19
387.588	232.19
387.813	195.19
388.038	241.19
388.263	210.19
388.488	204.19
388.713	244.19
388.938	258.19
389.163	234.19
389.387	185.19
389.612	199.19
389.837	199.19
390.062	205.19
390.287	206.19
390.512	215.19
390.736	210.19
390.961	189.19
391.186	185.19
391.411	186.19
391.636	184.19
391.86	196.19
392.085	222.19
392.31	214.19
392.534	193.19
392.759	209.19
392.984	207.19
393.208	193.19
393.433	216.19
393.658	174.19
393.882	183.19
394.107	200.19
394.331	169.19
394.556	167.19
394.78	180.19
395.005	189.19
395.229	190.19
395.454	190.19
395.678	207.19
395.903	194.19
396.127	205.19
396.352	191.19
396.576	197.19
396.801	213.19
397.025	236.19
397.249	249.19
397.474	202.19
397.698	209.19
397.922	213.19
398.147	197.19
398.371	198.19
398.595	226.19
398.82	195.19
399.044	199.19
399.268	222.19
399.492	236.19
399.717	230.19
399.941	231.19
400.165	211.19
400.389	208.19
400.613	222.19
400.837	202.19
401.062	180.19
401.286	192.19
401.51	195.19
401.734	185.19
401.958	215.19
402.182	199.19
402.406	185.19
402.63	203.19
402.854	214.19
403.078	259.19
403.302	291.19
403.526	281.19
403.75	286.19
403.974	232.19
404.198	228.19
404.422	249.19
404.645	267.19
404.869	298.19
405.093	269.19
405.317	208.19
405.541	220.19
405.765	228.19
405.988	231.19
406.212	223.19
406.436	234.19
406.66	261.19
406.883	234.19
407.107	245.19
407.331	275.19
407.555	263.19
407.778	232.19
408.002	243.19
408.226	247.19
408.449	216.19
408.673	218.19
408.896	200.19
409.12	176.19
409.344	223.19
409.567	200.19
409.791	212.19
410.014	188.19
410.238	202.19
410.461	198.19
410.685	196.19
410.908	193.19
411.132	225.19
411.355	200.19
411.578	205.19
411.802	209.19
412.025	195.19
412.249	208.19
412.472	206.19
412.695	198.19
412.919	206.19
413.142	218.19
413.365	218.19
413.589	231.19
413.812	205.19
414.035	204.19
414.258	202.19
414.482	221.19
414.705	219.19
414.928	192.19
415.151	200.19
415.374	200.19
415.597	195.19
415.821	205.19
416.044	200.19
416.267	189.19
416.49	193.19
416.713	181.19
416.936	201.19
417.159	209.19
417.382	198.19
417.605	196.19
417.828	204.19
418.051	182.19
418.274	185.19
418.497	221.19
418.72	202.19
418.943	209.19
419.166	228.19
419.389	231.19
419.611	228.19
419.834	229.19
420.057	235.19
420.28	227.19
420.503	219.19
420.726	201.19
420.948	186.19
421.171	205.19
421.394	185.19
421.617	191.19
421.839	196.19
422.062	196.19
422.285	189.19
422.507	204.19
422.73	211.19
422.953	209.19
423.175	193.19
423.398	199.19
423.621	228.19
423.843	231.19
424.066	215.19
424.288	208.19
424.511	195.19
424.733	183.19
424.956	215.19
425.178	232.19
425.401	273.19
425.623	285.19
425.846	253.19
426.068	212.19
426.291	219.19
426.513	217.19
426.735	207.19
426.958	211.19
427.18	219.19
427.402	276.19
427.625	292.19
427.847	244.19
428.069	199.19
428.292	185.19
428.514	199.19
428.736	197.19
428.958	199.19
429.181	245.19
429.403	229.19
429.625	202.19
429.847	200.19
430.069	198.19
430.292	197.19
430.514	205.19
430.736	183.19
430.958	231.19
431.18	201.19
431.402	189.19
431.624	182.19
431.846	174.19
432.068	167.19
432.29	183.19
432.512	190.19
432.734	231.19
432.956	239.19
433.178	180.19
433.4	199.19
433.622	181.19
433.844	191.19
434.066	214.19
434.287	201.19
434.509	206.19
434.731	221.19
434.953	191.19
435.175	219.19
435.397	233.19
435.618	208.19
435.84	178.19
436.062	179.19
436.284	180.19
436.505	180.19
436.727	186.19
436.949	179.19
437.17	189.19
437.392	190.19
437.614	196.19
437.835	193.19
438.057	181.19
438.278	197.19
438.5	282.19
438.721	259.19
438.943	200.19
439.165	175.19
439.386	183.19
439.608	173.19
439.829	183.19
440.05	169.19
440.272	161.19
440.493	198.19
440.715	241.19
440.936	207.19
441.158	195.19
441.379	196.19
441.6	207.19
441.822	223.19
442.043	201.19
442.264	183.19
442.486	192.19
442.707	194.19
442.928	198.19
443.149	183.19
443.371	206.19
443.592	194.19
443.813	194.19
444.034	186.19
444.255	196.19
444.476	213.19
444.698	202.19
444.919	221.19
445.14	351.19
445.361	270.19
445.582	220.19
445.803	205.19
446.024	215.19
446.245	213.19
446.466	205.19
446.687	187.19
446.908	195.19
447.129	183.19
447.35	189.19
447.571	169.19
447.792	168.19
448.013	184.19
448.234	185.19
448.455	159.19
448.675	169.19
448.896	186.19
449.117	176.19
449.338	192.19
449.559	183.19
449.779	195.19
450	193.19
450.221	195.19
450.442	192.19
450.662	179.19
450.883	187.19
451.104	183.19
451.324	182.19
451.545	180.19
451.766	173.19
451.986	171.19
452.207	166.19
452.428	187.19
452.648	179.19
452.869	191.19
453.089	196.19
453.31	195.19
453.53	171.19
453.751	166.19
453.971	179.19
454.192	159.19
454.412	175.19
454.633	176.19
454.853	171.19
455.073	170.19
455.294	168.19
455.514	161.19
455.734	182.19
455.955	203.19
456.175	199.19
456.395	167.19
456.616	174.19
456.836	160.19
457.056	167.19
457.276	154.19
457.497	156.19
457.717	161.19
457.937	176.19
458.157	169.19
458.377	174.19
458.598	160.19
458.818	184.19
459.038	180.19
459.258	176.19
459.478	187.19
459.698	190.19
459.918	200.19
460.138	197.19
460.358	190.19
460.578	198.19
460.798	195.19
461.018	196.19
461.238	197.19
461.458	197.19
461.678	201.19
461.898	207.19
462.118	205.19
462.338	204.19
462.558	200.19
462.777	209.19
462.997	232.19
463.217	215.19
463.437	221.19
463.657	218.19
463.876	204.19
464.096	193.19
464.316	197.19
464.536	217.19
464.755	242.19
464.975	247.19
465.195	220.19
465.414	217.19
465.634	202.19
465.854	197.19
466.073	187.19
466.293	196.19
466.512	200.19
466.732	205.19
466.951	225.19
467.171	199.19
467.391	199.19
467.61	186.19
467.829	209.19
468.049	205.19
468.268	170.19
468.488	182.19
468.707	203.19
468.927	215.19
469.146	230.19
469.365	216.19
469.585	202.19
469.804	204.19
470.023	216.19
470.243	212.19
470.462	208.19
470.681	202.19
470.901	199.19
471.12	233.19
471.339	210.19
471.558	185.19
471.777	181.19
471.997	204.19
472.216	219.19
472.435	232.19
472.654	211.19
472.873	196.19
473.092	204.19
473.311	234.19
473.53	195.19
473.749	209.19
473.968	200.19
474.187	216.19
474.406	205.19
474.625	207.19
474.844	186.19
475.063	220.19
475.282	222.19
475.501	227.19
475.72	241.19
475.939	243.19
476.158	221.19
476.377	254.19
476.596	284.19
476.814	314.19
477.033	262.19
477.252	229.19
477.471	197.19
477.69	203.19
477.908	219.19
478.127	229.19
478.346	215.19
478.564	265.19
478.783	235.19
479.002	215.19
479.22	261.19
479.439	271.19
479.658	257.19
479.876	234.19
480.095	226.19
480.313	264.19
480.532	239.19
480.751	226.19
480.969	209.19
481.188	243.19
481.406	233.19
481.624	266.19
481.843	224.19
482.061	234.19
482.28	229.19
482.498	304.19
482.717	312.19
482.935	253.19
483.153	228.19
483.372	211.19
483.59	222.19
483.808	204.19
484.027	214.19
484.245	203.19
484.463	202.19
484.681	210.19
484.9	216.19
485.118	246.19
485.336	225.19
485.554	218.19
485.772	215.19
485.99	233.19
486.209	244.19
486.427	237.19
486.645	231.19
486.863	238.19
487.081	220.19
487.299	269.19
487.517	290.19
487.735	209.19
487.953	253.19
488.171	240.19
488.389	218.19
488.607	220.19
488.825	236.19
489.043	262.19
489.261	297.19
489.479	324.19
489.696	252.19
489.914	236.19
490.132	221.19
490.35	241.19
490.568	231.19
490.786	221.19
491.003	217.19
491.221	237.19
491.439	228.19
491.657	213.19
491.874	230.19
492.092	287.19
492.31	336.19
492.527	344.19
492.745	276.19
492.963	241.19
493.18	243.19
493.398	251.19
493.615	246.19
493.833	244.19
494.05	237.19
494.268	255.19
494.485	240.19
494.703	244.19
494.92	243.19
495.138	229.19
495.355	234.19
495.573	257.19
495.79	283.19
496.008	360.19
496.225	302.19
496.442	278.19
496.66	287.19
496.877	290.19
497.094	265.19
497.312	256.19
497.529	246.19
497.746	248.19
497.963	263.19
498.181	261.19
498.398	287.19
498.615	291.19
498.832	321.19
499.049	329.19
499.267	299.19
499.484	315.19
499.701	319.19
499.918	338.19
500.135	363.19
500.352	399.19
500.569	401.19
500.786	419.19
501.003	410.19
501.22	378.19
501.437	356.19
501.654	333.19
501.871	323.19
502.088	323.19
502.305	281.19
502.522	287.19
502.739	295.19
502.956	263.19
503.172	279.19
503.389	264.19
503.606	250.19
503.823	263.19
504.04	259.19
504.256	264.19
504.473	263.19
504.69	263.19
504.907	267.19
505.123	256.19
505.34	285.19
505.557	281.19
505.773	256.19
505.99	263.19
506.207	262.19
506.423	259.19
506.64	246.19
506.856	256.19
507.073	261.19
507.289	273.19
507.506	261.19
507.722	266.19
507.939	267.19
508.155	298.19
508.372	252.19
508.588	252.19
508.805	226.19
509.021	240.19
509.238	250.19
509.454	232.19
509.67	247.19
509.887	229.19
510.103	265.19
510.319	265.19
510.536	246.19
510.752	235.19
510.968	225.19
511.184	214.19
511.401	233.19
511.617	220.19
511.833	225.19
512.049	212.19
512.265	216.19
512.481	222.19
512.698	249.19
512.914	281.19
513.13	246.19
513.346	222.19
513.562	228.19
513.778	238.19
513.994	256.19
514.21	234.19
514.426	232.19
514.642	227.19
514.858	229.19
515.074	243.19
515.29	278.19
515.506	259.19
515.721	269.19
515.937	265.19
516.153	236.19
516.369	228.19
516.585	231.19
516.801	270.19
517.016	322.19
517.232	334.19
517.448	310.19
517.664	276.19
517.879	252.19
518.095	265.19
518.311	267.19
518.527	272.19
518.742	270.19
518.958	280.19
519.173	281.19
519.389	271.19
519.605	294.19
519.82	288.19
520.036	328.19
520.251	323.19
520.467	314.19
520.682	477.19
520.898	617.19
521.113	580.19
521.329	364.19
521.544	300.19
521.76	287.19
521.975	272.19
522.19	250.19
522.406	274.19
522.621	273.19
522.836	324.19
523.052	339.19
523.267	271.19
523.482	261.19
523.698	276.19
523.913	277.19
524.128	256.19
524.343	225.19
524.559	234.19
524.774	227.19
524.989	243.19
525.204	234.19
525.419	261.19
525.634	260.19
525.849	259.19
526.064	256.19
526.28	264.19
526.495	291.19
526.71	316.19
526.925	287.19
527.14	288.19
527.355	294.19
527.57	261.19
527.785	255.19
527.999	243.19
528.214	220.19
528.429	227.19
528.644	216.19
528.859	203.19
529.074	208.19
529.289	209.19
529.503	212.19
529.718	199.19
529.933	282.19
530.148	273.19
530.363	238.19
530.577	232.19
530.792	224.19
531.007	219.19
531.221	197.19
531.436	202.19
531.651	209.19
531.865	196.19
532.08	210.19
532.295	213.19
532.509	227.19
532.724	260.19
532.938	283.19
533.153	342.19
533.367	277.19
533.582	258.19
533.796	237.19
534.011	229.19
534.225	246.19
534.44	233.19
534.654	223.19
534.868	297.19
535.083	249.19
535.297	224.19
535.511	215.19
535.726	227.19
535.94	236.19
536.154	209.19
536.369	208.19
536.583	218.19
536.797	219.19
537.011	216.19
537.225	228.19
537.44	261.19
537.654	220.19
537.868	215.19
538.082	214.19
538.296	208.19
538.51	239.19
538.724	236.19
538.938	230.19
539.153	206.19
539.367	215.19
539.581	228.19
539.795	214.19
540.009	233.19
540.222	234.19
540.436	209.19
540.65	244.19
540.864	252.19
541.078	259.19
541.292	299.19
541.506	229.19
541.72	232.19
541.934	217.19
542.147	220.19
542.361	237.19
542.575	245.19
542.789	232.19
543.002	213.19
543.216	221.19
543.43	201.19
543.644	227.19
543.857	205.19
544.071	219.19
544.285	199.19
544.498	211.19
544.712	199.19
544.925	216.19
545.139	219.19
545.352	199.19
545.566	194.19
545.779	227.19
545.993	216.19
546.206	205.19
546.42	195.19
546.633	187.19
546.847	184.19
547.06	187.19
547.274	198.19
547.487	217.19
547.7	203.19
547.914	214.19
548.127	236.19
548.34	245.19
548.554	202.19
548.767	219.19
548.98	237.19
549.193	206.19
549.407	213.19
549.62	251.19
549.833	218.19
550.046	233.19
550.259	249.19
550.473	212.19
550.686	216.19
550.899	221.19
551.112	214.19
551.325	235.19
551.538	225.19
551.751	187.19
551.964	203.19
552.177	195.19
552.39	195.19
552.603	199.19
552.816	212.19
553.029	200.19
553.242	218.19
553.455	212.19
553.667	225.19
553.88	212.19
554.093	203.19
554.306	174.19
554.519	195.19
554.732	165.19
554.944	171.19
555.157	189.19
555.37	183.19
555.583	183.19
555.795	183.19
556.008	172.19
556.221	189.19
556.433	190.19
556.646	169.19
556.859	184.19
557.071	189.19
557.284	173.19
557.496	194.19
557.709	192.19
557.921	171.19
558.134	186.19
558.346	166.19
558.559	190.19
558.771	194.19
558.984	208.19
559.196	195.19
559.409	172.19
559.621	167.19
559.833	173.19
560.046	169.19
560.258	175.19
560.47	173.19
560.683	179.19
560.895	159.19
561.107	163.19
561.32	187.19
561.532	172.19
561.744	184.19
561.956	187.19
562.168	165.19
562.381	163.19
562.593	166.19
562.805	183.19
563.017	163.19
563.229	165.19
563.441	155.19
563.653	158.19
563.865	177.19
564.077	170.19
564.289	166.19
564.501	176.19
564.713	173.19
564.925	191.19
565.137	181.19
565.349	163.19
565.561	185.19
565.773	192.19
565.985	185.19
566.197	170.19
566.408	207.19
566.62	198.19
566.832	204.19
567.044	208.19
567.255	190.19
567.467	223.19
567.679	203.19
567.891	205.19
568.102	203.19
568.314	217.19
568.526	211.19
568.737	196.19
568.949	206.19
569.161	200.19
569.372	178.19
569.584	179.19
569.795	164.19
570.007	179.19
570.218	209.19
570.43	189.19
570.641	179.19
570.853	163.19
571.064	187.19
571.276	167.19
571.487	183.19
571.698	161.19
571.91	170.19
572.121	174.19
572.333	166.19
572.544	154.19
572.755	165.19
572.966	148.19
573.178	150.19
573.389	170.19
573.6	151.19
573.811	152.19
574.023	140.19
574.234	156.19
574.445	147.19
574.656	153.19
574.867	154.19
575.078	159.19
575.289	155.19
575.501	153.19
575.712	166.19
575.923	151.19
576.134	148.19
576.345	130.19
576.556	161.19
576.767	144.19
576.978	145.19
577.188	145.19
577.399	140.19
577.61	133.19
577.821	145.19
578.032	158.19
578.243	150.19
578.454	165.19
578.665	169.19
578.875	148.19
579.086	175.19
579.297	159.19
579.508	158.19
579.718	160.19
579.929	151.19
580.14	156.19
580.35	142.19
580.561	139.19
580.772	144.19
580.982	142.19
581.193	137.19
581.403	137.19
581.614	139.19
581.825	143.19
582.035	142.19
582.246	139.19
582.456	137.19
582.667	134.19
582.877	149.19
583.087	158.19
583.298	135.19
583.508	133.19
583.719	120.19
583.929	130.19
584.139	140.19
584.35	141.19
584.56	129.19
584.77	149.19
584.981	136.19
585.191	131.19
585.401	131.19
585.611	132.19
585.821	132.19
586.032	148.19
586.242	144.19
586.452	137.19
586.662	159.19
586.872	159.19
587.082	136.19
587.292	145.19
587.502	141.19
587.713	116.19
587.923	130.19
588.133	141.19
588.343	149.19
588.553	149.19
588.762	128.19
588.972	120.19
589.182	142.19
589.392	137.19
589.602	142.19
589.812	143.19
590.022	145.19
590.232	158.19
590.441	153.19
590.651	144.19
590.861	135.19
591.071	125.19
591.281	143.19
591.49	126.19
591.7	139.19
591.91	135.19
592.119	135.19
592.329	133.19
592.539	147.19
592.748	142.19
592.958	138.19
593.167	145.19
593.377	134.19
593.587	149.19
593.796	148.19
594.006	149.19
594.215	144.19
594.424	143.19
594.634	149.19
594.843	150.19
595.053	145.19
595.262	123.19
595.472	138.19
595.681	142.19
595.89	127.19
596.1	129.19
596.309	135.19
596.518	139.19
596.727	128.19
596.937	123.19
597.146	116.19
597.355	125.19
597.564	143.19
597.774	136.19
597.983	131.19
598.192	144.19
598.401	129.19
598.61	128.19
598.819	131.19
599.028	117.19
599.237	126.19
599.446	122.19
599.655	135.19
599.864	139.19
600.073	133.19
600.282	126.19
600.491	143.19
600.7	138.19
600.909	132.19
601.118	122.19
601.327	130.19
601.536	126.19
601.745	141.19
601.953	131.19
602.162	138.19
602.371	127.19
602.58	146.19
602.789	135.19
602.997	122.19
603.206	121.19
603.415	119.19
603.623	122.19
603.832	119.19
604.041	132.19
604.249	120.19
604.458	131.19
604.666	116.19
604.875	133.19
605.084	132.19
605.292	110.19
605.501	129.19
605.709	124.19
605.918	121.19
606.126	130.19
606.334	121.19
606.543	132.19
606.751	123.19
606.96	129.19
607.168	107.19
607.376	121.19
607.585	131.19
607.793	132.19
608.001	130.19
608.21	125.19
608.418	121.19
608.626	121.19
608.834	109.19
609.043	129.19
609.251	120.19
609.459	109.19
609.667	124.19
609.875	114.19
610.083	123.19
610.291	124.19
610.499	116.19
610.707	133.19
610.916	120.19
611.124	125.19
611.332	123.19
611.54	103.19
611.748	116.19
611.955	124.19
612.163	125.19
612.371	133.19
612.579	118.19
612.787	138.19
612.995	108.19
613.203	124.19
613.411	117.19
613.618	117.19
613.826	128.19
614.034	133.19
614.242	109.19
614.449	101.19
614.657	102.19
614.865	123.19
615.072	117.19
615.28	111.19
615.488	99.19
615.695	121.19
615.903	112.19
616.111	124.19
616.318	127.19
616.526	122.19
616.733	123.19
616.941	116.19
617.148	118.19
617.356	106.19
617.563	117.19
617.771	111.19
617.978	119.19
618.185	110.19
618.393	133.19
618.6	115.19
618.807	124.19
619.015	120.19
619.222	105.19
619.429	122.19
619.637	127.19
619.844	109.19
620.051	115.19
620.258	122.19
620.466	119.19
620.673	100.19
620.88	107.19
621.087	120.19
621.294	108.19
621.501	121.19
621.708	129.19
621.915	130.19
622.122	112.19
622.329	123.19
622.536	107.19
622.743	123.19
622.95	107.19
623.157	120.19
623.364	110.19
623.571	104.19
623.778	105.19
623.985	117.19
624.192	111.19
624.399	123.19
624.606	124.19
624.812	108.19
625.019	111.19
625.226	119.19
625.433	121.19
625.639	113.19
625.846	115.19
626.053	113.19
626.259	98.19
626.466	111.19
626.673	118.19
626.879	117.19
627.086	105.19
627.293	119.19
627.499	125.19
627.706	100.19
627.912	106.19
628.119	111.19
628.325	117.19
628.532	105.19
628.738	116.19
628.945	103.19
629.151	110.19
629.357	102.19
629.564	127.19
629.77	116.19
629.976	110.19
630.183	109.19
630.389	112.19
630.595	113.19
630.802	117.19
631.008	118.19
631.214	106.19
631.42	115.19
631.627	105.19
631.833	106.19
632.039	96.19
632.245	86.19
632.451	87.19
632.657	104.19
632.863	107.19
633.069	99.19
633.275	109.19
633.481	104.19
633.688	103.19
633.893	113.19
634.099	113.19
634.305	101.19
634.511	107.19
634.717	94.19
634.923	109.19
635.129	109.19
635.335	104.19
635.541	109.19
635.747	110.19
635.952	108.19
636.158	108.19
636.364	101.19
636.57	120.19
636.775	94.19
636.981	101.19
637.187	127.19
637.392	123.19
637.598	98.19
637.804	101.19
638.009	110.19
638.215	116.19
638.421	96.19
638.626	95.19
638.832	98.19
639.037	114.19
639.243	98.19
639.448	102.19
639.654	94.19
639.859	95.19
640.065	99.19
640.27	126.19
640.475	115.19
640.681	111.19
640.886	102.19
641.091	102.19
641.297	107.19
641.502	109.19
641.707	100.19
641.913	98.19
642.118	99.19
642.323	105.19
642.528	111.19
642.733	88.19
642.939	85.19
643.144	95.19
643.349	110.19
643.554	116.19
643.759	100.19
643.964	106.19
644.169	105.19
644.374	118.19
644.579	105.19
644.784	105.19
644.989	95.19
645.194	104.19
645.399	100.19
645.604	110.19
645.809	113.19
646.014	119.19
646.219	111.19
646.423	96.19
646.628	105.19
646.833	112.19
647.038	106.19
647.243	98.19
647.447	106.19
647.652	98.19
647.857	112.19
648.062	97.19
648.266	104.19
648.471	106.19
648.676	107.19
648.88	109.19
649.085	100.19
649.289	111.19
649.494	115.19
649.698	112.19
649.903	107.19
650.107	105.19
650.312	101.19
650.516	99.19
650.721	92.19
650.925	110.19
651.13	103.19
651.334	103.19
651.539	122.19
651.743	100.19
651.947	91.19
652.152	105.19
652.356	104.19
652.56	104.19
652.764	92.19
652.969	88.19
653.173	100.19
653.377	102.19
653.581	99.19
653.785	94.19
653.99	102.19
654.194	92.19
654.398	89.19
654.602	91.19
654.806	94.19
655.01	96.19
655.214	90.19
655.418	94.19
655.622	82.19
655.826	96.19
656.03	96.19
656.234	105.19
656.438	102.19
656.642	97.19
656.846	99.19
657.049	95.19
657.253	94.19
657.457	99.19
657.661	99.19
657.865	99.19
658.068	95.19
658.272	103.19
658.476	95.19
658.68	95.19
658.883	84.19
659.087	98.19
659.291	87.19
659.494	75.19
659.698	80.19
659.901	97.19
660.105	87.19
660.309	89.19
660.512	95.19
660.716	97.19
660.919	85.19
661.123	84.19
661.326	102.19
661.53	93.19
661.733	86.19
661.936	88.19
662.14	86.19
662.343	99.19
662.546	96.19
662.75	83.19
662.953	92.19
663.156	95.19
663.36	93.19
663.563	83.19
663.766	93.19
663.969	95.19
664.173	93.19
664.376	95.19
664.579	94.19
664.782	92.19
664.985	92.19
665.188	84.19
665.391	80.19
665.594	98.19
665.797	85.19
666	87.19
666.203	103.19
666.406	89.19
666.609	70.19
666.812	85.19
667.015	94.19
667.218	84.19
667.421	90.19
667.624	84.19
667.827	96.19
668.03	79.19
668.232	81.19
668.435	81.19
668.638	94.19
668.841	76.19
669.043	88.19
669.246	99.19
669.449	88.19
669.651	85.19
669.854	94.19
670.057	80.19
670.259	91.19
670.462	93.19
670.665	94.19
670.867	98.19
671.07	80.19
671.272	97.19
671.475	94.19
671.677	82.19
671.88	94.19
672.082	87.19
672.284	99.19
672.487	73.19
672.689	93.19
672.892	86.19
