Data from NickelSpatula.Lamp.E10.P2_HRD10591_11-57-54-530.txt Node
Date: Tue Jul 23 11:57:54 EDT 2019
User: cochatt
Spectrometer: HR+D1059
Trigger mode: 1
Integration Time (sec): 1.000000E-1
Scans to average: 1
Electric dark correction enabled: true
Nonlinearity correction enabled: false
Boxcar width: 0
XAxis mode: Wavelengths
Number of Pixels in Spectrum: 2048
>>>>>Begin Spectral Data<<<<<
223.165	-29
223.4	-29
223.635	-29
223.869	-20
224.104	0
224.338	-10
224.573	-11
224.808	-5
225.042	-6
225.277	-11
225.511	-4
225.746	-6
225.98	-3
226.215	-8
226.449	28
226.683	22
226.918	36
227.152	27
227.387	34
227.621	34
227.856	46
228.09	50
228.324	55
228.559	65
228.793	88
229.027	129
229.262	153
229.496	150
229.73	169
229.964	195
230.199	232
230.433	223
230.667	220
230.901	198
231.136	195
231.37	221
231.604	213
231.838	230
232.072	247
232.306	256
232.541	247
232.775	244
233.009	264
233.243	297
233.477	321
233.711	321
233.945	327
234.179	310
234.413	364
234.647	390
234.881	459
235.115	426
235.349	396
235.583	349
235.817	347
236.051	383
236.285	418
236.519	463
236.753	433
236.987	425
237.221	436
237.455	428
237.689	431
237.922	443
238.156	467
238.39	548
238.624	633
238.858	594
239.091	504
239.325	487
239.559	472
239.793	531
240.027	621
240.26	597
240.494	586
240.728	605
240.961	659
241.195	649
241.429	633
241.662	596
241.896	529
242.13	505
242.363	456
242.597	471
242.83	541
243.064	521
243.298	596
243.531	607
243.765	631
243.998	623
244.232	618
244.465	616
244.699	598
244.932	650
245.166	633
245.399	556
245.633	553
245.866	568
246.099	615
246.333	710
246.566	738
246.8	772
247.033	726
247.266	684
247.5	691
247.733	691
247.966	679
248.2	676
248.433	760
248.666	848
248.899	842
249.133	857
249.366	985
249.599	1053
249.832	943
250.066	805
250.299	852
250.532	823
250.765	799
250.998	744
251.231	713
251.465	770
251.698	831
251.931	780
252.164	825
252.397	928
252.63	1063
252.863	1152
253.096	1193
253.329	1133
253.562	1117
253.795	1217
254.028	1337
254.261	1384
254.494	1238
254.727	1154
254.96	1107
255.193	1193
255.426	1107
255.659	872
255.892	806
256.124	858
256.357	1003
256.59	1190
256.823	1144
257.056	968
257.289	904
257.521	983
257.754	1130
257.987	1273
258.22	1095
258.452	1009
258.685	1131
258.918	1275
259.151	1253
259.383	1323
259.616	1496
259.849	1535
260.081	1699
260.314	1888
260.547	1490
260.779	1447
261.012	1719
261.244	1615
261.477	1601
261.71	1508
261.942	1291
262.175	1281
262.407	1258
262.64	1265
262.872	1519
263.105	1628
263.337	1700
263.57	1516
263.802	1059
264.035	895
264.267	894
264.499	761
264.732	723
264.964	694
265.197	715
265.429	779
265.661	836
265.894	855
266.126	921
266.358	1046
266.591	1227
266.823	1506
267.055	1409
267.287	1265
267.52	1264
267.752	1320
267.984	1452
268.216	1355
268.448	1124
268.681	1118
268.913	1192
269.145	1293
269.377	1299
269.609	1299
269.841	1202
270.073	1290
270.306	1365
270.538	1410
270.77	1393
271.002	1412
271.234	1458
271.466	1496
271.698	1474
271.93	1409
272.162	1447
272.394	1407
272.626	1367
272.858	1453
273.09	1463
273.322	1306
273.553	1293
273.785	1508
274.017	1983
274.249	2412
274.481	2474
274.713	2719
274.945	3130
275.176	3199
275.408	2881
275.64	2587
275.872	2611
276.104	2258
276.335	1921
276.567	1890
276.799	2014
277.031	2076
277.262	1626
277.494	1232
277.726	1201
277.957	1333
278.189	1493
278.421	1459
278.652	1408
278.884	1323
279.115	1273
279.347	1209
279.579	1192
279.81	1179
280.042	1204
280.273	1234
280.505	1157
280.736	1030
280.968	999
281.199	1094
281.431	1218
281.662	1236
281.894	1205
282.125	1264
282.356	1356
282.588	1411
282.819	1250
283.051	1333
283.282	1687
283.513	1934
283.745	2185
283.976	2185
284.207	1982
284.439	2102
284.67	2006
284.901	1775
285.132	1922
285.364	2013
285.595	1866
285.826	1943
286.057	2015
286.288	1950
286.52	2012
286.751	2098
286.982	2086
287.213	1769
287.444	1753
287.675	1836
287.906	1804
288.138	1570
288.369	1349
288.6	1254
288.831	1358
289.062	1579
289.293	1672
289.524	1591
289.755	1637
289.986	1635
290.217	1409
290.448	1117
290.679	960
290.91	920
291.141	922
291.371	980
291.602	969
291.833	976
292.064	1064
292.295	1219
292.526	1413
292.757	1453
292.987	1553
293.218	1567
293.449	1597
293.68	1676
293.91	1603
294.141	1644
294.372	1526
294.603	1419
294.833	1555
295.064	1817
295.295	1688
295.525	1322
295.756	1112
295.987	971
296.217	996
296.448	1024
296.679	1108
296.909	1213
297.14	1299
297.37	1420
297.601	1339
297.831	1149
298.062	1244
298.292	1409
298.523	1535
298.753	1739
298.984	1574
299.214	1245
299.445	1079
299.675	1018
299.905	1019
300.136	1055
300.366	1206
300.597	1143
300.827	985
301.057	938
301.288	977
301.518	1085
301.748	1199
301.979	1287
302.209	1421
302.439	1425
302.669	1228
302.9	1240
303.13	1112
303.36	1091
303.59	1015
303.82	1095
304.051	1229
304.281	1291
304.511	1305
304.741	1127
304.971	1194
305.201	1278
305.431	1189
305.661	1059
305.891	1046
306.121	1041
306.352	939
306.582	882
306.812	819
307.042	865
307.272	807
307.502	810
307.731	889
307.961	899
308.191	853
308.421	790
308.651	792
308.881	775
309.111	767
309.341	811
309.571	877
309.8	908
310.03	913
310.26	975
310.49	995
310.72	852
310.949	855
311.179	876
311.409	929
311.639	1093
311.868	1360
312.098	1748
312.328	1943
312.557	1876
312.787	1859
313.017	1646
313.246	1799
313.476	1962
313.706	1619
313.935	1302
314.165	1027
314.394	935
314.624	964
314.853	1000
315.083	1025
315.312	1013
315.542	997
315.771	953
316.001	828
316.23	828
316.46	837
316.689	851
316.919	873
317.148	889
317.377	883
317.607	883
317.836	923
318.065	1098
318.295	1233
318.524	1132
318.753	957
318.983	914
319.212	944
319.441	961
319.67	1095
319.9	1196
320.129	1115
320.358	975
320.587	930
320.816	1023
321.046	1154
321.275	1300
321.504	1325
321.733	1243
321.962	1225
322.191	1158
322.42	1037
322.649	1121
322.878	1194
323.108	1178
323.337	1103
323.566	1061
323.795	1030
324.024	975
324.253	962
324.482	965
324.71	1057
324.939	1180
325.168	1113
325.397	905
325.626	907
325.855	886
326.084	903
326.313	877
326.542	833
326.77	849
326.999	859
327.228	937
327.457	998
327.686	992
327.914	876
328.143	803
328.372	829
328.6	826
328.829	872
329.058	861
329.287	876
329.515	914
329.744	843
329.972	835
330.201	777
330.43	819
330.658	927
330.887	1043
331.115	1027
331.344	1016
331.572	950
331.801	880
332.03	858
332.258	855
332.486	943
332.715	993
332.943	892
333.172	893
333.4	956
333.629	1025
333.857	1113
334.085	1093
334.314	1119
334.542	1043
334.771	950
334.999	966
335.227	917
335.455	929
335.684	1028
335.912	1208
336.14	1287
336.369	1257
336.597	1157
336.825	1355
337.053	1489
337.281	1240
337.51	1020
337.738	967
337.966	1058
338.194	1152
338.422	1063
338.65	930
338.878	857
339.106	903
339.334	1019
339.562	1092
339.79	986
340.018	956
340.246	1004
340.474	1190
340.702	1240
340.93	1288
341.158	1304
341.386	1080
341.614	1087
341.842	1086
342.07	1122
342.298	1321
342.526	1411
342.754	1185
342.981	1107
343.209	1080
343.437	1108
343.665	1151
343.893	1167
344.12	1339
344.348	1565
344.576	1388
344.804	1167
345.031	1023
345.259	969
345.487	965
345.714	1049
345.942	1103
346.17	1145
346.397	1138
346.625	998
346.853	935
347.08	921
347.308	973
347.535	1124
347.763	1113
347.99	971
348.218	901
348.445	967
348.673	964
348.9	958
349.128	1032
349.355	1073
349.583	1009
349.81	1003
350.037	916
350.265	802
350.492	802
350.72	780
350.947	810
351.174	879
351.402	957
351.629	949
351.856	904
352.083	890
352.311	923
352.538	1019
352.765	1097
352.992	991
353.22	968
353.447	982
353.674	928
353.901	943
354.128	954
354.355	957
354.583	945
354.81	950
355.037	999
355.264	958
355.491	1085
355.718	1141
355.945	1118
356.172	1074
356.399	1088
356.626	1287
356.853	1561
357.08	1659
357.307	1664
357.534	1311
357.761	1371
357.988	1696
358.215	1967
358.441	1847
358.668	1589
358.895	1467
359.122	1167
359.349	1168
359.576	1280
359.802	1085
360.029	927
360.256	997
360.483	1253
360.709	1558
360.936	1569
361.163	1400
361.39	1099
361.616	1038
361.843	1188
362.07	1473
362.296	1344
362.523	1051
362.749	935
362.976	955
363.203	1194
363.429	1295
363.656	1033
363.882	959
364.109	999
364.335	991
364.562	967
364.788	1123
365.015	1303
365.241	1138
365.468	919
365.694	837
365.92	811
366.147	781
366.373	793
366.599	803
366.826	825
367.052	808
367.278	820
367.505	801
367.731	884
367.957	995
368.184	1025
368.41	1001
368.636	973
368.862	991
369.089	985
369.315	881
369.541	877
369.767	864
369.993	821
370.219	831
370.445	865
370.672	973
370.898	1056
371.124	1075
371.35	964
371.576	898
371.802	963
372.028	1141
372.254	1252
372.48	1119
372.706	1033
372.932	1059
373.158	1148
373.384	1324
373.61	1714
373.835	1799
374.061	1355
374.287	1149
374.513	1344
374.739	1613
374.965	1629
375.191	1635
375.416	1166
375.642	999
375.868	1168
376.094	1281
376.319	1145
376.545	1248
376.771	1326
376.997	1114
377.222	857
377.448	760
377.674	746
377.899	761
378.125	744
378.35	737
378.576	745
378.802	859
379.027	898
379.253	858
379.478	941
379.704	999
379.929	1088
380.155	1091
380.38	929
380.606	971
380.831	1110
381.057	1003
381.282	952
381.507	1129
381.733	1408
381.958	1499
382.184	1579
382.409	1640
382.634	1559
382.86	1710
383.085	1416
383.31	1115
383.535	1168
383.761	1210
383.986	1139
384.211	1383
384.436	1313
384.662	1021
384.887	1014
385.112	1047
385.337	1010
385.562	971
385.787	1044
386.013	1192
386.238	1225
386.463	1000
386.688	953
386.913	915
387.138	909
387.363	946
387.588	933
387.813	986
388.038	1091
388.263	957
388.488	954
388.713	1078
388.938	1193
389.163	1019
389.387	874
389.612	933
389.837	905
390.062	943
390.287	992
390.512	1007
390.736	939
390.961	888
391.186	850
391.411	821
391.636	853
391.86	924
392.085	995
392.31	1016
392.534	928
392.759	895
392.984	965
393.208	939
393.433	870
393.658	796
393.882	792
394.107	810
394.331	800
394.556	781
394.78	792
395.005	842
395.229	872
395.454	869
395.678	872
395.903	892
396.127	859
396.352	887
396.576	958
396.801	1010
397.025	1098
397.249	1144
397.474	940
397.698	935
397.922	962
398.147	927
398.371	915
398.595	968
398.82	931
399.044	947
399.268	1032
399.492	1029
399.717	1025
399.941	1126
400.165	1057
400.389	995
400.613	1047
400.837	1028
401.062	947
401.286	905
401.51	862
401.734	903
401.958	911
402.182	902
402.406	852
402.63	933
402.854	976
403.078	1060
403.302	1261
403.526	1311
403.75	1173
403.974	1036
404.198	1102
404.422	1198
404.645	1397
404.869	1525
405.093	1160
405.317	1007
405.541	988
405.765	1010
405.988	997
406.212	1107
406.436	1256
406.66	1393
406.883	1115
407.107	1157
407.331	1317
407.555	1299
407.778	1094
408.002	1040
408.226	1015
408.449	1056
408.673	996
408.896	925
409.12	922
409.344	915
409.567	886
409.791	905
410.014	866
410.238	894
410.461	922
410.685	881
410.908	903
411.132	941
411.355	943
411.578	953
411.802	918
412.025	961
412.249	966
412.472	920
412.695	963
412.919	945
413.142	948
413.365	1058
413.589	1040
413.812	940
414.035	910
414.258	943
414.482	1027
414.705	1080
414.928	895
415.151	858
415.374	889
415.597	913
415.821	879
416.044	902
416.267	872
416.49	863
416.713	870
416.936	861
417.159	848
417.382	884
417.605	876
417.828	893
418.051	883
418.274	937
418.497	951
418.72	937
418.943	978
419.166	975
419.389	1028
419.611	1007
419.834	1012
420.057	1093
420.28	1077
420.503	1020
420.726	888
420.948	868
421.171	888
421.394	856
421.617	843
421.839	860
422.062	951
422.285	933
422.507	916
422.73	947
422.953	968
423.175	978
423.398	952
423.621	985
423.843	1014
424.066	998
424.288	917
424.511	890
424.733	901
424.956	973
425.178	1060
425.401	1235
425.623	1350
425.846	1171
426.068	1004
426.291	1107
426.513	1016
426.735	930
426.958	963
427.18	1155
427.402	1479
427.625	1445
427.847	1177
428.069	915
428.292	893
428.514	878
428.736	882
428.958	948
429.181	1098
429.403	959
429.625	898
429.847	867
430.069	873
430.292	906
430.514	893
430.736	951
430.958	1153
431.18	1063
431.402	807
431.624	796
431.846	795
432.068	789
432.29	797
432.512	893
432.734	1203
432.956	1116
433.178	888
433.4	849
433.622	828
433.844	873
434.066	922
434.287	924
434.509	883
434.731	925
434.953	872
435.175	900
435.397	1046
435.618	907
435.84	824
436.062	839
436.284	846
436.505	783
436.727	787
436.949	812
437.17	844
437.392	862
437.614	834
437.835	823
438.057	828
438.278	940
438.5	1329
438.721	1331
438.943	947
439.165	811
439.386	799
439.608	772
439.829	773
440.05	796
440.272	831
440.493	993
440.715	1215
440.936	985
441.158	859
441.379	855
441.6	984
441.822	1055
442.043	901
442.264	866
442.486	885
442.707	875
442.928	893
443.149	885
443.371	887
443.592	929
443.813	913
444.034	913
444.255	928
444.476	940
444.698	929
444.919	930
445.14	1045
445.361	1005
445.582	945
445.803	927
446.024	946
446.245	945
446.466	931
446.687	863
446.908	880
447.129	812
447.35	806
447.571	784
447.792	805
448.013	815
448.234	789
448.455	777
448.675	776
448.896	813
449.117	803
449.338	800
449.559	834
449.779	885
450	870
450.221	852
450.442	823
450.662	807
450.883	808
451.104	796
451.324	792
451.545	792
451.766	800
451.986	768
452.207	782
452.428	768
452.648	770
452.869	803
453.089	844
453.31	841
453.53	764
453.751	742
453.971	744
454.192	762
454.412	773
454.633	756
454.853	773
455.073	755
455.294	746
455.514	753
455.734	787
455.955	802
456.175	819
456.395	744
456.616	699
456.836	687
457.056	697
457.276	722
457.497	731
457.717	730
457.937	718
458.157	733
458.377	740
458.598	740
458.818	767
459.038	793
459.258	821
459.478	849
459.698	872
459.918	908
460.138	875
460.358	901
460.578	892
460.798	908
461.018	925
461.238	876
461.458	861
461.678	897
461.898	945
462.118	899
462.338	936
462.558	971
462.777	985
462.997	986
463.217	1017
463.437	1002
463.657	1019
463.876	958
464.096	950
464.316	955
464.536	979
464.755	999
464.975	1015
465.195	969
465.414	1008
465.634	940
465.854	931
466.073	857
466.293	851
466.512	915
466.732	1017
466.951	1039
467.171	916
467.391	877
467.61	863
467.829	919
468.049	925
468.268	854
468.488	866
468.707	921
468.927	1039
469.146	1114
469.365	1035
469.585	937
469.804	1017
470.023	1088
470.243	969
470.462	936
470.681	915
470.901	909
471.12	947
471.339	962
471.558	916
471.777	904
471.997	988
472.216	1101
472.435	1074
472.654	969
472.873	953
473.092	985
473.311	1044
473.53	937
473.749	917
473.968	1011
474.187	970
474.406	945
474.625	941
474.844	987
475.063	1017
475.282	1047
475.501	1064
475.72	1123
475.939	1099
476.158	1092
476.377	1257
476.596	1437
476.814	1535
477.033	1265
477.252	1035
477.471	1018
477.69	987
477.908	1091
478.127	1150
478.346	1066
478.564	1159
478.783	1097
479.002	1119
479.22	1237
479.439	1391
479.658	1249
479.876	1116
480.095	1208
480.313	1250
480.532	1132
480.751	1100
480.969	1124
481.188	1244
481.406	1299
481.624	1209
481.843	1137
482.061	1062
482.28	1202
482.498	1460
482.717	1377
482.935	1187
483.153	1059
483.372	1079
483.59	1060
483.808	1043
484.027	1067
484.245	994
484.463	972
484.681	1036
484.9	1108
485.118	1178
485.336	1124
485.554	1049
485.772	1061
485.99	1182
486.209	1205
486.427	1207
486.645	1208
486.863	1231
487.081	1193
487.299	1338
487.517	1309
487.735	1175
487.953	1258
488.171	1267
488.389	1201
488.607	1138
488.825	1149
489.043	1254
489.261	1459
489.479	1545
489.696	1278
489.914	1175
490.132	1130
490.35	1148
490.568	1143
490.786	1140
491.003	1105
491.221	1130
491.439	1146
491.657	1130
491.874	1221
492.092	1461
492.31	1744
492.527	1700
492.745	1528
492.963	1328
493.18	1253
493.398	1303
493.615	1258
493.833	1220
494.05	1243
494.268	1287
494.485	1255
494.703	1219
494.92	1227
495.138	1216
495.355	1194
495.573	1225
495.79	1359
496.008	1747
496.225	1526
496.442	1359
496.66	1303
496.877	1445
497.094	1397
497.312	1324
497.529	1338
497.746	1336
497.963	1369
498.181	1458
498.398	1576
498.615	1625
498.832	1681
499.049	1716
499.267	1533
499.484	1535
499.701	1596
499.918	1713
500.135	1876
500.352	1904
500.569	2012
500.786	2002
501.003	2034
501.22	1836
501.437	1689
501.654	1636
501.871	1610
502.088	1639
502.305	1503
502.522	1492
502.739	1476
502.956	1370
503.172	1369
503.389	1275
503.606	1282
503.823	1329
504.04	1313
504.256	1337
504.473	1346
504.69	1382
504.907	1409
505.123	1385
505.34	1415
505.557	1425
505.773	1341
505.99	1300
506.207	1332
506.423	1258
506.64	1187
506.856	1251
507.073	1356
507.289	1307
507.506	1318
507.722	1400
507.939	1432
508.155	1450
508.372	1296
508.588	1249
508.805	1245
509.021	1217
509.238	1172
509.454	1161
509.67	1175
509.887	1211
510.103	1331
510.319	1322
510.536	1188
510.752	1086
510.968	1051
511.184	1011
511.401	1017
511.617	1013
511.833	1033
512.049	1049
512.265	1091
512.481	1128
512.698	1244
512.914	1364
513.13	1244
513.346	1148
513.562	1204
513.778	1161
513.994	1186
514.21	1238
514.426	1175
514.642	1151
514.858	1122
515.074	1197
515.29	1263
515.506	1420
515.721	1367
515.937	1219
516.153	1176
516.369	1159
516.585	1221
516.801	1358
517.016	1593
517.232	1548
517.448	1499
517.664	1363
517.879	1277
518.095	1288
518.311	1295
518.527	1323
518.742	1353
518.958	1441
519.173	1421
519.389	1357
519.605	1362
519.82	1488
520.036	1711
520.251	1697
520.467	1589
520.682	2367
520.898	2823
521.113	2661
521.329	1694
521.544	1532
521.76	1543
521.975	1312
522.19	1275
522.406	1327
522.621	1456
522.836	1479
523.052	1562
523.267	1252
523.482	1292
523.698	1388
523.913	1366
524.128	1233
524.343	1166
524.559	1175
524.774	1133
524.989	1148
525.204	1194
525.419	1287
525.634	1199
525.849	1245
526.064	1238
526.28	1266
526.495	1459
526.71	1519
526.925	1345
527.14	1383
527.355	1316
527.57	1148
527.785	1165
527.999	1154
528.214	1064
528.429	1049
528.644	1053
528.859	982
529.074	969
529.289	975
529.503	977
529.718	1028
529.933	1163
530.148	1174
530.363	1076
530.577	1023
530.792	991
531.007	999
531.221	934
531.436	988
531.651	982
531.865	1001
532.08	994
532.295	988
532.509	1031
532.724	1164
532.938	1285
533.153	1505
533.367	1205
533.582	1170
533.796	1082
534.011	1045
534.225	1030
534.44	1053
534.654	1081
534.868	1219
535.083	1114
535.297	1019
535.511	1040
535.726	1150
535.94	1089
536.154	1029
536.369	973
536.583	1004
536.797	998
537.011	1050
537.225	1110
537.44	1151
537.654	1017
537.868	989
538.082	1020
538.296	1010
538.51	1087
538.724	1096
538.938	1071
539.153	973
539.367	951
539.581	1004
539.795	1027
540.009	1140
540.222	1037
540.436	1058
540.65	1115
540.864	1171
541.078	1208
541.292	1321
541.506	1120
541.72	1040
541.934	1045
542.147	1032
542.361	1015
542.575	1044
542.789	1003
543.002	907
543.216	1043
543.43	968
543.644	945
543.857	888
544.071	972
544.285	938
544.498	908
544.712	907
544.925	1009
545.139	966
545.352	895
545.566	924
545.779	1029
545.993	963
546.206	879
546.42	890
546.633	864
546.847	839
547.06	859
547.274	839
547.487	887
547.7	961
547.914	1001
548.127	1112
548.34	1084
548.554	956
548.767	1003
548.98	1076
549.193	999
549.407	997
549.62	1156
549.833	1113
550.046	1139
550.259	1151
550.473	1083
550.686	978
550.899	984
551.112	990
551.325	1032
551.538	1036
551.751	940
551.964	905
552.177	881
552.39	863
552.603	867
552.816	940
553.029	887
553.242	895
553.455	941
553.667	1012
553.88	961
554.093	900
554.306	849
554.519	807
554.732	746
554.944	764
555.157	800
555.37	771
555.583	780
555.795	756
556.008	793
556.221	807
556.433	794
556.646	763
556.859	761
557.071	820
557.284	824
557.496	835
557.709	811
557.921	795
558.134	754
558.346	753
558.559	735
558.771	757
558.984	801
559.196	753
559.409	732
559.621	722
559.833	717
560.046	725
560.258	727
560.47	740
560.683	704
560.895	679
561.107	680
561.32	688
561.532	683
561.744	757
561.956	786
562.168	695
562.381	700
562.593	732
562.805	734
563.017	689
563.229	677
563.441	676
563.653	726
563.865	703
564.077	691
564.289	675
564.501	693
564.713	743
564.925	729
565.137	705
565.349	683
565.561	699
565.773	728
565.985	757
566.197	798
566.408	847
566.62	851
566.832	836
567.044	839
567.255	891
567.467	981
567.679	887
567.891	870
568.102	888
568.314	921
568.526	836
568.737	819
568.949	867
569.161	765
569.372	705
569.584	700
569.795	678
570.007	701
570.218	755
570.43	733
570.641	711
570.853	654
571.064	636
571.276	688
571.487	712
571.698	657
571.91	675
572.121	652
572.333	625
572.544	632
572.755	643
572.966	604
573.178	607
573.389	646
573.6	648
573.811	632
574.023	576
574.234	591
574.445	578
574.656	561
574.867	576
575.078	587
575.289	577
575.501	626
575.712	573
575.923	539
576.134	538
576.345	536
576.556	555
576.767	525
576.978	540
577.188	522
577.399	503
577.61	524
577.821	531
578.032	551
578.243	594
578.454	573
578.665	590
578.875	593
579.086	567
579.297	538
579.508	581
579.718	551
579.929	545
580.14	540
580.35	507
580.561	508
580.772	502
580.982	484
581.193	484
581.403	482
581.614	495
581.825	466
582.035	465
582.246	476
582.456	468
582.667	472
582.877	469
583.087	474
583.298	463
583.508	432
583.719	454
583.929	448
584.139	449
584.35	455
584.56	482
584.77	476
584.981	474
585.191	480
585.401	460
585.611	481
585.821	512
586.032	497
586.242	482
586.452	447
586.662	468
586.872	487
587.082	500
587.292	487
587.502	474
587.713	482
587.923	466
588.133	497
588.343	495
588.553	441
588.762	450
588.972	475
589.182	459
589.392	436
589.602	440
589.812	462
590.022	505
590.232	514
590.441	477
590.651	459
590.861	443
591.071	475
591.281	469
591.49	437
591.7	449
591.91	451
592.119	449
592.329	482
592.539	475
592.748	458
592.958	469
593.167	475
593.377	473
593.587	493
593.796	487
594.006	468
594.215	507
594.424	495
594.634	482
594.843	488
595.053	455
595.262	455
595.472	449
595.681	454
595.89	427
596.1	440
596.309	449
596.518	427
596.727	421
596.937	434
597.146	455
597.355	480
597.564	442
597.774	437
597.983	413
598.192	389
598.401	404
598.61	403
598.819	397
599.028	386
599.237	397
599.446	383
599.655	393
599.864	394
600.073	372
600.282	362
600.491	393
600.7	383
600.909	391
601.118	393
601.327	369
601.536	361
601.745	375
601.953	399
602.162	395
602.371	392
602.58	414
602.789	369
602.997	377
603.206	384
603.415	387
603.623	375
603.832	361
604.041	352
604.249	374
604.458	394
604.666	384
604.875	377
605.084	357
605.292	361
605.501	375
605.709	367
605.918	368
606.126	369
606.334	351
606.543	345
606.751	352
606.96	340
607.168	354
607.376	343
607.585	325
607.793	376
608.001	349
608.21	337
608.418	360
608.626	367
608.834	344
609.043	328
609.251	340
609.459	332
609.667	347
609.875	360
610.083	347
610.291	349
610.499	345
610.707	338
610.916	323
611.124	331
611.332	348
611.54	339
611.748	336
611.955	323
612.163	323
612.371	337
612.579	323
612.787	325
612.995	357
613.203	336
613.411	317
613.618	325
613.826	349
614.034	352
614.242	324
614.449	304
614.657	328
614.865	340
615.072	344
615.28	322
615.488	330
615.695	300
615.903	344
616.111	313
616.318	341
616.526	318
616.733	325
616.941	324
617.148	324
617.356	314
617.563	310
617.771	316
617.978	316
618.185	330
618.393	303
618.6	329
618.807	315
619.015	315
619.222	311
619.429	315
619.637	311
619.844	309
620.051	305
620.258	327
620.466	299
620.673	281
620.88	291
621.087	283
621.294	284
621.501	283
621.708	286
621.915	295
622.122	297
622.329	304
622.536	292
622.743	294
622.95	313
623.157	288
623.364	325
623.571	300
623.778	293
623.985	320
624.192	325
624.399	335
624.606	293
624.812	301
625.019	323
625.226	317
625.433	304
625.639	305
625.846	278
626.053	293
626.259	278
626.466	299
626.673	305
626.879	292
627.086	281
627.293	275
627.499	272
627.706	266
627.912	268
628.119	281
628.325	263
628.532	273
628.738	262
628.945	261
629.151	265
629.357	272
629.564	265
629.77	261
629.976	249
630.183	255
630.389	268
630.595	263
630.802	250
631.008	267
631.214	258
631.42	248
631.627	255
631.833	251
632.039	259
632.245	237
632.451	252
632.657	244
632.863	254
633.069	253
633.275	259
633.481	252
633.688	232
633.893	241
634.099	235
634.305	232
634.511	236
634.717	239
634.923	222
635.129	236
635.335	242
635.541	250
635.747	229
635.952	237
636.158	234
636.364	229
636.57	230
636.775	242
636.981	227
637.187	240
637.392	237
637.598	228
637.804	232
638.009	226
638.215	244
638.421	222
638.626	233
638.832	226
639.037	237
639.243	233
639.448	223
639.654	247
639.859	215
640.065	209
640.27	238
640.475	235
640.681	219
640.886	247
641.091	216
641.297	223
641.502	236
641.707	231
641.913	221
642.118	225
642.323	220
642.528	243
642.733	240
642.939	213
643.144	216
643.349	243
643.554	225
643.759	224
643.964	231
644.169	225
644.374	199
644.579	225
644.784	209
644.989	212
645.194	216
645.399	203
645.604	217
645.809	231
646.014	223
646.219	207
646.423	212
646.628	208
646.833	219
647.038	201
647.243	195
647.447	217
647.652	212
647.857	209
648.062	224
648.266	231
648.471	216
648.676	198
648.88	211
649.085	218
649.289	207
649.494	218
649.698	228
649.903	201
650.107	224
650.312	194
650.516	213
650.721	187
650.925	194
651.13	194
651.334	184
651.539	188
651.743	188
651.947	176
652.152	182
652.356	180
652.56	164
652.764	191
652.969	175
653.173	173
653.377	173
653.581	164
653.785	158
653.99	185
654.194	173
654.398	165
654.602	155
654.806	172
655.01	149
655.214	152
655.418	167
655.622	153
655.826	162
656.03	167
656.234	158
656.438	148
656.642	152
656.846	162
657.049	157
657.253	151
657.457	138
657.661	137
657.865	118
658.068	124
658.272	127
658.476	121
658.68	123
658.883	115
659.087	129
659.291	125
659.494	119
659.698	124
659.901	111
660.105	126
660.309	121
660.512	100
660.716	102
660.919	92
661.123	105
661.326	99
661.53	98
661.733	94
661.936	105
662.14	94
662.343	84
662.546	89
662.75	100
662.953	98
663.156	90
663.36	95
663.563	80
663.766	86
663.969	98
664.173	91
664.376	77
664.579	82
664.782	88
664.985	89
665.188	101
665.391	92
665.594	81
665.797	89
666	76
666.203	85
666.406	78
666.609	94
666.812	94
667.015	103
667.218	78
667.421	89
667.624	95
667.827	72
668.03	103
668.232	87
668.435	74
668.638	92
668.841	90
669.043	77
669.246	92
669.449	76
669.651	87
669.854	69
670.057	97
670.259	72
670.462	94
670.665	85
670.867	74
671.07	88
671.272	83
671.475	79
671.677	85
671.88	92
672.082	89
672.284	90
672.487	80
672.689	83
672.892	84
