Data from NickelSpatula.Lamp.E5.5.P2_HRD10591_11-50-51-564.txt Node
Date: Tue Jul 23 11:50:51 EDT 2019
User: cochatt
Spectrometer: HR+D1059
Trigger mode: 1
Integration Time (sec): 1.000000E-1
Scans to average: 1
Electric dark correction enabled: true
Nonlinearity correction enabled: false
Boxcar width: 0
XAxis mode: Wavelengths
Number of Pixels in Spectrum: 2048
>>>>>Begin Spectral Data<<<<<
223.165	-4.81
223.4	-4.81
223.635	-4.81
223.869	-20.81
224.104	-22.81
224.338	-21.81
224.573	-16.81
224.808	-8.81
225.042	-5.81
225.277	-1.81
225.511	0.19
225.746	13.19
225.98	0.19
226.215	7.19
226.449	0.19
226.683	19.19
226.918	25.19
227.152	38.19
227.387	28.19
227.621	29.19
227.856	39.19
228.09	45.19
228.324	57.19
228.559	62.19
228.793	66.19
229.027	81.19
229.262	65.19
229.496	63.19
229.73	69.19
229.964	100.19
230.199	86.19
230.433	94.19
230.667	95.19
230.901	104.19
231.136	96.19
231.37	92.19
231.604	82.19
231.838	94.19
232.072	116.19
232.306	108.19
232.541	101.19
232.775	98.19
233.009	116.19
233.243	113.19
233.477	112.19
233.711	112.19
233.945	120.19
234.179	108.19
234.413	108.19
234.647	118.19
234.881	119.19
235.115	125.19
235.349	119.19
235.583	114.19
235.817	124.19
236.051	116.19
236.285	130.19
236.519	120.19
236.753	114.19
236.987	123.19
237.221	124.19
237.455	121.19
237.689	113.19
237.922	128.19
238.156	118.19
238.39	129.19
238.624	159.19
238.858	142.19
239.091	129.19
239.325	129.19
239.559	114.19
239.793	130.19
240.027	136.19
240.26	130.19
240.494	140.19
240.728	136.19
240.961	144.19
241.195	120.19
241.429	147.19
241.662	116.19
241.896	135.19
242.13	118.19
242.363	135.19
242.597	127.19
242.83	148.19
243.064	130.19
243.298	145.19
243.531	152.19
243.765	145.19
243.998	131.19
244.232	146.19
244.465	148.19
244.699	135.19
244.932	148.19
245.166	148.19
245.399	123.19
245.633	124.19
245.866	145.19
246.099	153.19
246.333	152.19
246.566	184.19
246.8	165.19
247.033	166.19
247.266	149.19
247.5	147.19
247.733	138.19
247.966	156.19
248.2	154.19
248.433	144.19
248.666	157.19
248.899	172.19
249.133	182.19
249.366	186.19
249.599	196.19
249.832	175.19
250.066	165.19
250.299	173.19
250.532	174.19
250.765	163.19
250.998	158.19
251.231	154.19
251.465	158.19
251.698	153.19
251.931	167.19
252.164	185.19
252.397	202.19
252.63	195.19
252.863	202.19
253.096	224.19
253.329	212.19
253.562	211.19
253.795	212.19
254.028	241.19
254.261	240.19
254.494	219.19
254.727	217.19
254.96	219.19
255.193	216.19
255.426	214.19
255.659	180.19
255.892	184.19
256.124	191.19
256.357	205.19
256.59	224.19
256.823	226.19
257.056	206.19
257.289	192.19
257.521	217.19
257.754	213.19
257.987	248.19
258.22	240.19
258.452	200.19
258.685	222.19
258.918	239.19
259.151	242.19
259.383	264.19
259.616	287.19
259.849	284.19
260.081	295.19
260.314	302.19
260.547	263.19
260.779	261.19
261.012	306.19
261.244	288.19
261.477	302.19
261.71	283.19
261.942	218.19
262.175	232.19
262.407	221.19
262.64	212.19
262.872	268.19
263.105	296.19
263.337	306.19
263.57	279.19
263.802	213.19
264.035	196.19
264.267	198.19
264.499	177.19
264.732	167.19
264.964	173.19
265.197	174.19
265.429	176.19
265.661	171.19
265.894	185.19
266.126	191.19
266.358	199.19
266.591	248.19
266.823	276.19
267.055	261.19
267.287	257.19
267.52	249.19
267.752	257.19
267.984	289.19
268.216	259.19
268.448	217.19
268.681	211.19
268.913	239.19
269.145	252.19
269.377	250.19
269.609	272.19
269.841	245.19
270.073	258.19
270.306	270.19
270.538	281.19
270.77	272.19
271.002	267.19
271.234	281.19
271.466	285.19
271.698	264.19
271.93	257.19
272.162	264.19
272.394	246.19
272.626	222.19
272.858	260.19
273.09	257.19
273.322	222.19
273.553	224.19
273.785	255.19
274.017	318.19
274.249	366.19
274.481	380.19
274.713	416.19
274.945	469.19
275.176	468.19
275.408	412.19
275.64	402.19
275.872	415.19
276.104	360.19
276.335	325.19
276.567	338.19
276.799	332.19
277.031	337.19
277.262	288.19
277.494	241.19
277.726	253.19
277.957	229.19
278.189	275.19
278.421	264.19
278.652	256.19
278.884	240.19
279.115	269.19
279.347	225.19
279.579	230.19
279.81	240.19
280.042	254.19
280.273	252.19
280.505	255.19
280.736	214.19
280.968	219.19
281.199	216.19
281.431	249.19
281.662	241.19
281.894	240.19
282.125	242.19
282.356	260.19
282.588	272.19
282.819	238.19
283.051	252.19
283.282	302.19
283.513	343.19
283.745	364.19
283.976	377.19
284.207	340.19
284.439	348.19
284.67	346.19
284.901	316.19
285.132	321.19
285.364	337.19
285.595	319.19
285.826	366.19
286.057	347.19
286.288	345.19
286.52	348.19
286.751	366.19
286.982	366.19
287.213	327.19
287.444	328.19
287.675	321.19
287.906	351.19
288.138	310.19
288.369	276.19
288.6	254.19
288.831	265.19
289.062	305.19
289.293	330.19
289.524	315.19
289.755	312.19
289.986	317.19
290.217	276.19
290.448	240.19
290.679	207.19
290.91	212.19
291.141	213.19
291.371	206.19
291.602	213.19
291.833	206.19
292.064	199.19
292.295	256.19
292.526	273.19
292.757	268.19
292.987	284.19
293.218	290.19
293.449	306.19
293.68	334.19
293.91	324.19
294.141	323.19
294.372	295.19
294.603	268.19
294.833	300.19
295.064	364.19
295.295	345.19
295.525	265.19
295.756	234.19
295.987	216.19
296.217	216.19
296.448	221.19
296.679	207.19
296.909	234.19
297.14	250.19
297.37	285.19
297.601	265.19
297.831	221.19
298.062	253.19
298.292	261.19
298.523	275.19
298.753	320.19
298.984	298.19
299.214	266.19
299.445	225.19
299.675	220.19
299.905	216.19
300.136	201.19
300.366	250.19
300.597	228.19
300.827	231.19
301.057	212.19
301.288	228.19
301.518	228.19
301.748	261.19
301.979	258.19
302.209	267.19
302.439	292.19
302.669	249.19
302.9	238.19
303.13	251.19
303.36	224.19
303.59	218.19
303.82	231.19
304.051	237.19
304.281	263.19
304.511	279.19
304.741	231.19
304.971	244.19
305.201	264.19
305.431	260.19
305.661	229.19
305.891	218.19
306.121	218.19
306.352	205.19
306.582	189.19
306.812	204.19
307.042	188.19
307.272	178.19
307.502	187.19
307.731	187.19
307.961	198.19
308.191	197.19
308.421	187.19
308.651	178.19
308.881	193.19
309.111	173.19
309.341	192.19
309.571	198.19
309.8	209.19
310.03	207.19
310.26	211.19
310.49	192.19
310.72	196.19
310.949	199.19
311.179	184.19
311.409	212.19
311.639	209.19
311.868	262.19
312.098	320.19
312.328	330.19
312.557	328.19
312.787	352.19
313.017	324.19
313.246	336.19
313.476	337.19
313.706	272.19
313.935	247.19
314.165	236.19
314.394	218.19
314.624	193.19
314.853	194.19
315.083	223.19
315.312	232.19
315.542	207.19
315.771	200.19
316.001	186.19
316.23	182.19
316.46	168.19
316.689	194.19
316.919	191.19
317.148	201.19
317.377	190.19
317.607	191.19
317.836	196.19
318.065	217.19
318.295	257.19
318.524	231.19
318.753	218.19
318.983	197.19
319.212	204.19
319.441	206.19
319.67	238.19
319.9	231.19
320.129	214.19
320.358	206.19
320.587	205.19
320.816	206.19
321.046	231.19
321.275	256.19
321.504	225.19
321.733	254.19
321.962	229.19
322.191	224.19
322.42	205.19
322.649	238.19
322.878	257.19
323.108	248.19
323.337	237.19
323.566	232.19
323.795	236.19
324.024	202.19
324.253	213.19
324.482	192.19
324.71	229.19
324.939	233.19
325.168	231.19
325.397	213.19
325.626	193.19
325.855	203.19
326.084	202.19
326.313	194.19
326.542	191.19
326.77	202.19
326.999	198.19
327.228	226.19
327.457	233.19
327.686	204.19
327.914	207.19
328.143	198.19
328.372	192.19
328.6	200.19
328.829	190.19
329.058	204.19
329.287	179.19
329.515	188.19
329.744	215.19
329.972	193.19
330.201	165.19
330.43	180.19
330.658	204.19
330.887	204.19
331.115	209.19
331.344	230.19
331.572	216.19
331.801	202.19
332.03	196.19
332.258	209.19
332.486	212.19
332.715	235.19
332.943	212.19
333.172	210.19
333.4	213.19
333.629	228.19
333.857	243.19
334.085	245.19
334.314	234.19
334.542	236.19
334.771	214.19
334.999	221.19
335.227	216.19
335.455	224.19
335.684	226.19
335.912	259.19
336.14	244.19
336.369	253.19
336.597	238.19
336.825	264.19
337.053	295.19
337.281	245.19
337.51	214.19
337.738	225.19
337.966	217.19
338.194	240.19
338.422	210.19
338.65	226.19
338.878	214.19
339.106	217.19
339.334	217.19
339.562	211.19
339.79	203.19
340.018	207.19
340.246	208.19
340.474	247.19
340.702	237.19
340.93	260.19
341.158	277.19
341.386	228.19
341.614	224.19
341.842	228.19
342.07	231.19
342.298	232.19
342.526	273.19
342.754	234.19
342.981	241.19
343.209	231.19
343.437	236.19
343.665	254.19
343.893	264.19
344.12	276.19
344.348	309.19
344.576	304.19
344.804	253.19
345.031	225.19
345.259	192.19
345.487	223.19
345.714	205.19
345.942	223.19
346.17	249.19
346.397	229.19
346.625	212.19
346.853	202.19
347.08	191.19
347.308	212.19
347.535	240.19
347.763	244.19
347.99	232.19
348.218	204.19
348.445	208.19
348.673	207.19
348.9	222.19
349.128	219.19
349.355	230.19
349.583	224.19
349.81	217.19
350.037	223.19
350.265	185.19
350.492	193.19
350.72	192.19
350.947	205.19
351.174	195.19
351.402	208.19
351.629	206.19
351.856	210.19
352.083	178.19
352.311	205.19
352.538	226.19
352.765	233.19
352.992	231.19
353.22	205.19
353.447	223.19
353.674	209.19
353.901	204.19
354.128	206.19
354.355	232.19
354.583	212.19
354.81	238.19
355.037	238.19
355.264	213.19
355.491	206.19
355.718	229.19
355.945	225.19
356.172	208.19
356.399	220.19
356.626	247.19
356.853	303.19
357.08	331.19
357.307	334.19
357.534	261.19
357.761	290.19
357.988	350.19
358.215	390.19
358.441	345.19
358.668	286.19
358.895	289.19
359.122	256.19
359.349	262.19
359.576	290.19
359.802	247.19
360.029	194.19
360.256	219.19
360.483	266.19
360.709	308.19
360.936	306.19
361.163	297.19
361.39	212.19
361.616	218.19
361.843	245.19
362.07	272.19
362.296	245.19
362.523	220.19
362.749	206.19
362.976	213.19
363.203	260.19
363.429	270.19
363.656	216.19
363.882	212.19
364.109	210.19
364.335	211.19
364.562	201.19
364.788	223.19
365.015	258.19
365.241	226.19
365.468	215.19
365.694	190.19
365.92	186.19
366.147	180.19
366.373	180.19
366.599	198.19
366.826	182.19
367.052	181.19
367.278	184.19
367.505	202.19
367.731	190.19
367.957	208.19
368.184	203.19
368.41	215.19
368.636	210.19
368.862	201.19
369.089	227.19
369.315	204.19
369.541	208.19
369.767	200.19
369.993	197.19
370.219	198.19
370.445	203.19
370.672	211.19
370.898	214.19
371.124	220.19
371.35	214.19
371.576	192.19
371.802	200.19
372.028	252.19
372.254	272.19
372.48	246.19
372.706	232.19
372.932	254.19
373.158	243.19
373.384	264.19
373.61	327.19
373.835	353.19
374.061	270.19
374.287	232.19
374.513	285.19
374.739	313.19
374.965	330.19
375.191	319.19
375.416	253.19
375.642	235.19
375.868	252.19
376.094	276.19
376.319	250.19
376.545	257.19
376.771	281.19
376.997	241.19
377.222	202.19
377.448	174.19
377.674	186.19
377.899	184.19
378.125	195.19
378.35	199.19
378.576	191.19
378.802	190.19
379.027	228.19
379.253	207.19
379.478	230.19
379.704	216.19
379.929	242.19
380.155	232.19
380.38	208.19
380.606	210.19
380.831	223.19
381.057	231.19
381.282	225.19
381.507	238.19
381.733	286.19
381.958	313.19
382.184	316.19
382.409	308.19
382.634	328.19
382.86	350.19
383.085	275.19
383.31	244.19
383.535	267.19
383.761	282.19
383.986	243.19
384.211	290.19
384.436	282.19
384.662	219.19
384.887	236.19
385.112	232.19
385.337	240.19
385.562	216.19
385.787	256.19
386.013	262.19
386.238	272.19
386.463	238.19
386.688	240.19
386.913	223.19
387.138	210.19
387.363	230.19
387.588	243.19
387.813	228.19
388.038	236.19
388.263	261.19
388.488	230.19
388.713	253.19
388.938	254.19
389.163	239.19
389.387	212.19
389.612	228.19
389.837	222.19
390.062	215.19
390.287	231.19
390.512	231.19
390.736	229.19
390.961	210.19
391.186	213.19
391.411	201.19
391.636	218.19
391.86	229.19
392.085	232.19
392.31	243.19
392.534	211.19
392.759	224.19
392.984	238.19
393.208	222.19
393.433	216.19
393.658	199.19
393.882	201.19
394.107	202.19
394.331	202.19
394.556	197.19
394.78	220.19
395.005	206.19
395.229	218.19
395.454	199.19
395.678	210.19
395.903	210.19
396.127	219.19
396.352	213.19
396.576	230.19
396.801	233.19
397.025	236.19
397.249	277.19
397.474	233.19
397.698	206.19
397.922	221.19
398.147	216.19
398.371	212.19
398.595	236.19
398.82	233.19
399.044	234.19
399.268	245.19
399.492	274.19
399.717	287.19
399.941	293.19
400.165	276.19
400.389	243.19
400.613	225.19
400.837	238.19
401.062	210.19
401.286	215.19
401.51	218.19
401.734	205.19
401.958	244.19
402.182	227.19
402.406	227.19
402.63	238.19
402.854	241.19
403.078	278.19
403.302	354.19
403.526	353.19
403.75	340.19
403.974	266.19
404.198	287.19
404.422	308.19
404.645	312.19
404.869	326.19
405.093	272.19
405.317	262.19
405.541	264.19
405.765	278.19
405.988	271.19
406.212	272.19
406.436	294.19
406.66	311.19
406.883	265.19
407.107	273.19
407.331	306.19
407.555	306.19
407.778	272.19
408.002	266.19
408.226	274.19
408.449	262.19
408.673	241.19
408.896	256.19
409.12	234.19
409.344	243.19
409.567	242.19
409.791	249.19
410.014	246.19
410.238	241.19
410.461	217.19
410.685	236.19
410.908	233.19
411.132	234.19
411.355	242.19
411.578	240.19
411.802	241.19
412.025	224.19
412.249	242.19
412.472	233.19
412.695	239.19
412.919	224.19
413.142	218.19
413.365	259.19
413.589	239.19
413.812	241.19
414.035	210.19
414.258	226.19
414.482	255.19
414.705	272.19
414.928	244.19
415.151	217.19
415.374	249.19
415.597	214.19
415.821	221.19
416.044	232.19
416.267	219.19
416.49	221.19
416.713	224.19
416.936	213.19
417.159	215.19
417.382	210.19
417.605	233.19
417.828	231.19
418.051	236.19
418.274	223.19
418.497	228.19
418.72	243.19
418.943	256.19
419.166	245.19
419.389	255.19
419.611	248.19
419.834	233.19
420.057	274.19
420.28	256.19
420.503	257.19
420.726	232.19
420.948	218.19
421.171	219.19
421.394	237.19
421.617	221.19
421.839	225.19
422.062	228.19
422.285	249.19
422.507	243.19
422.73	233.19
422.953	229.19
423.175	228.19
423.398	249.19
423.621	243.19
423.843	251.19
424.066	242.19
424.288	248.19
424.511	236.19
424.733	251.19
424.956	255.19
425.178	254.19
425.401	313.19
425.623	351.19
425.846	289.19
426.068	273.19
426.291	263.19
426.513	260.19
426.735	239.19
426.958	248.19
427.18	273.19
427.402	306.19
427.625	349.19
427.847	297.19
428.069	211.19
428.292	229.19
428.514	233.19
428.736	258.19
428.958	252.19
429.181	296.19
429.403	253.19
429.625	214.19
429.847	216.19
430.069	207.19
430.292	224.19
430.514	205.19
430.736	225.19
430.958	256.19
431.18	254.19
431.402	212.19
431.624	198.19
431.846	212.19
432.068	225.19
432.29	199.19
432.512	230.19
432.734	260.19
432.956	246.19
433.178	217.19
433.4	204.19
433.622	216.19
433.844	234.19
434.066	233.19
434.287	239.19
434.509	231.19
434.731	243.19
434.953	239.19
435.175	246.19
435.397	265.19
435.618	238.19
435.84	217.19
436.062	199.19
436.284	233.19
436.505	206.19
436.727	220.19
436.949	222.19
437.17	214.19
437.392	217.19
437.614	226.19
437.835	198.19
438.057	214.19
438.278	227.19
438.5	285.19
438.721	289.19
438.943	234.19
439.165	194.19
439.386	202.19
439.608	213.19
439.829	200.19
440.05	197.19
440.272	214.19
440.493	254.19
440.715	269.19
440.936	248.19
441.158	226.19
441.379	197.19
441.6	252.19
441.822	254.19
442.043	232.19
442.264	230.19
442.486	230.19
442.707	228.19
442.928	228.19
443.149	229.19
443.371	238.19
443.592	228.19
443.813	226.19
444.034	227.19
444.255	244.19
444.476	243.19
444.698	261.19
444.919	267.19
445.14	351.19
445.361	291.19
445.582	264.19
445.803	224.19
446.024	225.19
446.245	221.19
446.466	240.19
446.687	229.19
446.908	220.19
447.129	216.19
447.35	212.19
447.571	206.19
447.792	206.19
448.013	208.19
448.234	200.19
448.455	189.19
448.675	194.19
448.896	192.19
449.117	196.19
449.338	213.19
449.559	214.19
449.779	218.19
450	219.19
450.221	212.19
450.442	197.19
450.662	224.19
450.883	220.19
451.104	201.19
451.324	191.19
451.545	208.19
451.766	203.19
451.986	212.19
452.207	201.19
452.428	201.19
452.648	199.19
452.869	215.19
453.089	223.19
453.31	206.19
453.53	190.19
453.751	192.19
453.971	206.19
454.192	207.19
454.412	225.19
454.633	209.19
454.853	221.19
455.073	199.19
455.294	192.19
455.514	206.19
455.734	215.19
455.955	225.19
456.175	212.19
456.395	195.19
456.616	198.19
456.836	184.19
457.056	197.19
457.276	182.19
457.497	186.19
457.717	180.19
457.937	194.19
458.157	192.19
458.377	208.19
458.598	176.19
458.818	202.19
459.038	216.19
459.258	215.19
459.478	223.19
459.698	229.19
459.918	241.19
460.138	224.19
460.358	256.19
460.578	223.19
460.798	237.19
461.018	232.19
461.238	231.19
461.458	219.19
461.678	230.19
461.898	251.19
462.118	245.19
462.338	240.19
462.558	259.19
462.777	258.19
462.997	273.19
463.217	302.19
463.437	291.19
463.657	265.19
463.876	261.19
464.096	266.19
464.316	250.19
464.536	270.19
464.755	274.19
464.975	277.19
465.195	253.19
465.414	251.19
465.634	261.19
465.854	240.19
466.073	215.19
466.293	225.19
466.512	242.19
466.732	242.19
466.951	238.19
467.171	229.19
467.391	235.19
467.61	208.19
467.829	229.19
468.049	225.19
468.268	213.19
468.488	219.19
468.707	221.19
468.927	221.19
469.146	270.19
469.365	229.19
469.585	226.19
469.804	216.19
470.023	241.19
470.243	246.19
470.462	231.19
470.681	222.19
470.901	226.19
471.12	230.19
471.339	225.19
471.558	229.19
471.777	213.19
471.997	225.19
472.216	241.19
472.435	241.19
472.654	215.19
472.873	229.19
473.092	234.19
473.311	233.19
473.53	212.19
473.749	225.19
473.968	231.19
474.187	215.19
474.406	222.19
474.625	212.19
474.844	220.19
475.063	238.19
475.282	244.19
475.501	246.19
475.72	271.19
475.939	248.19
476.158	243.19
476.377	259.19
476.596	296.19
476.814	315.19
477.033	276.19
477.252	240.19
477.471	218.19
477.69	235.19
477.908	243.19
478.127	253.19
478.346	230.19
478.564	270.19
478.783	262.19
479.002	266.19
479.22	300.19
479.439	312.19
479.658	264.19
479.876	250.19
480.095	261.19
480.313	272.19
480.532	278.19
480.751	251.19
480.969	264.19
481.188	268.19
481.406	276.19
481.624	258.19
481.843	246.19
482.061	262.19
482.28	271.19
482.498	292.19
482.717	298.19
482.935	266.19
483.153	268.19
483.372	245.19
483.59	234.19
483.808	256.19
484.027	232.19
484.245	236.19
484.463	231.19
484.681	248.19
484.9	233.19
485.118	265.19
485.336	248.19
485.554	241.19
485.772	252.19
485.99	289.19
486.209	288.19
486.427	280.19
486.645	263.19
486.863	271.19
487.081	276.19
487.299	280.19
487.517	283.19
487.735	261.19
487.953	260.19
488.171	269.19
488.389	250.19
488.607	270.19
488.825	263.19
489.043	269.19
489.261	296.19
489.479	309.19
489.696	272.19
489.914	248.19
490.132	246.19
490.35	250.19
490.568	254.19
490.786	248.19
491.003	273.19
491.221	254.19
491.439	239.19
491.657	254.19
491.874	258.19
492.092	294.19
492.31	345.19
492.527	339.19
492.745	304.19
492.963	270.19
493.18	271.19
493.398	286.19
493.615	291.19
493.833	300.19
494.05	280.19
494.268	281.19
494.485	256.19
494.703	264.19
494.92	270.19
495.138	272.19
495.355	261.19
495.573	273.19
495.79	282.19
496.008	322.19
496.225	305.19
496.442	271.19
496.66	294.19
496.877	306.19
497.094	289.19
497.312	283.19
497.529	290.19
497.746	288.19
497.963	301.19
498.181	299.19
498.398	303.19
498.615	336.19
498.832	365.19
499.049	346.19
499.267	357.19
499.484	385.19
499.701	417.19
499.918	436.19
500.135	493.19
500.352	548.19
500.569	558.19
500.786	560.19
501.003	513.19
501.22	494.19
501.437	419.19
501.654	387.19
501.871	362.19
502.088	361.19
502.305	335.19
502.522	333.19
502.739	328.19
502.956	322.19
503.172	303.19
503.389	300.19
503.606	279.19
503.823	300.19
504.04	312.19
504.256	307.19
504.473	306.19
504.69	313.19
504.907	307.19
505.123	300.19
505.34	306.19
505.557	293.19
505.773	273.19
505.99	273.19
506.207	282.19
506.423	280.19
506.64	266.19
506.856	247.19
507.073	277.19
507.289	285.19
507.506	284.19
507.722	301.19
507.939	293.19
508.155	283.19
508.372	269.19
508.588	276.19
508.805	260.19
509.021	256.19
509.238	234.19
509.454	250.19
509.67	241.19
509.887	254.19
510.103	274.19
510.319	248.19
510.536	237.19
510.752	240.19
510.968	238.19
511.184	236.19
511.401	240.19
511.617	220.19
511.833	234.19
512.049	245.19
512.265	237.19
512.481	256.19
512.698	255.19
512.914	262.19
513.13	271.19
513.346	255.19
513.562	266.19
513.778	272.19
513.994	259.19
514.21	268.19
514.426	244.19
514.642	245.19
514.858	259.19
515.074	267.19
515.29	296.19
515.506	300.19
515.721	282.19
515.937	281.19
516.153	273.19
516.369	267.19
516.585	270.19
516.801	289.19
517.016	328.19
517.232	332.19
517.448	326.19
517.664	342.19
517.879	306.19
518.095	301.19
518.311	305.19
518.527	311.19
518.742	314.19
518.958	310.19
519.173	310.19
519.389	296.19
519.605	302.19
519.82	318.19
520.036	318.19
520.251	326.19
520.467	315.19
520.682	527.19
520.898	669.19
521.113	631.19
521.329	388.19
521.544	308.19
521.76	307.19
521.975	278.19
522.19	258.19
522.406	274.19
522.621	298.19
522.836	289.19
523.052	291.19
523.267	272.19
523.482	273.19
523.698	283.19
523.913	263.19
524.128	269.19
524.343	256.19
524.559	243.19
524.774	247.19
524.989	227.19
525.204	258.19
525.419	285.19
525.634	258.19
525.849	282.19
526.064	264.19
526.28	262.19
526.495	285.19
526.71	339.19
526.925	286.19
527.14	292.19
527.355	276.19
527.57	232.19
527.785	286.19
527.999	260.19
528.214	242.19
528.429	258.19
528.644	240.19
528.859	250.19
529.074	240.19
529.289	245.19
529.503	232.19
529.718	218.19
529.933	276.19
530.148	305.19
530.363	252.19
530.577	234.19
530.792	242.19
531.007	231.19
531.221	243.19
531.436	230.19
531.651	246.19
531.865	260.19
532.08	239.19
532.295	242.19
532.509	245.19
532.724	264.19
532.938	283.19
533.153	329.19
533.367	277.19
533.582	266.19
533.796	247.19
534.011	244.19
534.225	251.19
534.44	264.19
534.654	272.19
534.868	301.19
535.083	276.19
535.297	240.19
535.511	247.19
535.726	250.19
535.94	245.19
536.154	228.19
536.369	229.19
536.583	238.19
536.797	238.19
537.011	231.19
537.225	244.19
537.44	253.19
537.654	238.19
537.868	234.19
538.082	222.19
538.296	235.19
538.51	239.19
538.724	249.19
538.938	237.19
539.153	222.19
539.367	230.19
539.581	230.19
539.795	239.19
540.009	262.19
540.222	249.19
540.436	239.19
540.65	250.19
540.864	262.19
541.078	276.19
541.292	319.19
541.506	244.19
541.72	244.19
541.934	228.19
542.147	236.19
542.361	252.19
542.575	242.19
542.789	222.19
543.002	216.19
543.216	258.19
543.43	223.19
543.644	221.19
543.857	226.19
544.071	231.19
544.285	228.19
544.498	212.19
544.712	230.19
544.925	232.19
545.139	221.19
545.352	203.19
545.566	223.19
545.779	233.19
545.993	227.19
546.206	209.19
546.42	228.19
546.633	216.19
546.847	207.19
547.06	212.19
547.274	226.19
547.487	221.19
547.7	238.19
547.914	221.19
548.127	252.19
548.34	247.19
548.554	236.19
548.767	222.19
548.98	267.19
549.193	227.19
549.407	223.19
549.62	257.19
549.833	239.19
550.046	260.19
550.259	245.19
550.473	233.19
550.686	235.19
550.899	245.19
551.112	225.19
551.325	237.19
551.538	241.19
551.751	221.19
551.964	212.19
552.177	209.19
552.39	224.19
552.603	214.19
552.816	240.19
553.029	227.19
553.242	215.19
553.455	242.19
553.667	252.19
553.88	246.19
554.093	242.19
554.306	217.19
554.519	211.19
554.732	210.19
554.944	210.19
555.157	213.19
555.37	193.19
555.583	198.19
555.795	198.19
556.008	206.19
556.221	213.19
556.433	201.19
556.646	206.19
556.859	213.19
557.071	198.19
557.284	198.19
557.496	206.19
557.709	218.19
557.921	222.19
558.134	202.19
558.346	200.19
558.559	200.19
558.771	215.19
558.984	212.19
559.196	197.19
559.409	184.19
559.621	181.19
559.833	192.19
560.046	212.19
560.258	201.19
560.47	183.19
560.683	185.19
560.895	193.19
561.107	181.19
561.32	190.19
561.532	190.19
561.744	207.19
561.956	206.19
562.168	174.19
562.381	180.19
562.593	202.19
562.805	204.19
563.017	193.19
563.229	192.19
563.441	194.19
563.653	200.19
563.865	184.19
564.077	188.19
564.289	192.19
564.501	185.19
564.713	206.19
564.925	214.19
565.137	197.19
565.349	188.19
565.561	212.19
565.773	200.19
565.985	207.19
566.197	221.19
566.408	247.19
566.62	226.19
566.832	252.19
567.044	253.19
567.255	253.19
567.467	253.19
567.679	277.19
567.891	260.19
568.102	281.19
568.314	276.19
568.526	264.19
568.737	263.19
568.949	241.19
569.161	237.19
569.372	199.19
569.584	227.19
569.795	198.19
570.007	193.19
570.218	198.19
570.43	190.19
570.641	211.19
570.853	189.19
571.064	194.19
571.276	204.19
571.487	205.19
571.698	187.19
571.91	188.19
572.121	184.19
572.333	174.19
572.544	157.19
572.755	188.19
572.966	167.19
573.178	172.19
573.389	194.19
573.6	196.19
573.811	176.19
574.023	184.19
574.234	174.19
574.445	175.19
574.656	160.19
574.867	182.19
575.078	178.19
575.289	188.19
575.501	180.19
575.712	163.19
575.923	179.19
576.134	184.19
576.345	192.19
576.556	177.19
576.767	161.19
576.978	172.19
577.188	152.19
577.399	162.19
577.61	165.19
577.821	156.19
578.032	168.19
578.243	178.19
578.454	179.19
578.665	179.19
578.875	165.19
579.086	186.19
579.297	167.19
579.508	178.19
579.718	161.19
579.929	178.19
580.14	180.19
580.35	160.19
580.561	159.19
580.772	160.19
580.982	155.19
581.193	162.19
581.403	174.19
581.614	157.19
581.825	148.19
582.035	164.19
582.246	151.19
582.456	153.19
582.667	156.19
582.877	157.19
583.087	154.19
583.298	149.19
583.508	156.19
583.719	165.19
583.929	166.19
584.139	168.19
584.35	165.19
584.56	156.19
584.77	164.19
584.981	146.19
585.191	152.19
585.401	156.19
585.611	161.19
585.821	160.19
586.032	161.19
586.242	154.19
586.452	157.19
586.662	151.19
586.872	164.19
587.082	159.19
587.292	166.19
587.502	142.19
587.713	159.19
587.923	147.19
588.133	174.19
588.343	157.19
588.553	172.19
588.762	137.19
588.972	165.19
589.182	152.19
589.392	162.19
589.602	142.19
589.812	160.19
590.022	155.19
590.232	165.19
590.441	156.19
590.651	142.19
590.861	179.19
591.071	175.19
591.281	166.19
591.49	163.19
591.7	155.19
591.91	164.19
592.119	155.19
592.329	164.19
592.539	171.19
592.748	151.19
592.958	169.19
593.167	173.19
593.377	167.19
593.587	183.19
593.796	183.19
594.006	177.19
594.215	174.19
594.424	183.19
594.634	180.19
594.843	165.19
595.053	165.19
595.262	155.19
595.472	156.19
595.681	174.19
595.89	162.19
596.1	166.19
596.309	138.19
596.518	148.19
596.727	150.19
596.937	149.19
597.146	153.19
597.355	162.19
597.564	136.19
597.774	158.19
597.983	134.19
598.192	149.19
598.401	140.19
598.61	147.19
598.819	145.19
599.028	142.19
599.237	137.19
599.446	132.19
599.655	147.19
599.864	136.19
600.073	146.19
600.282	142.19
600.491	138.19
600.7	135.19
600.909	143.19
601.118	143.19
601.327	134.19
601.536	152.19
601.745	149.19
601.953	157.19
602.162	136.19
602.371	128.19
602.58	161.19
602.789	134.19
602.997	156.19
603.206	144.19
603.415	153.19
603.623	141.19
603.832	142.19
604.041	132.19
604.249	134.19
604.458	163.19
604.666	138.19
604.875	136.19
605.084	138.19
605.292	144.19
605.501	133.19
605.709	136.19
605.918	142.19
606.126	151.19
606.334	139.19
606.543	130.19
606.751	148.19
606.96	143.19
607.168	125.19
607.376	131.19
607.585	116.19
607.793	140.19
608.001	153.19
608.21	137.19
608.418	144.19
608.626	134.19
608.834	131.19
609.043	148.19
609.251	122.19
609.459	137.19
609.667	146.19
609.875	140.19
610.083	132.19
610.291	130.19
610.499	157.19
610.707	137.19
610.916	133.19
611.124	147.19
611.332	129.19
611.54	129.19
611.748	133.19
611.955	147.19
612.163	127.19
612.371	125.19
612.579	144.19
612.787	138.19
612.995	133.19
613.203	138.19
613.411	137.19
613.618	135.19
613.826	131.19
614.034	129.19
614.242	138.19
614.449	137.19
614.657	125.19
614.865	129.19
615.072	134.19
615.28	133.19
615.488	113.19
615.695	133.19
615.903	129.19
616.111	143.19
616.318	129.19
616.526	134.19
616.733	132.19
616.941	129.19
617.148	147.19
617.356	137.19
617.563	139.19
617.771	124.19
617.978	126.19
618.185	122.19
618.393	128.19
618.6	133.19
618.807	140.19
619.015	138.19
619.222	132.19
619.429	125.19
619.637	136.19
619.844	121.19
620.051	146.19
620.258	126.19
620.466	122.19
620.673	140.19
620.88	122.19
621.087	126.19
621.294	109.19
621.501	124.19
621.708	118.19
621.915	125.19
622.122	122.19
622.329	128.19
622.536	125.19
622.743	124.19
622.95	116.19
623.157	127.19
623.364	121.19
623.571	129.19
623.778	130.19
623.985	129.19
624.192	139.19
624.399	124.19
624.606	123.19
624.812	121.19
625.019	116.19
625.226	123.19
625.433	116.19
625.639	112.19
625.846	119.19
626.053	119.19
626.259	114.19
626.466	122.19
626.673	120.19
626.879	128.19
627.086	123.19
627.293	126.19
627.499	128.19
627.706	115.19
627.912	120.19
628.119	127.19
628.325	117.19
628.532	115.19
628.738	115.19
628.945	111.19
629.151	106.19
629.357	127.19
629.564	120.19
629.77	112.19
629.976	122.19
630.183	122.19
630.389	124.19
630.595	130.19
630.802	133.19
631.008	111.19
631.214	118.19
631.42	117.19
631.627	115.19
631.833	110.19
632.039	103.19
632.245	115.19
632.451	119.19
632.657	123.19
632.863	120.19
633.069	113.19
633.275	119.19
633.481	119.19
633.688	111.19
633.893	98.19
634.099	117.19
634.305	116.19
634.511	125.19
634.717	122.19
634.923	115.19
635.129	118.19
635.335	104.19
635.541	125.19
635.747	112.19
635.952	103.19
636.158	110.19
636.364	120.19
636.57	99.19
636.775	112.19
636.981	100.19
637.187	111.19
637.392	110.19
637.598	113.19
637.804	125.19
638.009	117.19
638.215	115.19
638.421	114.19
638.626	121.19
638.832	107.19
639.037	118.19
639.243	103.19
639.448	105.19
639.654	116.19
639.859	109.19
640.065	96.19
640.27	110.19
640.475	117.19
640.681	97.19
640.886	114.19
641.091	117.19
641.297	110.19
641.502	102.19
641.707	100.19
641.913	96.19
642.118	100.19
642.323	110.19
642.528	104.19
642.733	110.19
642.939	112.19
643.144	102.19
643.349	120.19
643.554	104.19
643.759	118.19
643.964	108.19
644.169	96.19
644.374	108.19
644.579	100.19
644.784	103.19
644.989	120.19
645.194	112.19
645.399	103.19
645.604	121.19
645.809	112.19
646.014	116.19
646.219	113.19
646.423	112.19
646.628	111.19
646.833	120.19
647.038	99.19
647.243	105.19
647.447	114.19
647.652	104.19
647.857	103.19
648.062	115.19
648.266	112.19
648.471	116.19
648.676	104.19
648.88	100.19
649.085	104.19
649.289	112.19
649.494	96.19
649.698	106.19
649.903	120.19
650.107	104.19
650.312	113.19
650.516	116.19
650.721	116.19
650.925	113.19
651.13	101.19
651.334	120.19
651.539	109.19
651.743	113.19
651.947	110.19
652.152	109.19
652.356	106.19
652.56	99.19
652.764	100.19
652.969	105.19
653.173	104.19
653.377	84.19
653.581	101.19
653.785	104.19
653.99	95.19
654.194	100.19
654.398	93.19
654.602	98.19
654.806	105.19
655.01	95.19
655.214	80.19
655.418	85.19
655.622	105.19
655.826	106.19
656.03	93.19
656.234	108.19
656.438	88.19
656.642	98.19
656.846	105.19
657.049	101.19
657.253	109.19
657.457	104.19
657.661	95.19
657.865	99.19
658.068	92.19
658.272	87.19
658.476	84.19
658.68	87.19
658.883	100.19
659.087	82.19
659.291	90.19
659.494	88.19
659.698	109.19
659.901	80.19
660.105	78.19
660.309	86.19
660.512	72.19
660.716	86.19
660.919	88.19
661.123	77.19
661.326	85.19
661.53	77.19
661.733	81.19
661.936	76.19
662.14	87.19
662.343	74.19
662.546	79.19
662.75	82.19
662.953	101.19
663.156	76.19
663.36	88.19
663.563	81.19
663.766	76.19
663.969	77.19
664.173	75.19
664.376	83.19
664.579	78.19
664.782	83.19
664.985	81.19
665.188	88.19
665.391	79.19
665.594	65.19
665.797	87.19
666	90.19
666.203	73.19
666.406	84.19
666.609	78.19
666.812	70.19
667.015	67.19
667.218	81.19
667.421	73.19
667.624	71.19
667.827	78.19
668.03	89.19
668.232	80.19
668.435	82.19
668.638	75.19
668.841	94.19
669.043	83.19
669.246	77.19
669.449	81.19
669.651	70.19
669.854	82.19
670.057	80.19
670.259	74.19
670.462	83.19
670.665	85.19
670.867	83.19
671.07	76.19
671.272	86.19
671.475	93.19
671.677	82.19
671.88	88.19
672.082	89.19
672.284	81.19
672.487	84.19
672.689	89.19
672.892	68.19
