Data from NickelSpatula_HRD10591_16-34-31-126.txt Node
Date: Mon Jul 22 16:34:31 EDT 2019
User: cochatt
Spectrometer: HR+D1059
Trigger mode: 1
Integration Time (sec): 1.000000E-1
Scans to average: 1
Electric dark correction enabled: true
Nonlinearity correction enabled: false
Boxcar width: 0
XAxis mode: Wavelengths
Number of Pixels in Spectrum: 2048
>>>>>Begin Spectral Data<<<<<
223.165	-24.81
223.4	-24.81
223.635	-24.81
223.869	-12.81
224.104	-4.81
224.338	-16.81
224.573	-6.81
224.808	-18.81
225.042	-14.81
225.277	-6.81
225.511	12.19
225.746	3.19
225.98	13.19
226.215	9.19
226.449	6.19
226.683	20.19
226.918	22.19
227.152	20.19
227.387	30.19
227.621	56.19
227.856	38.19
228.09	39.19
228.324	49.19
228.559	69.19
228.793	53.19
229.027	68.19
229.262	67.19
229.496	92.19
229.73	79.19
229.964	83.19
230.199	91.19
230.433	102.19
230.667	88.19
230.901	88.19
231.136	98.19
231.37	96.19
231.604	105.19
231.838	93.19
232.072	94.19
232.306	112.19
232.541	93.19
232.775	109.19
233.009	113.19
233.243	93.19
233.477	108.19
233.711	111.19
233.945	106.19
234.179	101.19
234.413	125.19
234.647	127.19
234.881	127.19
235.115	124.19
235.349	115.19
235.583	129.19
235.817	118.19
236.051	111.19
236.285	107.19
236.519	137.19
236.753	135.19
236.987	134.19
237.221	128.19
237.455	133.19
237.689	121.19
237.922	135.19
238.156	136.19
238.39	163.19
238.624	177.19
238.858	163.19
239.091	147.19
239.325	137.19
239.559	152.19
239.793	132.19
240.027	175.19
240.26	164.19
240.494	147.19
240.728	152.19
240.961	168.19
241.195	173.19
241.429	162.19
241.662	154.19
241.896	142.19
242.13	134.19
242.363	139.19
242.597	136.19
242.83	151.19
243.064	160.19
243.298	147.19
243.531	141.19
243.765	155.19
243.998	151.19
244.232	157.19
244.465	146.19
244.699	154.19
244.932	186.19
245.166	153.19
245.399	156.19
245.633	135.19
245.866	146.19
246.099	138.19
246.333	165.19
246.566	190.19
246.8	177.19
247.033	184.19
247.266	179.19
247.5	159.19
247.733	168.19
247.966	157.19
248.2	161.19
248.433	192.19
248.666	189.19
248.899	201.19
249.133	193.19
249.366	197.19
249.599	207.19
249.832	228.19
250.066	209.19
250.299	193.19
250.532	195.19
250.765	183.19
250.998	169.19
251.231	185.19
251.465	177.19
251.698	188.19
251.931	189.19
252.164	181.19
252.397	210.19
252.63	233.19
252.863	246.19
253.096	271.19
253.329	251.19
253.562	237.19
253.795	268.19
254.028	289.19
254.261	293.19
254.494	279.19
254.727	262.19
254.96	237.19
255.193	261.19
255.426	242.19
255.659	207.19
255.892	202.19
256.124	200.19
256.357	205.19
256.59	266.19
256.823	268.19
257.056	214.19
257.289	213.19
257.521	213.19
257.754	260.19
257.987	287.19
258.22	239.19
258.452	235.19
258.685	232.19
258.918	265.19
259.151	266.19
259.383	279.19
259.616	298.19
259.849	337.19
260.081	344.19
260.314	369.19
260.547	303.19
260.779	298.19
261.012	365.19
261.244	319.19
261.477	351.19
261.71	303.19
261.942	276.19
262.175	259.19
262.407	284.19
262.64	270.19
262.872	327.19
263.105	343.19
263.337	356.19
263.57	339.19
263.802	233.19
264.035	205.19
264.267	207.19
264.499	180.19
264.732	172.19
264.964	167.19
265.197	171.19
265.429	195.19
265.661	197.19
265.894	202.19
266.126	206.19
266.358	230.19
266.591	273.19
266.823	323.19
267.055	300.19
267.287	280.19
267.52	274.19
267.752	290.19
267.984	300.19
268.216	310.19
268.448	246.19
268.681	256.19
268.913	259.19
269.145	282.19
269.377	284.19
269.609	268.19
269.841	268.19
270.073	294.19
270.306	282.19
270.538	325.19
270.77	305.19
271.002	305.19
271.234	307.19
271.466	321.19
271.698	315.19
271.93	311.19
272.162	278.19
272.394	313.19
272.626	289.19
272.858	293.19
273.09	309.19
273.322	289.19
273.553	264.19
273.785	312.19
274.017	367.19
274.249	460.19
274.481	468.19
274.713	475.19
274.945	551.19
275.176	611.19
275.408	540.19
275.64	515.19
275.872	513.19
276.104	424.19
276.335	380.19
276.567	369.19
276.799	397.19
277.031	401.19
277.262	342.19
277.494	265.19
277.726	248.19
277.957	268.19
278.189	292.19
278.421	290.19
278.652	276.19
278.884	258.19
279.115	263.19
279.347	256.19
279.579	265.19
279.81	264.19
280.042	278.19
280.273	264.19
280.505	242.19
280.736	241.19
280.968	220.19
281.199	241.19
281.431	269.19
281.662	258.19
281.894	259.19
282.125	265.19
282.356	284.19
282.588	305.19
282.819	270.19
283.051	290.19
283.282	340.19
283.513	377.19
283.745	416.19
283.976	411.19
284.207	375.19
284.439	397.19
284.67	392.19
284.901	375.19
285.132	363.19
285.364	405.19
285.595	364.19
285.826	384.19
286.057	402.19
286.288	391.19
286.52	399.19
286.751	397.19
286.982	398.19
287.213	367.19
287.444	371.19
287.675	357.19
287.906	378.19
288.138	343.19
288.369	285.19
288.6	268.19
288.831	273.19
289.062	342.19
289.293	357.19
289.524	321.19
289.755	321.19
289.986	343.19
290.217	304.19
290.448	244.19
290.679	213.19
290.91	216.19
291.141	224.19
291.371	221.19
291.602	210.19
291.833	220.19
292.064	226.19
292.295	253.19
292.526	297.19
292.757	299.19
292.987	319.19
293.218	348.19
293.449	319.19
293.68	357.19
293.91	323.19
294.141	344.19
294.372	331.19
294.603	290.19
294.833	314.19
295.064	368.19
295.295	365.19
295.525	291.19
295.756	245.19
295.987	221.19
296.217	218.19
296.448	223.19
296.679	229.19
296.909	254.19
297.14	271.19
297.37	277.19
297.601	293.19
297.831	240.19
298.062	249.19
298.292	308.19
298.523	298.19
298.753	336.19
298.984	321.19
299.214	281.19
299.445	247.19
299.675	226.19
299.905	216.19
300.136	226.19
300.366	261.19
300.597	247.19
300.827	223.19
301.057	233.19
301.288	238.19
301.518	242.19
301.748	274.19
301.979	270.19
302.209	297.19
302.439	280.19
302.669	276.19
302.9	255.19
303.13	271.19
303.36	246.19
303.59	242.19
303.82	236.19
304.051	263.19
304.281	270.19
304.511	289.19
304.741	246.19
304.971	265.19
305.201	274.19
305.431	273.19
305.661	234.19
305.891	235.19
306.121	245.19
306.352	209.19
306.582	202.19
306.812	177.19
307.042	179.19
307.272	196.19
307.502	191.19
307.731	197.19
307.961	192.19
308.191	196.19
308.421	207.19
308.651	195.19
308.881	183.19
309.111	179.19
309.341	183.19
309.571	210.19
309.8	203.19
310.03	217.19
310.26	205.19
310.49	214.19
310.72	200.19
310.949	211.19
311.179	194.19
311.409	194.19
311.639	239.19
311.868	263.19
312.098	339.19
312.328	361.19
312.557	336.19
312.787	360.19
313.017	322.19
313.246	344.19
313.476	391.19
313.706	317.19
313.935	265.19
314.165	222.19
314.394	218.19
314.624	220.19
314.853	220.19
315.083	223.19
315.312	210.19
315.542	202.19
315.771	188.19
316.001	192.19
316.23	211.19
316.46	184.19
316.689	187.19
316.919	195.19
317.148	210.19
317.377	196.19
317.607	199.19
317.836	197.19
318.065	213.19
318.295	259.19
318.524	251.19
318.753	201.19
318.983	207.19
319.212	205.19
319.441	222.19
319.67	224.19
319.9	251.19
320.129	244.19
320.358	214.19
320.587	204.19
320.816	203.19
321.046	241.19
321.275	273.19
321.504	287.19
321.733	253.19
321.962	242.19
322.191	253.19
322.42	230.19
322.649	228.19
322.878	256.19
323.108	251.19
323.337	231.19
323.566	245.19
323.795	222.19
324.024	210.19
324.253	220.19
324.482	204.19
324.71	226.19
324.939	239.19
325.168	236.19
325.397	200.19
325.626	196.19
325.855	210.19
326.084	212.19
326.313	193.19
326.542	191.19
326.77	205.19
326.999	192.19
327.228	216.19
327.457	216.19
327.686	213.19
327.914	212.19
328.143	181.19
328.372	188.19
328.6	191.19
328.829	196.19
329.058	199.19
329.287	186.19
329.515	185.19
329.744	211.19
329.972	183.19
330.201	190.19
330.43	190.19
330.658	203.19
330.887	209.19
331.115	213.19
331.344	208.19
331.572	205.19
331.801	194.19
332.03	177.19
332.258	206.19
332.486	191.19
332.715	210.19
332.943	213.19
333.172	208.19
333.4	215.19
333.629	216.19
333.857	243.19
334.085	229.19
334.314	241.19
334.542	234.19
334.771	219.19
334.999	213.19
335.227	213.19
335.455	212.19
335.684	221.19
335.912	227.19
336.14	264.19
336.369	255.19
336.597	255.19
336.825	248.19
337.053	281.19
337.281	263.19
337.51	228.19
337.738	203.19
337.966	213.19
338.194	246.19
338.422	238.19
338.65	208.19
338.878	193.19
339.106	185.19
339.334	232.19
339.562	230.19
339.79	203.19
340.018	208.19
340.246	211.19
340.474	220.19
340.702	265.19
340.93	264.19
341.158	261.19
341.386	229.19
341.614	228.19
341.842	224.19
342.07	231.19
342.298	232.19
342.526	279.19
342.754	247.19
342.981	215.19
343.209	230.19
343.437	236.19
343.665	240.19
343.893	241.19
344.12	279.19
344.348	294.19
344.576	313.19
344.804	246.19
345.031	212.19
345.259	203.19
345.487	214.19
345.714	209.19
345.942	225.19
346.17	227.19
346.397	220.19
346.625	187.19
346.853	180.19
347.08	194.19
347.308	224.19
347.535	247.19
347.763	230.19
347.99	209.19
348.218	213.19
348.445	206.19
348.673	195.19
348.9	203.19
349.128	220.19
349.355	216.19
349.583	223.19
349.81	206.19
350.037	214.19
350.265	177.19
350.492	173.19
350.72	175.19
350.947	185.19
351.174	196.19
351.402	204.19
351.629	200.19
351.856	223.19
352.083	200.19
352.311	204.19
352.538	234.19
352.765	232.19
352.992	215.19
353.22	212.19
353.447	234.19
353.674	218.19
353.901	210.19
354.128	210.19
354.355	212.19
354.583	197.19
354.81	231.19
355.037	260.19
355.264	228.19
355.491	220.19
355.718	245.19
355.945	243.19
356.172	227.19
356.399	223.19
356.626	274.19
356.853	319.19
357.08	337.19
357.307	375.19
357.534	299.19
357.761	298.19
357.988	339.19
358.215	399.19
358.441	351.19
358.668	324.19
358.895	322.19
359.122	272.19
359.349	241.19
359.576	269.19
359.802	229.19
360.029	196.19
360.256	221.19
360.483	255.19
360.709	315.19
360.936	340.19
361.163	264.19
361.39	255.19
361.616	207.19
361.843	235.19
362.07	288.19
362.296	275.19
362.523	228.19
362.749	204.19
362.976	205.19
363.203	230.19
363.429	259.19
363.656	224.19
363.882	230.19
364.109	214.19
364.335	206.19
364.562	200.19
364.788	227.19
365.015	244.19
365.241	249.19
365.468	193.19
365.694	175.19
365.92	178.19
366.147	169.19
366.373	155.19
366.599	181.19
366.826	187.19
367.052	175.19
367.278	171.19
367.505	179.19
367.731	186.19
367.957	203.19
368.184	221.19
368.41	207.19
368.636	214.19
368.862	218.19
369.089	211.19
369.315	217.19
369.541	195.19
369.767	197.19
369.993	198.19
370.219	192.19
370.445	193.19
370.672	211.19
370.898	226.19
371.124	223.19
371.35	208.19
371.576	177.19
371.802	205.19
372.028	233.19
372.254	243.19
372.48	249.19
372.706	210.19
372.932	243.19
373.158	216.19
373.384	267.19
373.61	324.19
373.835	347.19
374.061	257.19
374.287	234.19
374.513	257.19
374.739	311.19
374.965	316.19
375.191	314.19
375.416	225.19
375.642	201.19
375.868	247.19
376.094	277.19
376.319	233.19
376.545	245.19
376.771	252.19
376.997	239.19
377.222	192.19
377.448	165.19
377.674	172.19
377.899	181.19
378.125	175.19
378.35	163.19
378.576	172.19
378.802	186.19
379.027	203.19
379.253	208.19
379.478	203.19
379.704	220.19
379.929	233.19
380.155	214.19
380.38	196.19
380.606	222.19
380.831	214.19
381.057	224.19
381.282	214.19
381.507	233.19
381.733	271.19
381.958	301.19
382.184	310.19
382.409	327.19
382.634	316.19
382.86	338.19
383.085	277.19
383.31	243.19
383.535	261.19
383.761	275.19
383.986	223.19
384.211	279.19
384.436	278.19
384.662	214.19
384.887	215.19
385.112	220.19
385.337	228.19
385.562	214.19
385.787	238.19
386.013	252.19
386.238	240.19
386.463	226.19
386.688	229.19
386.913	209.19
387.138	194.19
387.363	203.19
387.588	225.19
387.813	222.19
388.038	226.19
388.263	206.19
388.488	202.19
388.713	235.19
388.938	250.19
389.163	211.19
389.387	189.19
389.612	195.19
389.837	198.19
390.062	218.19
390.287	213.19
390.512	214.19
390.736	186.19
390.961	202.19
391.186	171.19
391.411	169.19
391.636	201.19
391.86	219.19
392.085	218.19
392.31	224.19
392.534	208.19
392.759	216.19
392.984	228.19
393.208	221.19
393.433	193.19
393.658	184.19
393.882	188.19
394.107	182.19
394.331	184.19
394.556	172.19
394.78	171.19
395.005	182.19
395.229	186.19
395.454	177.19
395.678	186.19
395.903	208.19
396.127	203.19
396.352	187.19
396.576	210.19
396.801	231.19
397.025	225.19
397.249	259.19
397.474	207.19
397.698	191.19
397.922	212.19
398.147	209.19
398.371	205.19
398.595	210.19
398.82	215.19
399.044	203.19
399.268	226.19
399.492	230.19
399.717	227.19
399.941	246.19
400.165	242.19
400.389	219.19
400.613	214.19
400.837	214.19
401.062	199.19
401.286	177.19
401.51	182.19
401.734	201.19
401.958	202.19
402.182	209.19
402.406	206.19
402.63	208.19
402.854	220.19
403.078	240.19
403.302	305.19
403.526	314.19
403.75	289.19
403.974	234.19
404.198	243.19
404.422	273.19
404.645	279.19
404.869	333.19
405.093	270.19
405.317	215.19
405.541	201.19
405.765	199.19
405.988	212.19
406.212	248.19
406.436	236.19
406.66	293.19
406.883	237.19
407.107	239.19
407.331	301.19
407.555	274.19
407.778	239.19
408.002	243.19
408.226	244.19
408.449	224.19
408.673	213.19
408.896	207.19
409.12	199.19
409.344	204.19
409.567	203.19
409.791	203.19
410.014	199.19
410.238	220.19
410.461	221.19
410.685	205.19
410.908	203.19
411.132	198.19
411.355	183.19
411.578	188.19
411.802	200.19
412.025	216.19
412.249	228.19
412.472	209.19
412.695	206.19
412.919	203.19
413.142	214.19
413.365	211.19
413.589	220.19
413.812	197.19
414.035	212.19
414.258	213.19
414.482	231.19
414.705	234.19
414.928	196.19
415.151	193.19
415.374	204.19
415.597	207.19
415.821	201.19
416.044	203.19
416.267	191.19
416.49	185.19
416.713	200.19
416.936	189.19
417.159	185.19
417.382	195.19
417.605	206.19
417.828	204.19
418.051	206.19
418.274	189.19
418.497	198.19
418.72	203.19
418.943	212.19
419.166	236.19
419.389	217.19
419.611	213.19
419.834	233.19
420.057	240.19
420.28	234.19
420.503	209.19
420.726	200.19
420.948	202.19
421.171	215.19
421.394	203.19
421.617	211.19
421.839	192.19
422.062	201.19
422.285	192.19
422.507	201.19
422.73	198.19
422.953	209.19
423.175	199.19
423.398	204.19
423.621	234.19
423.843	236.19
424.066	208.19
424.288	196.19
424.511	201.19
424.733	201.19
424.956	200.19
425.178	220.19
425.401	265.19
425.623	321.19
425.846	276.19
426.068	224.19
426.291	236.19
426.513	217.19
426.735	200.19
426.958	202.19
427.18	240.19
427.402	290.19
427.625	301.19
427.847	259.19
428.069	195.19
428.292	209.19
428.514	202.19
428.736	197.19
428.958	199.19
429.181	249.19
429.403	212.19
429.625	209.19
429.847	191.19
430.069	206.19
430.292	197.19
430.514	191.19
430.736	183.19
430.958	250.19
431.18	220.19
431.402	181.19
431.624	188.19
431.846	181.19
432.068	185.19
432.29	186.19
432.512	209.19
432.734	249.19
432.956	241.19
433.178	192.19
433.4	174.19
433.622	203.19
433.844	180.19
434.066	214.19
434.287	209.19
434.509	202.19
434.731	214.19
434.953	193.19
435.175	199.19
435.397	232.19
435.618	209.19
435.84	170.19
436.062	165.19
436.284	189.19
436.505	186.19
436.727	171.19
436.949	182.19
437.17	180.19
437.392	191.19
437.614	183.19
437.835	172.19
438.057	180.19
438.278	195.19
438.5	261.19
438.721	308.19
438.943	192.19
439.165	183.19
439.386	170.19
439.608	167.19
439.829	162.19
440.05	185.19
440.272	192.19
440.493	204.19
440.715	263.19
440.936	211.19
441.158	199.19
441.379	202.19
441.6	227.19
441.822	210.19
442.043	192.19
442.264	187.19
442.486	184.19
442.707	192.19
442.928	187.19
443.149	187.19
443.371	188.19
443.592	188.19
443.813	197.19
444.034	187.19
444.255	196.19
444.476	204.19
444.698	204.19
444.919	212.19
445.14	308.19
445.361	260.19
445.582	233.19
445.803	210.19
446.024	211.19
446.245	200.19
446.466	221.19
446.687	203.19
446.908	201.19
447.129	189.19
447.35	191.19
447.571	177.19
447.792	181.19
448.013	168.19
448.234	177.19
448.455	170.19
448.675	173.19
448.896	173.19
449.117	192.19
449.338	183.19
449.559	194.19
449.779	196.19
450	190.19
450.221	177.19
450.442	196.19
450.662	172.19
450.883	156.19
451.104	195.19
451.324	171.19
451.545	180.19
451.766	185.19
451.986	181.19
452.207	182.19
452.428	159.19
452.648	185.19
452.869	187.19
453.089	202.19
453.31	188.19
453.53	153.19
453.751	171.19
453.971	162.19
454.192	167.19
454.412	184.19
454.633	185.19
454.853	177.19
455.073	159.19
455.294	163.19
455.514	184.19
455.734	179.19
455.955	167.19
456.175	191.19
456.395	159.19
456.616	164.19
456.836	164.19
457.056	168.19
457.276	165.19
457.497	171.19
457.717	163.19
457.937	162.19
458.157	158.19
458.377	177.19
458.598	175.19
458.818	165.19
459.038	173.19
459.258	187.19
459.478	204.19
459.698	207.19
459.918	199.19
460.138	188.19
460.358	206.19
460.578	207.19
460.798	199.19
461.018	191.19
461.238	203.19
461.458	191.19
461.678	211.19
461.898	206.19
462.118	204.19
462.338	210.19
462.558	215.19
462.777	217.19
462.997	225.19
463.217	211.19
463.437	211.19
463.657	215.19
463.876	209.19
464.096	229.19
464.316	203.19
464.536	213.19
464.755	240.19
464.975	245.19
465.195	216.19
465.414	239.19
465.634	209.19
465.854	212.19
466.073	187.19
466.293	198.19
466.512	196.19
466.732	223.19
466.951	217.19
467.171	192.19
467.391	169.19
467.61	191.19
467.829	203.19
468.049	196.19
468.268	184.19
468.488	186.19
468.707	178.19
468.927	231.19
469.146	249.19
469.365	221.19
469.585	199.19
469.804	205.19
470.023	240.19
470.243	205.19
470.462	202.19
470.681	199.19
470.901	205.19
471.12	219.19
471.339	184.19
471.558	205.19
471.777	187.19
471.997	202.19
472.216	240.19
472.435	225.19
472.654	205.19
472.873	206.19
473.092	209.19
473.311	218.19
473.53	186.19
473.749	188.19
473.968	218.19
474.187	223.19
474.406	203.19
474.625	194.19
474.844	192.19
475.063	199.19
475.282	216.19
475.501	240.19
475.72	269.19
475.939	236.19
476.158	231.19
476.377	261.19
476.596	305.19
476.814	300.19
477.033	265.19
477.252	220.19
477.471	193.19
477.69	205.19
477.908	221.19
478.127	230.19
478.346	233.19
478.564	260.19
478.783	252.19
479.002	226.19
479.22	259.19
479.439	267.19
479.658	248.19
479.876	240.19
480.095	248.19
480.313	256.19
480.532	223.19
480.751	227.19
480.969	230.19
481.188	227.19
481.406	260.19
481.624	239.19
481.843	235.19
482.061	216.19
482.28	243.19
482.498	319.19
482.717	292.19
482.935	246.19
483.153	248.19
483.372	222.19
483.59	207.19
483.808	205.19
484.027	217.19
484.245	208.19
484.463	195.19
484.681	207.19
484.9	228.19
485.118	246.19
485.336	226.19
485.554	218.19
485.772	224.19
485.99	236.19
486.209	255.19
486.427	257.19
486.645	231.19
486.863	257.19
487.081	255.19
487.299	265.19
487.517	279.19
487.735	223.19
487.953	245.19
488.171	261.19
488.389	233.19
488.607	217.19
488.825	244.19
489.043	253.19
489.261	288.19
489.479	320.19
489.696	244.19
489.914	214.19
490.132	210.19
490.35	212.19
490.568	236.19
490.786	234.19
491.003	221.19
491.221	233.19
491.439	219.19
491.657	221.19
491.874	256.19
492.092	305.19
492.31	358.19
492.527	312.19
492.745	281.19
492.963	252.19
493.18	247.19
493.398	275.19
493.615	251.19
493.833	246.19
494.05	235.19
494.268	252.19
494.485	255.19
494.703	248.19
494.92	225.19
495.138	225.19
495.355	243.19
495.573	230.19
495.79	263.19
496.008	364.19
496.225	303.19
496.442	248.19
496.66	279.19
496.877	269.19
497.094	269.19
497.312	256.19
497.529	248.19
497.746	251.19
497.963	264.19
498.181	291.19
498.398	303.19
498.615	313.19
498.832	332.19
499.049	328.19
499.267	300.19
499.484	319.19
499.701	329.19
499.918	373.19
500.135	413.19
500.352	379.19
500.569	408.19
500.786	418.19
501.003	421.19
501.22	395.19
501.437	361.19
501.654	310.19
501.871	315.19
502.088	338.19
502.305	283.19
502.522	295.19
502.739	290.19
502.956	291.19
503.172	271.19
503.389	273.19
503.606	254.19
503.823	259.19
504.04	261.19
504.256	246.19
504.473	257.19
504.69	290.19
504.907	277.19
505.123	268.19
505.34	283.19
505.557	284.19
505.773	264.19
505.99	229.19
506.207	244.19
506.423	239.19
506.64	205.19
506.856	247.19
507.073	273.19
507.289	273.19
507.506	262.19
507.722	291.19
507.939	291.19
508.155	299.19
508.372	254.19
508.588	243.19
508.805	238.19
509.021	232.19
509.238	257.19
509.454	236.19
509.67	228.19
509.887	232.19
510.103	264.19
510.319	266.19
510.536	243.19
510.752	220.19
510.968	205.19
511.184	198.19
511.401	219.19
511.617	209.19
511.833	213.19
512.049	213.19
512.265	205.19
512.481	221.19
512.698	242.19
512.914	281.19
513.13	246.19
513.346	213.19
513.562	228.19
513.778	234.19
513.994	240.19
514.21	252.19
514.426	245.19
514.642	229.19
514.858	219.19
515.074	237.19
515.29	270.19
515.506	269.19
515.721	240.19
515.937	250.19
516.153	235.19
516.369	241.19
516.585	248.19
516.801	275.19
517.016	321.19
517.232	300.19
517.448	319.19
517.664	262.19
517.879	259.19
518.095	268.19
518.311	274.19
518.527	287.19
518.742	265.19
518.958	297.19
519.173	305.19
519.389	269.19
519.605	282.19
519.82	285.19
520.036	337.19
520.251	329.19
520.467	323.19
520.682	502.19
520.898	647.19
521.113	603.19
521.329	371.19
521.544	300.19
521.76	293.19
521.975	249.19
522.19	267.19
522.406	246.19
522.621	282.19
522.836	308.19
523.052	315.19
523.267	234.19
523.482	270.19
523.698	282.19
523.913	236.19
524.128	249.19
524.343	220.19
524.559	237.19
524.774	236.19
524.989	235.19
525.204	228.19
525.419	268.19
525.634	241.19
525.849	241.19
526.064	251.19
526.28	262.19
526.495	291.19
526.71	323.19
526.925	284.19
527.14	303.19
527.355	279.19
527.57	232.19
527.785	260.19
527.999	227.19
528.214	226.19
528.429	220.19
528.644	213.19
528.859	202.19
529.074	184.19
529.289	213.19
529.503	200.19
529.718	229.19
529.933	276.19
530.148	303.19
530.363	215.19
530.577	209.19
530.792	203.19
531.007	228.19
531.221	208.19
531.436	211.19
531.651	215.19
531.865	215.19
532.08	231.19
532.295	202.19
532.509	210.19
532.724	240.19
532.938	276.19
533.153	349.19
533.367	247.19
533.582	247.19
533.796	235.19
534.011	222.19
534.225	219.19
534.44	247.19
534.654	231.19
534.868	293.19
535.083	273.19
535.297	242.19
535.511	223.19
535.726	235.19
535.94	226.19
536.154	196.19
536.369	210.19
536.583	218.19
536.797	212.19
537.011	227.19
537.225	236.19
537.44	279.19
537.654	237.19
537.868	208.19
538.082	203.19
538.296	223.19
538.51	240.19
538.724	236.19
538.938	221.19
539.153	199.19
539.367	204.19
539.581	209.19
539.795	223.19
540.009	234.19
540.222	216.19
540.436	212.19
540.65	227.19
540.864	261.19
541.078	265.19
541.292	331.19
541.506	244.19
541.72	227.19
541.934	211.19
542.147	208.19
542.361	224.19
542.575	222.19
542.789	213.19
543.002	210.19
543.216	230.19
543.43	199.19
543.644	224.19
543.857	209.19
544.071	201.19
544.285	218.19
544.498	191.19
544.712	204.19
544.925	230.19
545.139	194.19
545.352	188.19
545.566	198.19
545.779	225.19
545.993	215.19
546.206	192.19
546.42	199.19
546.633	204.19
546.847	186.19
547.06	184.19
547.274	187.19
547.487	188.19
547.7	199.19
547.914	212.19
548.127	227.19
548.34	227.19
548.554	206.19
548.767	205.19
548.98	241.19
549.193	220.19
549.407	220.19
549.62	230.19
549.833	231.19
550.046	242.19
550.259	243.19
550.473	229.19
550.686	211.19
550.899	204.19
551.112	211.19
551.325	216.19
551.538	242.19
551.751	189.19
551.964	197.19
552.177	213.19
552.39	195.19
552.603	208.19
552.816	205.19
553.029	205.19
553.242	202.19
553.455	211.19
553.667	220.19
553.88	219.19
554.093	194.19
554.306	195.19
554.519	184.19
554.732	188.19
554.944	161.19
555.157	178.19
555.37	184.19
555.583	164.19
555.795	165.19
556.008	183.19
556.221	175.19
556.433	189.19
556.646	184.19
556.859	175.19
557.071	183.19
557.284	197.19
557.496	184.19
557.709	187.19
557.921	188.19
558.134	170.19
558.346	167.19
558.559	177.19
558.771	163.19
558.984	184.19
559.196	179.19
559.409	181.19
559.621	185.19
559.833	161.19
560.046	171.19
560.258	169.19
560.47	180.19
560.683	156.19
560.895	151.19
561.107	157.19
561.32	147.19
561.532	162.19
561.744	172.19
561.956	182.19
562.168	178.19
562.381	179.19
562.593	168.19
562.805	171.19
563.017	191.19
563.229	175.19
563.441	155.19
563.653	156.19
563.865	165.19
564.077	177.19
564.289	170.19
564.501	183.19
564.713	169.19
564.925	177.19
565.137	170.19
565.349	172.19
565.561	176.19
565.773	193.19
565.985	199.19
566.197	185.19
566.408	187.19
566.62	200.19
566.832	201.19
567.044	198.19
567.255	193.19
567.467	228.19
567.679	215.19
567.891	212.19
568.102	229.19
568.314	209.19
568.526	211.19
568.737	199.19
568.949	191.19
569.161	189.19
569.372	166.19
569.584	178.19
569.795	184.19
570.007	181.19
570.218	182.19
570.43	168.19
570.641	163.19
570.853	160.19
571.064	173.19
571.276	178.19
571.487	175.19
571.698	165.19
571.91	178.19
572.121	162.19
572.333	173.19
572.544	168.19
572.755	156.19
572.966	153.19
573.178	158.19
573.389	163.19
573.6	168.19
573.811	169.19
574.023	159.19
574.234	152.19
574.445	161.19
574.656	151.19
574.867	151.19
575.078	157.19
575.289	158.19
575.501	163.19
575.712	163.19
575.923	138.19
576.134	137.19
576.345	154.19
576.556	142.19
576.767	141.19
576.978	151.19
577.188	135.19
577.399	125.19
577.61	145.19
577.821	137.19
578.032	149.19
578.243	156.19
578.454	159.19
578.665	155.19
578.875	154.19
579.086	149.19
579.297	166.19
579.508	170.19
579.718	147.19
579.929	145.19
580.14	137.19
580.35	147.19
580.561	139.19
580.772	150.19
580.982	130.19
581.193	144.19
581.403	147.19
581.614	145.19
581.825	131.19
582.035	121.19
582.246	127.19
582.456	145.19
582.667	137.19
582.877	134.19
583.087	133.19
583.298	124.19
583.508	136.19
583.719	138.19
583.929	137.19
584.139	120.19
584.35	134.19
584.56	156.19
584.77	123.19
584.981	131.19
585.191	147.19
585.401	142.19
585.611	133.19
585.821	134.19
586.032	130.19
586.242	141.19
586.452	131.19
586.662	128.19
586.872	133.19
587.082	144.19
587.292	150.19
587.502	132.19
587.713	133.19
587.923	144.19
588.133	161.19
588.343	143.19
588.553	142.19
588.762	136.19
588.972	143.19
589.182	139.19
589.392	123.19
589.602	141.19
589.812	140.19
590.022	141.19
590.232	153.19
590.441	131.19
590.651	135.19
590.861	138.19
591.071	135.19
591.281	121.19
591.49	139.19
591.7	142.19
591.91	119.19
592.119	136.19
592.329	129.19
592.539	128.19
592.748	153.19
592.958	137.19
593.167	139.19
593.377	130.19
593.587	151.19
593.796	141.19
594.006	137.19
594.215	138.19
594.424	141.19
594.634	145.19
594.843	131.19
595.053	136.19
595.262	131.19
595.472	124.19
595.681	123.19
595.89	139.19
596.1	147.19
596.309	149.19
596.518	130.19
596.727	135.19
596.937	127.19
597.146	117.19
597.355	124.19
597.564	136.19
597.774	120.19
597.983	136.19
598.192	134.19
598.401	130.19
598.61	116.19
598.819	127.19
599.028	116.19
599.237	139.19
599.446	121.19
599.655	119.19
599.864	123.19
600.073	114.19
600.282	116.19
600.491	119.19
600.7	114.19
600.909	131.19
601.118	127.19
601.327	134.19
601.536	115.19
601.745	136.19
601.953	124.19
602.162	119.19
602.371	128.19
602.58	127.19
602.789	116.19
602.997	127.19
603.206	129.19
603.415	127.19
603.623	121.19
603.832	119.19
604.041	106.19
604.249	118.19
604.458	111.19
604.666	127.19
604.875	122.19
605.084	125.19
605.292	118.19
605.501	131.19
605.709	115.19
605.918	110.19
606.126	124.19
606.334	112.19
606.543	120.19
606.751	115.19
606.96	105.19
607.168	119.19
607.376	105.19
607.585	123.19
607.793	122.19
608.001	124.19
608.21	120.19
608.418	115.19
608.626	125.19
608.834	127.19
609.043	115.19
609.251	118.19
609.459	120.19
609.667	133.19
609.875	118.19
610.083	109.19
610.291	119.19
610.499	119.19
610.707	113.19
610.916	131.19
611.124	113.19
611.332	121.19
611.54	112.19
611.748	131.19
611.955	129.19
612.163	100.19
612.371	125.19
612.579	118.19
612.787	97.19
612.995	113.19
613.203	106.19
613.411	108.19
613.618	119.19
613.826	117.19
614.034	133.19
614.242	112.19
614.449	120.19
614.657	120.19
614.865	114.19
615.072	112.19
615.28	108.19
615.488	115.19
615.695	113.19
615.903	117.19
616.111	117.19
616.318	111.19
616.526	116.19
616.733	124.19
616.941	114.19
617.148	104.19
617.356	119.19
617.563	123.19
617.771	112.19
617.978	122.19
618.185	122.19
618.393	127.19
618.6	115.19
618.807	124.19
619.015	107.19
619.222	120.19
619.429	104.19
619.637	100.19
619.844	109.19
620.051	94.19
620.258	112.19
620.466	113.19
620.673	106.19
620.88	86.19
621.087	108.19
621.294	94.19
621.501	117.19
621.708	117.19
621.915	105.19
622.122	116.19
622.329	111.19
622.536	119.19
622.743	98.19
622.95	122.19
623.157	108.19
623.364	123.19
623.571	111.19
623.778	118.19
623.985	102.19
624.192	102.19
624.399	97.19
624.606	100.19
624.812	106.19
625.019	114.19
625.226	113.19
625.433	111.19
625.639	106.19
625.846	115.19
626.053	104.19
626.259	117.19
626.466	129.19
626.673	115.19
626.879	109.19
627.086	104.19
627.293	108.19
627.499	123.19
627.706	121.19
627.912	112.19
628.119	100.19
628.325	91.19
628.532	123.19
628.738	125.19
628.945	103.19
629.151	117.19
629.357	108.19
629.564	108.19
629.77	110.19
629.976	117.19
630.183	102.19
630.389	92.19
630.595	111.19
630.802	106.19
631.008	111.19
631.214	95.19
631.42	93.19
631.627	108.19
631.833	119.19
632.039	105.19
632.245	103.19
632.451	99.19
632.657	96.19
632.863	95.19
633.069	91.19
633.275	108.19
633.481	104.19
633.688	100.19
633.893	101.19
634.099	102.19
634.305	96.19
634.511	89.19
634.717	91.19
634.923	96.19
635.129	106.19
635.335	105.19
635.541	103.19
635.747	101.19
635.952	100.19
636.158	82.19
636.364	98.19
636.57	108.19
636.775	113.19
636.981	96.19
637.187	93.19
637.392	99.19
637.598	106.19
637.804	94.19
638.009	100.19
638.215	93.19
638.421	106.19
638.626	104.19
638.832	106.19
639.037	105.19
639.243	93.19
639.448	80.19
639.654	121.19
639.859	106.19
640.065	101.19
640.27	90.19
640.475	124.19
640.681	97.19
640.886	85.19
641.091	109.19
641.297	109.19
641.502	111.19
641.707	102.19
641.913	107.19
642.118	98.19
642.323	89.19
642.528	98.19
642.733	96.19
642.939	108.19
643.144	111.19
643.349	94.19
643.554	107.19
643.759	108.19
643.964	103.19
644.169	103.19
644.374	97.19
644.579	99.19
644.784	103.19
644.989	89.19
645.194	117.19
645.399	107.19
645.604	104.19
645.809	99.19
646.014	102.19
646.219	94.19
646.423	88.19
646.628	91.19
646.833	101.19
647.038	109.19
647.243	100.19
647.447	99.19
647.652	98.19
647.857	93.19
648.062	86.19
648.266	97.19
648.471	115.19
648.676	95.19
648.88	110.19
649.085	76.19
649.289	98.19
649.494	87.19
649.698	111.19
649.903	104.19
650.107	95.19
650.312	104.19
650.516	90.19
650.721	99.19
650.925	88.19
651.13	109.19
651.334	104.19
651.539	96.19
651.743	96.19
651.947	79.19
652.152	97.19
652.356	87.19
652.56	104.19
652.764	100.19
652.969	89.19
653.173	98.19
653.377	89.19
653.581	85.19
653.785	91.19
653.99	80.19
654.194	84.19
654.398	86.19
654.602	81.19
654.806	76.19
655.01	90.19
655.214	91.19
655.418	85.19
655.622	82.19
655.826	89.19
656.03	87.19
656.234	86.19
656.438	94.19
656.642	90.19
656.846	90.19
657.049	91.19
657.253	92.19
657.457	95.19
657.661	95.19
657.865	88.19
658.068	93.19
658.272	84.19
658.476	97.19
658.68	85.19
658.883	73.19
659.087	73.19
659.291	95.19
659.494	79.19
659.698	83.19
659.901	90.19
660.105	91.19
660.309	78.19
660.512	81.19
660.716	81.19
660.919	84.19
661.123	96.19
661.326	81.19
661.53	94.19
661.733	80.19
661.936	90.19
662.14	63.19
662.343	93.19
662.546	74.19
662.75	76.19
662.953	79.19
663.156	79.19
663.36	89.19
663.563	93.19
663.766	81.19
663.969	100.19
664.173	77.19
664.376	84.19
664.579	87.19
664.782	77.19
664.985	72.19
665.188	82.19
665.391	75.19
665.594	92.19
665.797	91.19
666	91.19
666.203	78.19
666.406	92.19
666.609	75.19
666.812	80.19
667.015	75.19
667.218	87.19
667.421	95.19
667.624	81.19
667.827	83.19
668.03	84.19
668.232	86.19
668.435	91.19
668.638	81.19
668.841	77.19
669.043	89.19
669.246	91.19
669.449	74.19
669.651	95.19
669.854	80.19
670.057	91.19
670.259	76.19
670.462	73.19
670.665	87.19
670.867	75.19
671.07	98.19
671.272	95.19
671.475	87.19
671.677	80.19
671.88	72.19
672.082	74.19
672.284	78.19
672.487	76.19
672.689	88.19
672.892	92.19
