Data from NickelSpatula_HRD10591_16-33-59-125.txt Node
Date: Mon Jul 22 16:33:59 EDT 2019
User: cochatt
Spectrometer: HR+D1059
Trigger mode: 1
Integration Time (sec): 1.000000E-1
Scans to average: 1
Electric dark correction enabled: true
Nonlinearity correction enabled: false
Boxcar width: 0
XAxis mode: Wavelengths
Number of Pixels in Spectrum: 2048
>>>>>Begin Spectral Data<<<<<
223.165	-12
223.4	-12
223.635	-12
223.869	-11
224.104	-23
224.338	-18
224.573	-6
224.808	-22
225.042	-17
225.277	-6
225.511	3
225.746	2
225.98	-4
226.215	2
226.449	22
226.683	34
226.918	26
227.152	30
227.387	38
227.621	23
227.856	39
228.09	49
228.324	55
228.559	65
228.793	54
229.027	79
229.262	79
229.496	79
229.73	89
229.964	78
230.199	80
230.433	87
230.667	96
230.901	98
231.136	92
231.37	94
231.604	102
231.838	88
232.072	104
232.306	109
232.541	104
232.775	106
233.009	111
233.243	111
233.477	106
233.711	106
233.945	119
234.179	112
234.413	123
234.647	126
234.881	143
235.115	144
235.349	124
235.583	129
235.817	126
236.051	134
236.285	122
236.519	128
236.753	134
236.987	135
237.221	145
237.455	130
237.689	127
237.922	136
238.156	140
238.39	155
238.624	174
238.858	169
239.091	143
239.325	138
239.559	140
239.793	144
240.027	176
240.26	162
240.494	146
240.728	153
240.961	168
241.195	176
241.429	164
241.662	162
241.896	154
242.13	136
242.363	136
242.597	135
242.83	162
243.064	166
243.298	159
243.531	169
243.765	176
243.998	149
244.232	165
244.465	158
244.699	161
244.932	187
245.166	181
245.399	156
245.633	161
245.866	166
246.099	170
246.333	188
246.566	201
246.8	177
247.033	193
247.266	176
247.5	179
247.733	174
247.966	181
248.2	177
248.433	184
248.666	196
248.899	205
249.133	206
249.366	231
249.599	242
249.832	238
250.066	208
250.299	205
250.532	203
250.765	207
250.998	188
251.231	174
251.465	196
251.698	214
251.931	206
252.164	204
252.397	224
252.63	236
252.863	255
253.096	266
253.329	274
253.562	273
253.795	290
254.028	316
254.261	322
254.494	276
254.727	275
254.96	267
255.193	279
255.426	266
255.659	214
255.892	212
256.124	218
256.357	246
256.59	282
256.823	276
257.056	238
257.289	229
257.521	233
257.754	283
257.987	304
258.22	258
258.452	239
258.685	264
258.918	291
259.151	299
259.383	312
259.616	336
259.849	346
260.081	349
260.314	367
260.547	326
260.779	330
261.012	388
261.244	356
261.477	354
261.71	338
261.942	282
262.175	281
262.407	280
262.64	293
262.872	345
263.105	362
263.337	353
263.57	339
263.802	246
264.035	222
264.267	217
264.499	206
264.732	190
264.964	176
265.197	175
265.429	210
265.661	210
265.894	223
266.126	236
266.358	239
266.591	292
266.823	347
267.055	327
267.287	286
267.52	316
267.752	315
267.984	348
268.216	329
268.448	287
268.681	275
268.913	279
269.145	289
269.377	316
269.609	303
269.841	300
270.073	308
270.306	342
270.538	336
270.77	326
271.002	340
271.234	363
271.466	352
271.698	345
271.93	326
272.162	326
272.394	322
272.626	306
272.858	310
273.09	327
273.322	314
273.553	273
273.785	316
274.017	399
274.249	494
274.481	507
274.713	535
274.945	583
275.176	598
275.408	582
275.64	543
275.872	523
276.104	473
276.335	408
276.567	404
276.799	429
277.031	452
277.262	384
277.494	288
277.726	274
277.957	299
278.189	326
278.421	346
278.652	336
278.884	336
279.115	290
279.347	288
279.579	272
279.81	286
280.042	291
280.273	304
280.505	266
280.736	249
280.968	233
281.199	259
281.431	276
281.662	274
281.894	275
282.125	279
282.356	306
282.588	323
282.819	304
283.051	294
283.282	363
283.513	411
283.745	457
283.976	455
284.207	415
284.439	448
284.67	422
284.901	368
285.132	412
285.364	446
285.595	412
285.826	426
286.057	433
286.288	415
286.52	429
286.751	447
286.982	450
287.213	402
287.444	378
287.675	411
287.906	402
288.138	343
288.369	318
288.6	308
288.831	282
289.062	347
289.293	384
289.524	360
289.755	344
289.986	370
290.217	321
290.448	268
290.679	232
290.91	233
291.141	216
291.371	232
291.602	243
291.833	242
292.064	261
292.295	269
292.526	316
292.757	328
292.987	362
293.218	344
293.449	353
293.68	395
293.91	362
294.141	368
294.372	348
294.603	318
294.833	354
295.064	401
295.295	398
295.525	314
295.756	263
295.987	243
296.217	241
296.448	239
296.679	249
296.909	286
297.14	279
297.37	324
297.601	309
297.831	266
298.062	254
298.292	306
298.523	335
298.753	373
298.984	361
299.214	293
299.445	253
299.675	217
299.905	242
300.136	256
300.366	260
300.597	260
300.827	214
301.057	239
301.288	246
301.518	248
301.748	268
301.979	295
302.209	306
302.439	329
302.669	286
302.9	293
303.13	264
303.36	267
303.59	244
303.82	258
304.051	268
304.281	308
304.511	288
304.741	287
304.971	263
305.201	279
305.431	271
305.661	239
305.891	239
306.121	241
306.352	220
306.582	193
306.812	195
307.042	197
307.272	210
307.502	192
307.731	199
307.961	217
308.191	199
308.421	193
308.651	199
308.881	193
309.111	198
309.341	190
309.571	211
309.8	196
310.03	223
310.26	218
310.49	227
310.72	198
310.949	181
311.179	187
311.409	215
311.639	224
311.868	305
312.098	376
312.328	408
312.557	370
312.787	404
313.017	340
313.246	378
313.476	420
313.706	356
313.935	280
314.165	253
314.394	225
314.624	218
314.853	234
315.083	233
315.312	244
315.542	228
315.771	205
316.001	191
316.23	196
316.46	200
316.689	196
316.919	199
317.148	198
317.377	199
317.607	209
317.836	201
318.065	236
318.295	263
318.524	239
318.753	240
318.983	206
319.212	206
319.441	229
319.67	239
319.9	268
320.129	253
320.358	220
320.587	208
320.816	229
321.046	267
321.275	316
321.504	276
321.733	279
321.962	250
322.191	249
322.42	248
322.649	235
322.878	275
323.108	275
323.337	252
323.566	238
323.795	245
324.024	231
324.253	199
324.482	202
324.71	211
324.939	244
325.168	242
325.397	197
325.626	190
325.855	188
326.084	213
326.313	204
326.542	200
326.77	203
326.999	188
327.228	220
327.457	214
327.686	210
327.914	208
328.143	182
328.372	187
328.6	184
328.829	213
329.058	205
329.287	204
329.515	201
329.744	197
329.972	189
330.201	193
330.43	185
330.658	204
330.887	236
331.115	220
331.344	225
331.572	219
331.801	202
332.03	182
332.258	191
332.486	194
332.715	215
332.943	198
333.172	207
333.4	199
333.629	227
333.857	244
334.085	247
334.314	234
334.542	227
334.771	213
334.999	202
335.227	209
335.455	202
335.684	224
335.912	246
336.14	282
336.369	277
336.597	266
336.825	284
337.053	325
337.281	269
337.51	212
337.738	209
337.966	234
338.194	251
338.422	254
338.65	205
338.878	198
339.106	187
339.334	223
339.562	232
339.79	229
340.018	211
340.246	212
340.474	252
340.702	254
340.93	274
341.158	278
341.386	228
341.614	219
341.842	226
342.07	231
342.298	265
342.526	286
342.754	250
342.981	235
343.209	239
343.437	234
343.665	234
343.893	270
344.12	304
344.348	353
344.576	319
344.804	254
345.031	212
345.259	211
345.487	237
345.714	224
345.942	246
346.17	256
346.397	251
346.625	218
346.853	215
347.08	201
347.308	218
347.535	240
347.763	238
347.99	219
348.218	196
348.445	204
348.673	209
348.9	190
349.128	218
349.355	229
349.583	219
349.81	217
350.037	220
350.265	196
350.492	199
350.72	178
350.947	195
351.174	196
351.402	198
351.629	236
351.856	207
352.083	206
352.311	226
352.538	216
352.765	237
352.992	222
353.22	225
353.447	228
353.674	211
353.901	209
354.128	224
354.355	224
354.583	238
354.81	218
355.037	229
355.264	232
355.491	234
355.718	262
355.945	254
356.172	239
356.399	208
356.626	270
356.853	325
357.08	360
357.307	361
357.534	309
357.761	306
357.988	343
358.215	406
358.441	393
358.668	364
358.895	339
359.122	264
359.349	254
359.576	291
359.802	251
360.029	218
360.256	227
360.483	254
360.709	331
360.936	333
361.163	311
361.39	232
361.616	223
361.843	256
362.07	287
362.296	293
362.523	228
362.749	198
362.976	199
363.203	254
363.429	280
363.656	232
363.882	208
364.109	228
364.335	225
364.562	196
364.788	231
365.015	273
365.241	241
365.468	210
365.694	192
365.92	181
366.147	164
366.373	186
366.599	174
366.826	184
367.052	185
367.278	171
367.505	176
367.731	183
367.957	233
368.184	216
368.41	203
368.636	211
368.862	222
369.089	208
369.315	186
369.541	203
369.767	196
369.993	191
370.219	192
370.445	202
370.672	214
370.898	217
371.124	226
371.35	201
371.576	204
371.802	205
372.028	226
372.254	262
372.48	243
372.706	225
372.932	250
373.158	230
373.384	264
373.61	330
373.835	366
374.061	280
374.287	240
374.513	277
374.739	318
374.965	334
375.191	346
375.416	255
375.642	212
375.868	242
376.094	281
376.319	229
376.545	243
376.771	260
376.997	250
377.222	183
377.448	175
377.674	169
377.899	188
378.125	169
378.35	160
378.576	168
378.802	178
379.027	208
379.253	197
379.478	199
379.704	213
379.929	231
380.155	240
380.38	231
380.606	224
380.831	243
381.057	234
381.282	228
381.507	256
381.733	276
381.958	301
382.184	311
382.409	347
382.634	332
382.86	366
383.085	306
383.31	240
383.535	264
383.761	272
383.986	257
384.211	274
384.436	285
384.662	224
384.887	227
385.112	228
385.337	211
385.562	228
385.787	241
386.013	253
386.238	250
386.463	231
386.688	210
386.913	222
387.138	199
387.363	219
387.588	210
387.813	210
388.038	233
388.263	219
388.488	199
388.713	254
388.938	259
389.163	213
389.387	195
389.612	199
389.837	206
390.062	218
390.287	212
390.512	231
390.736	188
390.961	185
391.186	180
391.411	189
391.636	180
391.86	216
392.085	198
392.31	228
392.534	190
392.759	204
392.984	215
393.208	207
393.433	199
393.658	180
393.882	165
394.107	164
394.331	185
394.556	181
394.78	169
395.005	187
395.229	183
395.454	200
395.678	177
395.903	192
396.127	183
396.352	193
396.576	213
396.801	204
397.025	244
397.249	260
397.474	203
397.698	193
397.922	205
398.147	204
398.371	202
398.595	227
398.82	218
399.044	209
399.268	226
399.492	232
399.717	215
399.941	222
400.165	219
400.389	209
400.613	216
400.837	235
401.062	223
401.286	197
401.51	186
401.734	178
401.958	183
402.182	200
402.406	200
402.63	184
402.854	202
403.078	243
403.302	294
403.526	318
403.75	276
403.974	244
404.198	202
404.422	261
404.645	287
404.869	314
405.093	235
405.317	194
405.541	215
405.765	222
405.988	227
406.212	224
406.436	256
406.66	299
406.883	213
407.107	238
407.331	242
407.555	282
407.778	224
408.002	224
408.226	226
408.449	246
408.673	211
408.896	196
409.12	197
409.344	190
409.567	194
409.791	194
410.014	199
410.238	204
410.461	180
410.685	206
410.908	178
411.132	202
411.355	200
411.578	203
411.802	200
412.025	224
412.249	205
412.472	202
412.695	208
412.919	202
413.142	198
413.365	233
413.589	235
413.812	202
414.035	189
414.258	186
414.482	243
414.705	246
414.928	207
415.151	190
415.374	191
415.597	187
415.821	215
416.044	185
416.267	193
416.49	196
416.713	186
416.936	171
417.159	174
417.382	203
417.605	208
417.828	207
418.051	195
418.274	206
418.497	196
418.72	200
418.943	210
419.166	211
419.389	219
419.611	216
419.834	219
420.057	238
420.28	243
420.503	213
420.726	207
420.948	185
421.171	182
421.394	193
421.617	183
421.839	177
422.062	193
422.285	186
422.507	198
422.73	221
422.953	215
423.175	212
423.398	209
423.621	243
423.843	220
424.066	208
424.288	194
424.511	188
424.733	180
424.956	195
425.178	238
425.401	250
425.623	274
425.846	245
426.068	230
426.291	226
426.513	237
426.735	210
426.958	199
427.18	216
427.402	312
427.625	322
427.847	252
428.069	192
428.292	206
428.514	192
428.736	191
428.958	200
429.181	248
429.403	225
429.625	194
429.847	195
430.069	201
430.292	198
430.514	183
430.736	202
430.958	223
431.18	223
431.402	176
431.624	179
431.846	175
432.068	176
432.29	191
432.512	179
432.734	239
432.956	239
433.178	188
433.4	189
433.622	174
433.844	179
434.066	226
434.287	205
434.509	193
434.731	213
434.953	195
435.175	196
435.397	246
435.618	191
435.84	190
436.062	190
436.284	193
436.505	183
436.727	170
436.949	176
437.17	175
437.392	197
437.614	204
437.835	166
438.057	200
438.278	199
438.5	282
438.721	280
438.943	190
439.165	184
439.386	181
439.608	178
439.829	176
440.05	186
440.272	183
440.493	196
440.715	252
440.936	217
441.158	198
441.379	191
441.6	236
441.822	206
442.043	185
442.264	184
442.486	176
442.707	199
442.928	206
443.149	194
443.371	178
443.592	214
443.813	200
444.034	183
444.255	187
444.476	191
444.698	188
444.919	196
445.14	348
445.361	265
445.582	217
445.803	203
446.024	210
446.245	227
446.466	212
446.687	204
446.908	183
447.129	185
447.35	182
447.571	183
447.792	176
448.013	172
448.234	165
448.455	180
448.675	182
448.896	184
449.117	185
449.338	180
449.559	183
449.779	183
450	188
450.221	190
450.442	169
450.662	174
450.883	182
451.104	169
451.324	167
451.545	180
451.766	180
451.986	174
452.207	164
452.428	168
452.648	189
452.869	187
453.089	199
453.31	194
453.53	181
453.751	163
453.971	172
454.192	169
454.412	180
454.633	178
454.853	182
455.073	172
455.294	172
455.514	142
455.734	164
455.955	187
456.175	179
456.395	163
456.616	159
456.836	166
457.056	156
457.276	152
457.497	160
457.717	163
457.937	170
458.157	169
458.377	160
458.598	170
458.818	180
459.038	204
459.258	166
459.478	199
459.698	219
459.918	186
460.138	195
460.358	209
460.578	192
460.798	180
461.018	206
461.238	203
461.458	171
461.678	194
461.898	214
462.118	186
462.338	195
462.558	208
462.777	218
462.997	207
463.217	213
463.437	230
463.657	208
463.876	200
464.096	227
464.316	216
464.536	193
464.755	225
464.975	231
465.195	208
465.414	223
465.634	227
465.854	219
466.073	170
466.293	200
466.512	211
466.732	216
466.951	215
467.171	199
467.391	186
467.61	167
467.829	197
468.049	206
468.268	180
468.488	177
468.707	184
468.927	226
469.146	228
469.365	211
469.585	203
469.804	208
470.023	226
470.243	225
470.462	218
470.681	195
470.901	192
471.12	203
471.339	212
471.558	202
471.777	211
471.997	216
472.216	241
472.435	221
472.654	193
472.873	212
473.092	213
473.311	222
473.53	191
473.749	195
473.968	227
474.187	210
474.406	192
474.625	190
474.844	211
475.063	215
475.282	218
475.501	239
475.72	268
475.939	244
476.158	222
476.377	269
476.596	292
476.814	326
477.033	255
477.252	214
477.471	204
477.69	220
477.908	223
478.127	238
478.346	211
478.564	262
478.783	252
479.002	222
479.22	248
479.439	274
479.658	256
479.876	234
480.095	240
480.313	254
480.532	250
480.751	204
480.969	215
481.188	267
481.406	273
481.624	232
481.843	240
482.061	225
482.28	231
482.498	307
482.717	306
482.935	260
483.153	258
483.372	220
483.59	200
483.808	205
484.027	228
484.245	207
484.463	196
484.681	219
484.9	228
485.118	250
485.336	218
485.554	212
485.772	220
485.99	236
486.209	250
486.427	279
486.645	235
486.863	239
487.081	238
487.299	278
487.517	269
487.735	246
487.953	242
488.171	248
488.389	240
488.607	237
488.825	243
489.043	250
489.261	311
489.479	328
489.696	264
489.914	227
490.132	197
490.35	214
490.568	231
490.786	229
491.003	195
491.221	224
491.439	227
491.657	212
491.874	244
492.092	307
492.31	389
492.527	354
492.745	300
492.963	252
493.18	248
493.398	255
493.615	249
493.833	254
494.05	255
494.268	244
494.485	245
494.703	258
494.92	248
495.138	238
495.355	250
495.573	259
495.79	287
496.008	390
496.225	314
496.442	256
496.66	274
496.877	288
497.094	244
497.312	252
497.529	247
497.746	260
497.963	270
498.181	294
498.398	286
498.615	287
498.832	337
499.049	327
499.267	302
499.484	304
499.701	336
499.918	347
500.135	374
500.352	386
500.569	407
500.786	414
501.003	426
501.22	385
501.437	331
501.654	333
501.871	321
502.088	308
502.305	265
502.522	278
502.739	274
502.956	258
503.172	284
503.389	278
503.606	266
503.823	254
504.04	264
504.256	266
504.473	268
504.69	265
504.907	275
505.123	272
505.34	295
505.557	275
505.773	250
505.99	258
506.207	266
506.423	240
506.64	211
506.856	260
507.073	274
507.289	265
507.506	288
507.722	278
507.939	283
508.155	291
508.372	283
508.588	259
508.805	248
509.021	249
509.238	235
509.454	236
509.67	257
509.887	247
510.103	268
510.319	268
510.536	243
510.752	240
510.968	230
511.184	223
511.401	209
511.617	214
511.833	209
512.049	224
512.265	210
512.481	225
512.698	248
512.914	277
513.13	236
513.346	206
513.562	251
513.778	246
513.994	233
514.21	266
514.426	239
514.642	252
514.858	229
515.074	238
515.29	273
515.506	280
515.721	282
515.937	254
516.153	240
516.369	227
516.585	257
516.801	288
517.016	350
517.232	292
517.448	309
517.664	280
517.879	276
518.095	253
518.311	264
518.527	265
518.742	303
518.958	287
519.173	288
519.389	305
519.605	299
519.82	306
520.036	318
520.251	322
520.467	335
520.682	541
520.898	680
521.113	662
521.329	376
521.544	327
521.76	314
521.975	267
522.19	281
522.406	270
522.621	287
522.836	323
523.052	326
523.267	269
523.482	284
523.698	299
523.913	262
524.128	251
524.343	234
524.559	230
524.774	226
524.989	233
525.204	248
525.419	262
525.634	240
525.849	267
526.064	266
526.28	270
526.495	288
526.71	335
526.925	318
527.14	309
527.355	313
527.57	238
527.785	268
527.999	255
528.214	230
528.429	234
528.644	231
528.859	202
529.074	214
529.289	215
529.503	206
529.718	221
529.933	279
530.148	315
530.363	236
530.577	219
530.792	196
531.007	209
531.221	208
531.436	218
531.651	201
531.865	218
532.08	212
532.295	216
532.509	234
532.724	258
532.938	288
533.153	364
533.367	282
533.582	250
533.796	229
534.011	219
534.225	213
534.44	234
534.654	250
534.868	305
535.083	268
535.297	226
535.511	209
535.726	236
535.94	229
536.154	224
536.369	210
536.583	222
536.797	217
537.011	225
537.225	235
537.44	260
537.654	219
537.868	217
538.082	220
538.296	217
538.51	232
538.724	234
538.938	226
539.153	205
539.367	214
539.581	221
539.795	233
540.009	266
540.222	250
540.436	227
540.65	252
540.864	256
541.078	265
541.292	318
541.506	244
541.72	235
541.934	231
542.147	238
542.361	258
542.575	235
542.789	228
543.002	221
543.216	242
543.43	202
543.644	208
543.857	205
544.071	212
544.285	200
544.498	200
544.712	191
544.925	234
545.139	219
545.352	187
545.566	203
545.779	245
545.993	220
546.206	213
546.42	195
546.633	200
546.847	197
547.06	189
547.274	188
547.487	186
547.7	215
547.914	214
548.127	246
548.34	241
548.554	211
548.767	205
548.98	223
549.193	207
549.407	215
549.62	243
549.833	257
550.046	240
550.259	231
550.473	226
550.686	239
550.899	230
551.112	220
551.325	218
551.538	227
551.751	211
551.964	206
552.177	192
552.39	207
552.603	194
552.816	227
553.029	198
553.242	190
553.455	226
553.667	232
553.88	216
554.093	203
554.306	191
554.519	177
554.732	200
554.944	180
555.157	178
555.37	181
555.583	193
555.795	168
556.008	158
556.221	172
556.433	176
556.646	184
556.859	186
557.071	184
557.284	193
557.496	196
557.709	191
557.921	176
558.134	166
558.346	163
558.559	166
558.771	180
558.984	196
559.196	182
559.409	171
559.621	180
559.833	168
560.046	172
560.258	172
560.47	190
560.683	172
560.895	165
561.107	150
561.32	162
561.532	154
561.744	192
561.956	183
562.168	180
562.381	162
562.593	165
562.805	174
563.017	174
563.229	164
563.441	155
563.653	174
563.865	186
564.077	166
564.289	176
564.501	154
564.713	179
564.925	180
565.137	177
565.349	158
565.561	184
565.773	179
565.985	184
566.197	178
566.408	198
566.62	207
566.832	200
567.044	215
567.255	221
567.467	206
567.679	203
567.891	204
568.102	214
568.314	200
568.526	211
568.737	198
568.949	193
569.161	200
569.372	182
569.584	180
569.795	169
570.007	170
570.218	187
570.43	172
570.641	170
570.853	168
571.064	169
571.276	166
571.487	190
571.698	171
571.91	167
572.121	170
572.333	159
572.544	158
572.755	160
572.966	164
573.178	151
573.389	159
573.6	163
573.811	155
574.023	161
574.234	154
574.445	142
574.656	148
574.867	148
575.078	170
575.289	152
575.501	158
575.712	157
575.923	154
576.134	146
576.345	153
576.556	144
576.767	137
576.978	128
577.188	146
577.399	153
577.61	141
577.821	145
578.032	133
578.243	152
578.454	153
578.665	158
578.875	163
579.086	162
579.297	156
579.508	150
579.718	153
579.929	161
580.14	147
580.35	135
580.561	144
580.772	139
580.982	139
581.193	136
581.403	131
581.614	137
581.825	152
582.035	124
582.246	134
582.456	130
582.667	126
582.877	128
583.087	129
583.298	142
583.508	125
583.719	140
583.929	123
584.139	126
584.35	133
584.56	135
584.77	122
584.981	128
585.191	138
585.401	134
585.611	137
585.821	144
586.032	141
586.242	134
586.452	141
586.662	151
586.872	148
587.082	134
587.292	143
587.502	140
587.713	123
587.923	124
588.133	129
588.343	155
588.553	125
588.762	136
588.972	146
589.182	130
589.392	127
589.602	127
589.812	137
590.022	158
590.232	153
590.441	124
590.651	135
590.861	136
591.071	148
591.281	141
591.49	140
591.7	134
591.91	145
592.119	141
592.329	132
592.539	137
592.748	150
592.958	132
593.167	141
593.377	138
593.587	138
593.796	154
594.006	148
594.215	130
594.424	140
594.634	140
594.843	132
595.053	142
595.262	139
595.472	122
595.681	140
595.89	118
596.1	122
596.309	145
596.518	138
596.727	114
596.937	133
597.146	128
597.355	140
597.564	121
597.774	144
597.983	131
598.192	127
598.401	121
598.61	137
598.819	132
599.028	120
599.237	130
599.446	120
599.655	105
599.864	126
600.073	134
600.282	120
600.491	125
600.7	120
600.909	127
601.118	121
601.327	118
601.536	128
601.745	120
601.953	130
602.162	140
602.371	132
602.58	135
602.789	121
602.997	117
603.206	120
603.415	103
603.623	126
603.832	101
604.041	113
604.249	121
604.458	127
604.666	102
604.875	116
605.084	118
605.292	118
605.501	123
605.709	124
605.918	112
606.126	96
606.334	113
606.543	116
606.751	121
606.96	103
607.168	105
607.376	120
607.585	127
607.793	123
608.001	118
608.21	115
608.418	130
608.626	128
608.834	114
609.043	116
609.251	117
609.459	118
609.667	138
609.875	127
610.083	118
610.291	114
610.499	128
610.707	123
610.916	97
611.124	107
611.332	118
611.54	108
611.748	110
611.955	94
612.163	112
612.371	118
612.579	107
612.787	105
612.995	125
613.203	125
613.411	122
613.618	120
613.826	108
614.034	122
614.242	112
614.449	119
614.657	113
614.865	118
615.072	106
615.28	122
615.488	121
615.695	106
615.903	125
616.111	110
616.318	132
616.526	107
616.733	119
616.941	114
617.148	131
617.356	119
617.563	119
617.771	106
617.978	122
618.185	106
618.393	114
618.6	112
618.807	128
619.015	113
619.222	105
619.429	118
619.637	118
619.844	117
620.051	114
620.258	116
620.466	107
620.673	103
620.88	122
621.087	110
621.294	106
621.501	115
621.708	110
621.915	117
622.122	104
622.329	96
622.536	123
622.743	98
622.95	100
623.157	92
623.364	107
623.571	103
623.778	120
623.985	111
624.192	122
624.399	115
624.606	124
624.812	87
625.019	101
625.226	110
625.433	113
625.639	105
625.846	87
626.053	118
626.259	101
626.466	107
626.673	97
626.879	95
627.086	115
627.293	103
627.499	110
627.706	104
627.912	108
628.119	100
628.325	118
628.532	118
628.738	97
628.945	107
629.151	95
629.357	104
629.564	97
629.77	98
629.976	110
630.183	106
630.389	100
630.595	106
630.802	101
631.008	106
631.214	102
631.42	119
631.627	117
631.833	89
632.039	93
632.245	116
632.451	87
632.657	94
632.863	88
633.069	110
633.275	101
633.481	92
633.688	102
633.893	116
634.099	110
634.305	99
634.511	102
634.717	94
634.923	97
635.129	101
635.335	108
635.541	98
635.747	93
635.952	114
636.158	94
636.364	92
636.57	97
636.775	101
636.981	93
637.187	106
637.392	99
637.598	106
637.804	97
638.009	104
638.215	96
638.421	88
638.626	102
638.832	102
639.037	99
639.243	119
639.448	98
639.654	94
639.859	93
640.065	81
640.27	97
640.475	103
640.681	96
640.886	113
641.091	108
641.297	107
641.502	107
641.707	106
641.913	100
642.118	119
642.323	102
642.528	106
642.733	95
642.939	93
643.144	94
643.349	111
643.554	96
643.759	87
643.964	90
644.169	106
644.374	104
644.579	98
644.784	94
644.989	98
645.194	103
645.399	99
645.604	97
645.809	110
646.014	105
646.219	102
646.423	103
646.628	92
646.833	98
647.038	100
647.243	110
647.447	111
647.652	107
647.857	111
648.062	107
648.266	87
648.471	90
648.676	102
648.88	88
649.085	83
649.289	103
649.494	100
649.698	105
649.903	108
650.107	101
650.312	93
650.516	82
650.721	110
650.925	102
651.13	80
651.334	94
651.539	100
651.743	84
651.947	106
652.152	96
652.356	103
652.56	100
652.764	101
652.969	85
653.173	90
653.377	90
653.581	89
653.785	96
653.99	99
654.194	82
654.398	81
654.602	88
654.806	99
655.01	81
655.214	96
655.418	94
655.622	100
655.826	86
656.03	91
656.234	79
656.438	98
656.642	99
656.846	83
657.049	94
657.253	96
657.457	85
657.661	84
657.865	93
658.068	91
658.272	85
658.476	78
658.68	84
658.883	81
659.087	81
659.291	90
659.494	91
659.698	76
659.901	89
660.105	89
660.309	83
660.512	73
660.716	91
660.919	80
661.123	71
661.326	94
661.53	111
661.733	85
661.936	81
662.14	65
662.343	92
662.546	87
662.75	83
662.953	90
663.156	88
663.36	87
663.563	79
663.766	86
663.969	86
664.173	66
664.376	81
664.579	92
664.782	88
664.985	90
665.188	81
665.391	74
665.594	80
665.797	58
666	67
666.203	84
666.406	84
666.609	75
666.812	87
667.015	66
667.218	82
667.421	95
667.624	100
667.827	84
668.03	73
668.232	82
668.435	76
668.638	82
668.841	60
669.043	87
669.246	76
669.449	84
669.651	77
669.854	85
670.057	88
670.259	88
670.462	98
670.665	77
670.867	71
671.07	83
671.272	82
671.475	75
671.677	86
671.88	87
672.082	89
672.284	84
672.487	83
672.689	76
672.892	86
