Data from NickelSpatula_HRD10591_16-35-51-126.txt Node
Date: Mon Jul 22 16:35:51 EDT 2019
User: cochatt
Spectrometer: HR+D1059
Trigger mode: 1
Integration Time (sec): 1.000000E-1
Scans to average: 1
Electric dark correction enabled: true
Nonlinearity correction enabled: false
Boxcar width: 0
XAxis mode: Wavelengths
Number of Pixels in Spectrum: 2048
>>>>>Begin Spectral Data<<<<<
223.165	-10.69
223.4	-10.69
223.635	-10.69
223.869	-16.69
224.104	-24.69
224.338	-24.69
224.573	-4.69
224.808	-18.69
225.042	-22.69
225.277	-5.69
225.511	4.31
225.746	-6.69
225.98	12.31
226.215	8.31
226.449	26.31
226.683	33.31
226.918	10.31
227.152	40.31
227.387	26.31
227.621	38.31
227.856	44.31
228.09	36.31
228.324	59.31
228.559	48.31
228.793	61.31
229.027	55.31
229.262	65.31
229.496	75.31
229.73	83.31
229.964	102.31
230.199	86.31
230.433	79.31
230.667	76.31
230.901	80.31
231.136	86.31
231.37	92.31
231.604	91.31
231.838	86.31
232.072	100.31
232.306	97.31
232.541	76.31
232.775	92.31
233.009	88.31
233.243	101.31
233.477	104.31
233.711	111.31
233.945	123.31
234.179	101.31
234.413	112.31
234.647	113.31
234.881	111.31
235.115	114.31
235.349	116.31
235.583	103.31
235.817	104.31
236.051	112.31
236.285	114.31
236.519	119.31
236.753	106.31
236.987	105.31
237.221	112.31
237.455	120.31
237.689	111.31
237.922	111.31
238.156	123.31
238.39	137.31
238.624	130.31
238.858	134.31
239.091	120.31
239.325	124.31
239.559	129.31
239.793	123.31
240.027	138.31
240.26	139.31
240.494	130.31
240.728	122.31
240.961	150.31
241.195	141.31
241.429	141.31
241.662	139.31
241.896	125.31
242.13	122.31
242.363	122.31
242.597	119.31
242.83	119.31
243.064	122.31
243.298	124.31
243.531	127.31
243.765	146.31
243.998	144.31
244.232	145.31
244.465	144.31
244.699	134.31
244.932	150.31
245.166	113.31
245.399	126.31
245.633	123.31
245.866	122.31
246.099	140.31
246.333	137.31
246.566	157.31
246.8	148.31
247.033	138.31
247.266	136.31
247.5	127.31
247.733	128.31
247.966	136.31
248.2	144.31
248.433	146.31
248.666	148.31
248.899	153.31
249.133	165.31
249.366	171.31
249.599	175.31
249.832	177.31
250.066	142.31
250.299	158.31
250.532	146.31
250.765	136.31
250.998	142.31
251.231	140.31
251.465	171.31
251.698	154.31
251.931	162.31
252.164	165.31
252.397	163.31
252.63	178.31
252.863	188.31
253.096	192.31
253.329	205.31
253.562	184.31
253.795	204.31
254.028	232.31
254.261	223.31
254.494	210.31
254.727	198.31
254.96	188.31
255.193	200.31
255.426	191.31
255.659	159.31
255.892	152.31
256.124	136.31
256.357	167.31
256.59	181.31
256.823	188.31
257.056	179.31
257.289	149.31
257.521	178.31
257.754	200.31
257.987	201.31
258.22	182.31
258.452	160.31
258.685	196.31
258.918	209.31
259.151	195.31
259.383	225.31
259.616	233.31
259.849	242.31
260.081	266.31
260.314	252.31
260.547	219.31
260.779	216.31
261.012	260.31
261.244	227.31
261.477	238.31
261.71	226.31
261.942	219.31
262.175	206.31
262.407	196.31
262.64	198.31
262.872	214.31
263.105	238.31
263.337	239.31
263.57	230.31
263.802	182.31
264.035	160.31
264.267	152.31
264.499	154.31
264.732	150.31
264.964	128.31
265.197	146.31
265.429	139.31
265.661	152.31
265.894	145.31
266.126	164.31
266.358	168.31
266.591	207.31
266.823	235.31
267.055	213.31
267.287	206.31
267.52	195.31
267.752	210.31
267.984	245.31
268.216	210.31
268.448	162.31
268.681	192.31
268.913	201.31
269.145	216.31
269.377	200.31
269.609	194.31
269.841	192.31
270.073	202.31
270.306	210.31
270.538	228.31
270.77	216.31
271.002	231.31
271.234	225.31
271.466	240.31
271.698	217.31
271.93	210.31
272.162	206.31
272.394	210.31
272.626	207.31
272.858	211.31
273.09	215.31
273.322	183.31
273.553	189.31
273.785	227.31
274.017	268.31
274.249	304.31
274.481	318.31
274.713	333.31
274.945	380.31
275.176	379.31
275.408	368.31
275.64	357.31
275.872	331.31
276.104	283.31
276.335	261.31
276.567	251.31
276.799	280.31
277.031	282.31
277.262	243.31
277.494	211.31
277.726	212.31
277.957	201.31
278.189	210.31
278.421	220.31
278.652	212.31
278.884	221.31
279.115	223.31
279.347	198.31
279.579	183.31
279.81	202.31
280.042	194.31
280.273	180.31
280.505	176.31
280.736	168.31
280.968	169.31
281.199	178.31
281.431	206.31
281.662	178.31
281.894	197.31
282.125	195.31
282.356	191.31
282.588	221.31
282.819	198.31
283.051	190.31
283.282	240.31
283.513	268.31
283.745	287.31
283.976	281.31
284.207	278.31
284.439	287.31
284.67	263.31
284.901	259.31
285.132	275.31
285.364	267.31
285.595	251.31
285.826	265.31
286.057	291.31
286.288	262.31
286.52	263.31
286.751	281.31
286.982	285.31
287.213	257.31
287.444	252.31
287.675	253.31
287.906	239.31
288.138	218.31
288.369	210.31
288.6	211.31
288.831	219.31
289.062	243.31
289.293	245.31
289.524	233.31
289.755	230.31
289.986	235.31
290.217	220.31
290.448	196.31
290.679	159.31
290.91	146.31
291.141	174.31
291.371	161.31
291.602	171.31
291.833	154.31
292.064	176.31
292.295	194.31
292.526	216.31
292.757	216.31
292.987	231.31
293.218	226.31
293.449	231.31
293.68	250.31
293.91	230.31
294.141	235.31
294.372	236.31
294.603	210.31
294.833	215.31
295.064	275.31
295.295	244.31
295.525	187.31
295.756	164.31
295.987	163.31
296.217	169.31
296.448	174.31
296.679	185.31
296.909	181.31
297.14	183.31
297.37	193.31
297.601	192.31
297.831	184.31
298.062	201.31
298.292	214.31
298.523	217.31
298.753	238.31
298.984	224.31
299.214	182.31
299.445	174.31
299.675	158.31
299.905	146.31
300.136	154.31
300.366	172.31
300.597	151.31
300.827	165.31
301.057	146.31
301.288	156.31
301.518	163.31
301.748	193.31
301.979	186.31
302.209	189.31
302.439	187.31
302.669	179.31
302.9	178.31
303.13	187.31
303.36	180.31
303.59	167.31
303.82	162.31
304.051	177.31
304.281	203.31
304.511	191.31
304.741	180.31
304.971	183.31
305.201	186.31
305.431	166.31
305.661	155.31
305.891	167.31
306.121	164.31
306.352	150.31
306.582	132.31
306.812	137.31
307.042	134.31
307.272	140.31
307.502	152.31
307.731	138.31
307.961	159.31
308.191	141.31
308.421	138.31
308.651	139.31
308.881	129.31
309.111	135.31
309.341	136.31
309.571	152.31
309.8	147.31
310.03	146.31
310.26	160.31
310.49	151.31
310.72	128.31
310.949	140.31
311.179	127.31
311.409	150.31
311.639	162.31
311.868	205.31
312.098	240.31
312.328	276.31
312.557	252.31
312.787	261.31
313.017	237.31
313.246	252.31
313.476	255.31
313.706	219.31
313.935	205.31
314.165	156.31
314.394	159.31
314.624	144.31
314.853	166.31
315.083	137.31
315.312	152.31
315.542	153.31
315.771	155.31
316.001	131.31
316.23	127.31
316.46	142.31
316.689	137.31
316.919	134.31
317.148	137.31
317.377	148.31
317.607	143.31
317.836	165.31
318.065	151.31
318.295	195.31
318.524	163.31
318.753	165.31
318.983	155.31
319.212	142.31
319.441	162.31
319.67	168.31
319.9	171.31
320.129	184.31
320.358	147.31
320.587	130.31
320.816	151.31
321.046	174.31
321.275	189.31
321.504	177.31
321.733	181.31
321.962	165.31
322.191	168.31
322.42	168.31
322.649	169.31
322.878	178.31
323.108	167.31
323.337	151.31
323.566	174.31
323.795	162.31
324.024	150.31
324.253	156.31
324.482	149.31
324.71	158.31
324.939	171.31
325.168	162.31
325.397	144.31
325.626	134.31
325.855	144.31
326.084	147.31
326.313	138.31
326.542	147.31
326.77	148.31
326.999	147.31
327.228	143.31
327.457	150.31
327.686	143.31
327.914	137.31
328.143	133.31
328.372	128.31
328.6	134.31
328.829	138.31
329.058	125.31
329.287	149.31
329.515	120.31
329.744	150.31
329.972	131.31
330.201	148.31
330.43	135.31
330.658	139.31
330.887	163.31
331.115	151.31
331.344	156.31
331.572	149.31
331.801	140.31
332.03	133.31
332.258	148.31
332.486	158.31
332.715	155.31
332.943	143.31
333.172	138.31
333.4	134.31
333.629	156.31
333.857	159.31
334.085	166.31
334.314	157.31
334.542	162.31
334.771	136.31
334.999	140.31
335.227	151.31
335.455	147.31
335.684	162.31
335.912	181.31
336.14	184.31
336.369	178.31
336.597	179.31
336.825	184.31
337.053	216.31
337.281	162.31
337.51	131.31
337.738	144.31
337.966	154.31
338.194	153.31
338.422	151.31
338.65	146.31
338.878	149.31
339.106	146.31
339.334	158.31
339.562	180.31
339.79	163.31
340.018	150.31
340.246	155.31
340.474	176.31
340.702	166.31
340.93	180.31
341.158	182.31
341.386	168.31
341.614	168.31
341.842	155.31
342.07	172.31
342.298	183.31
342.526	202.31
342.754	156.31
342.981	166.31
343.209	156.31
343.437	167.31
343.665	158.31
343.893	157.31
344.12	191.31
344.348	218.31
344.576	184.31
344.804	170.31
345.031	167.31
345.259	153.31
345.487	164.31
345.714	146.31
345.942	172.31
346.17	170.31
346.397	159.31
346.625	144.31
346.853	144.31
347.08	148.31
347.308	156.31
347.535	170.31
347.763	162.31
347.99	140.31
348.218	135.31
348.445	152.31
348.673	148.31
348.9	161.31
349.128	154.31
349.355	154.31
349.583	131.31
349.81	129.31
350.037	169.31
350.265	147.31
350.492	128.31
350.72	124.31
350.947	124.31
351.174	138.31
351.402	153.31
351.629	142.31
351.856	152.31
352.083	144.31
352.311	157.31
352.538	145.31
352.765	180.31
352.992	152.31
353.22	151.31
353.447	155.31
353.674	145.31
353.901	139.31
354.128	130.31
354.355	144.31
354.583	153.31
354.81	156.31
355.037	157.31
355.264	166.31
355.491	186.31
355.718	168.31
355.945	173.31
356.172	158.31
356.399	162.31
356.626	191.31
356.853	231.31
357.08	216.31
357.307	228.31
357.534	195.31
357.761	175.31
357.988	257.31
358.215	251.31
358.441	232.31
358.668	219.31
358.895	219.31
359.122	179.31
359.349	180.31
359.576	188.31
359.802	149.31
360.029	158.31
360.256	159.31
360.483	175.31
360.709	202.31
360.936	217.31
361.163	205.31
361.39	154.31
361.616	163.31
361.843	168.31
362.07	197.31
362.296	184.31
362.523	157.31
362.749	139.31
362.976	155.31
363.203	177.31
363.429	187.31
363.656	177.31
363.882	152.31
364.109	164.31
364.335	161.31
364.562	155.31
364.788	164.31
365.015	185.31
365.241	170.31
365.468	140.31
365.694	119.31
365.92	132.31
366.147	131.31
366.373	134.31
366.599	139.31
366.826	126.31
367.052	146.31
367.278	132.31
367.505	144.31
367.731	139.31
367.957	154.31
368.184	154.31
368.41	157.31
368.636	154.31
368.862	174.31
369.089	146.31
369.315	147.31
369.541	126.31
369.767	136.31
369.993	137.31
370.219	140.31
370.445	139.31
370.672	155.31
370.898	167.31
371.124	164.31
371.35	155.31
371.576	134.31
371.802	154.31
372.028	168.31
372.254	175.31
372.48	155.31
372.706	146.31
372.932	147.31
373.158	168.31
373.384	182.31
373.61	211.31
373.835	232.31
374.061	190.31
374.287	161.31
374.513	198.31
374.739	230.31
374.965	210.31
375.191	225.31
375.416	166.31
375.642	149.31
375.868	167.31
376.094	174.31
376.319	175.31
376.545	184.31
376.771	178.31
376.997	183.31
377.222	133.31
377.448	126.31
377.674	122.31
377.899	118.31
378.125	121.31
378.35	127.31
378.576	124.31
378.802	147.31
379.027	133.31
379.253	138.31
379.478	155.31
379.704	155.31
379.929	165.31
380.155	165.31
380.38	158.31
380.606	157.31
380.831	172.31
381.057	155.31
381.282	160.31
381.507	166.31
381.733	193.31
381.958	219.31
382.184	219.31
382.409	225.31
382.634	221.31
382.86	228.31
383.085	191.31
383.31	172.31
383.535	176.31
383.761	179.31
383.986	169.31
384.211	206.31
384.436	194.31
384.662	159.31
384.887	156.31
385.112	164.31
385.337	172.31
385.562	152.31
385.787	183.31
386.013	163.31
386.238	167.31
386.463	164.31
386.688	159.31
386.913	162.31
387.138	144.31
387.363	144.31
387.588	165.31
387.813	146.31
388.038	158.31
388.263	148.31
388.488	152.31
388.713	163.31
388.938	187.31
389.163	151.31
389.387	134.31
389.612	142.31
389.837	145.31
390.062	132.31
390.287	145.31
390.512	150.31
390.736	132.31
390.961	136.31
391.186	148.31
391.411	126.31
391.636	147.31
391.86	125.31
392.085	170.31
392.31	166.31
392.534	139.31
392.759	152.31
392.984	150.31
393.208	150.31
393.433	155.31
393.658	123.31
393.882	122.31
394.107	123.31
394.331	131.31
394.556	133.31
394.78	122.31
395.005	132.31
395.229	138.31
395.454	162.31
395.678	138.31
395.903	141.31
396.127	142.31
396.352	131.31
396.576	140.31
396.801	161.31
397.025	172.31
397.249	162.31
397.474	163.31
397.698	146.31
397.922	146.31
398.147	139.31
398.371	146.31
398.595	129.31
398.82	142.31
399.044	145.31
399.268	146.31
399.492	155.31
399.717	165.31
399.941	147.31
400.165	138.31
400.389	155.31
400.613	145.31
400.837	154.31
401.062	147.31
401.286	151.31
401.51	127.31
401.734	149.31
401.958	137.31
402.182	137.31
402.406	145.31
402.63	136.31
402.854	147.31
403.078	172.31
403.302	196.31
403.526	204.31
403.75	178.31
403.974	177.31
404.198	161.31
404.422	207.31
404.645	200.31
404.869	201.31
405.093	185.31
405.317	145.31
405.541	130.31
405.765	165.31
405.988	156.31
406.212	155.31
406.436	191.31
406.66	182.31
406.883	159.31
407.107	174.31
407.331	193.31
407.555	172.31
407.778	160.31
408.002	151.31
408.226	147.31
408.449	165.31
408.673	153.31
408.896	145.31
409.12	146.31
409.344	141.31
409.567	122.31
409.791	138.31
410.014	144.31
410.238	132.31
410.461	142.31
410.685	134.31
410.908	148.31
411.132	146.31
411.355	157.31
411.578	134.31
411.802	149.31
412.025	153.31
412.249	146.31
412.472	149.31
412.695	147.31
412.919	151.31
413.142	147.31
413.365	181.31
413.589	147.31
413.812	150.31
414.035	137.31
414.258	153.31
414.482	151.31
414.705	167.31
414.928	140.31
415.151	150.31
415.374	134.31
415.597	137.31
415.821	147.31
416.044	136.31
416.267	130.31
416.49	158.31
416.713	143.31
416.936	130.31
417.159	146.31
417.382	147.31
417.605	150.31
417.828	160.31
418.051	147.31
418.274	151.31
418.497	159.31
418.72	155.31
418.943	151.31
419.166	165.31
419.389	155.31
419.611	159.31
419.834	144.31
420.057	167.31
420.28	154.31
420.503	165.31
420.726	140.31
420.948	129.31
421.171	143.31
421.394	140.31
421.617	134.31
421.839	144.31
422.062	140.31
422.285	148.31
422.507	130.31
422.73	161.31
422.953	165.31
423.175	147.31
423.398	164.31
423.621	161.31
423.843	164.31
424.066	158.31
424.288	150.31
424.511	150.31
424.733	141.31
424.956	153.31
425.178	163.31
425.401	184.31
425.623	214.31
425.846	171.31
426.068	165.31
426.291	175.31
426.513	163.31
426.735	165.31
426.958	151.31
427.18	180.31
427.402	206.31
427.625	213.31
427.847	187.31
428.069	152.31
428.292	158.31
428.514	147.31
428.736	142.31
428.958	163.31
429.181	164.31
429.403	155.31
429.625	140.31
429.847	147.31
430.069	148.31
430.292	165.31
430.514	149.31
430.736	151.31
430.958	178.31
431.18	162.31
431.402	150.31
431.624	134.31
431.846	131.31
432.068	134.31
432.29	154.31
432.512	150.31
432.734	193.31
432.956	175.31
433.178	150.31
433.4	132.31
433.622	140.31
433.844	134.31
434.066	157.31
434.287	151.31
434.509	158.31
434.731	159.31
434.953	141.31
435.175	151.31
435.397	172.31
435.618	159.31
435.84	123.31
436.062	147.31
436.284	136.31
436.505	150.31
436.727	141.31
436.949	144.31
437.17	135.31
437.392	150.31
437.614	147.31
437.835	131.31
438.057	148.31
438.278	165.31
438.5	205.31
438.721	202.31
438.943	146.31
439.165	135.31
439.386	140.31
439.608	144.31
439.829	139.31
440.05	132.31
440.272	139.31
440.493	151.31
440.715	183.31
440.936	163.31
441.158	141.31
441.379	145.31
441.6	140.31
441.822	153.31
442.043	144.31
442.264	146.31
442.486	150.31
442.707	143.31
442.928	152.31
443.149	140.31
443.371	150.31
443.592	148.31
443.813	141.31
444.034	133.31
444.255	153.31
444.476	139.31
444.698	154.31
444.919	156.31
445.14	292.31
445.361	216.31
445.582	151.31
445.803	145.31
446.024	178.31
446.245	158.31
446.466	156.31
446.687	128.31
446.908	150.31
447.129	135.31
447.35	142.31
447.571	148.31
447.792	128.31
448.013	139.31
448.234	122.31
448.455	146.31
448.675	143.31
448.896	136.31
449.117	126.31
449.338	137.31
449.559	137.31
449.779	148.31
450	137.31
450.221	145.31
450.442	139.31
450.662	124.31
450.883	124.31
451.104	130.31
451.324	134.31
451.545	131.31
451.766	123.31
451.986	133.31
452.207	138.31
452.428	151.31
452.648	138.31
452.869	145.31
453.089	152.31
453.31	146.31
453.53	129.31
453.751	136.31
453.971	130.31
454.192	133.31
454.412	132.31
454.633	129.31
454.853	133.31
455.073	145.31
455.294	129.31
455.514	130.31
455.734	129.31
455.955	138.31
456.175	141.31
456.395	130.31
456.616	137.31
456.836	116.31
457.056	119.31
457.276	130.31
457.497	128.31
457.717	134.31
457.937	113.31
458.157	129.31
458.377	128.31
458.598	144.31
458.818	140.31
459.038	145.31
459.258	144.31
459.478	134.31
459.698	151.31
459.918	145.31
460.138	144.31
460.358	142.31
460.578	143.31
460.798	158.31
461.018	141.31
461.238	147.31
461.458	152.31
461.678	151.31
461.898	154.31
462.118	135.31
462.338	158.31
462.558	162.31
462.777	145.31
462.997	155.31
463.217	158.31
463.437	169.31
463.657	148.31
463.876	150.31
464.096	159.31
464.316	144.31
464.536	152.31
464.755	168.31
464.975	160.31
465.195	151.31
465.414	166.31
465.634	164.31
465.854	155.31
466.073	160.31
466.293	158.31
466.512	156.31
466.732	166.31
466.951	152.31
467.171	150.31
467.391	154.31
467.61	154.31
467.829	147.31
468.049	160.31
468.268	155.31
468.488	145.31
468.707	147.31
468.927	166.31
469.146	168.31
469.365	177.31
469.585	167.31
469.804	176.31
470.023	156.31
470.243	165.31
470.462	154.31
470.681	160.31
470.901	151.31
471.12	147.31
471.339	171.31
471.558	164.31
471.777	156.31
471.997	163.31
472.216	166.31
472.435	177.31
472.654	171.31
472.873	164.31
473.092	168.31
473.311	157.31
473.53	168.31
473.749	146.31
473.968	167.31
474.187	161.31
474.406	151.31
474.625	148.31
474.844	151.31
475.063	159.31
475.282	171.31
475.501	185.31
475.72	179.31
475.939	187.31
476.158	175.31
476.377	197.31
476.596	197.31
476.814	212.31
477.033	183.31
477.252	180.31
477.471	172.31
477.69	168.31
477.908	177.31
478.127	177.31
478.346	162.31
478.564	183.31
478.783	178.31
479.002	172.31
479.22	184.31
479.439	206.31
479.658	178.31
479.876	158.31
480.095	169.31
480.313	164.31
480.532	177.31
480.751	187.31
480.969	152.31
481.188	184.31
481.406	192.31
481.624	187.31
481.843	182.31
482.061	167.31
482.28	182.31
482.498	210.31
482.717	216.31
482.935	181.31
483.153	158.31
483.372	173.31
483.59	164.31
483.808	162.31
484.027	167.31
484.245	155.31
484.463	149.31
484.681	172.31
484.9	164.31
485.118	174.31
485.336	168.31
485.554	156.31
485.772	172.31
485.99	167.31
486.209	175.31
486.427	164.31
486.645	187.31
486.863	178.31
487.081	164.31
487.299	202.31
487.517	193.31
487.735	181.31
487.953	192.31
488.171	186.31
488.389	170.31
488.607	157.31
488.825	164.31
489.043	185.31
489.261	216.31
489.479	232.31
489.696	179.31
489.914	184.31
490.132	152.31
490.35	167.31
490.568	157.31
490.786	161.31
491.003	169.31
491.221	177.31
491.439	160.31
491.657	161.31
491.874	180.31
492.092	211.31
492.31	264.31
492.527	235.31
492.745	223.31
492.963	190.31
493.18	195.31
493.398	178.31
493.615	175.31
493.833	187.31
494.05	187.31
494.268	169.31
494.485	203.31
494.703	160.31
494.92	176.31
495.138	180.31
495.355	163.31
495.573	176.31
495.79	203.31
496.008	246.31
496.225	212.31
496.442	205.31
496.66	195.31
496.877	194.31
497.094	200.31
497.312	193.31
497.529	174.31
497.746	183.31
497.963	186.31
498.181	203.31
498.398	218.31
498.615	218.31
498.832	223.31
499.049	228.31
499.267	207.31
499.484	207.31
499.701	196.31
499.918	222.31
500.135	266.31
500.352	254.31
500.569	263.31
500.786	262.31
501.003	265.31
501.22	243.31
501.437	215.31
501.654	209.31
501.871	235.31
502.088	219.31
502.305	181.31
502.522	211.31
502.739	210.31
502.956	193.31
503.172	189.31
503.389	193.31
503.606	176.31
503.823	183.31
504.04	196.31
504.256	190.31
504.473	189.31
504.69	185.31
504.907	200.31
505.123	198.31
505.34	216.31
505.557	218.31
505.773	201.31
505.99	192.31
506.207	190.31
506.423	194.31
506.64	192.31
506.856	176.31
507.073	196.31
507.289	207.31
507.506	195.31
507.722	204.31
507.939	219.31
508.155	208.31
508.372	188.31
508.588	184.31
508.805	191.31
509.021	195.31
509.238	176.31
509.454	193.31
509.67	179.31
509.887	190.31
510.103	190.31
510.319	191.31
510.536	187.31
510.752	160.31
510.968	167.31
511.184	154.31
511.401	168.31
511.617	175.31
511.833	162.31
512.049	171.31
512.265	174.31
512.481	170.31
512.698	183.31
512.914	194.31
513.13	163.31
513.346	165.31
513.562	185.31
513.778	204.31
513.994	189.31
514.21	198.31
514.426	178.31
514.642	169.31
514.858	168.31
515.074	170.31
515.29	207.31
515.506	185.31
515.721	203.31
515.937	199.31
516.153	188.31
516.369	201.31
516.585	184.31
516.801	212.31
517.016	239.31
517.232	222.31
517.448	225.31
517.664	207.31
517.879	207.31
518.095	210.31
518.311	195.31
518.527	189.31
518.742	216.31
518.958	216.31
519.173	220.31
519.389	215.31
519.605	203.31
519.82	214.31
520.036	244.31
520.251	214.31
520.467	238.31
520.682	367.31
520.898	443.31
521.113	418.31
521.329	263.31
521.544	217.31
521.76	216.31
521.975	209.31
522.19	194.31
522.406	202.31
522.621	210.31
522.836	219.31
523.052	244.31
523.267	220.31
523.482	199.31
523.698	228.31
523.913	214.31
524.128	183.31
524.343	184.31
524.559	189.31
524.774	193.31
524.989	212.31
525.204	208.31
525.419	207.31
525.634	190.31
525.849	203.31
526.064	190.31
526.28	187.31
526.495	224.31
526.71	243.31
526.925	203.31
527.14	232.31
527.355	207.31
527.57	172.31
527.785	197.31
527.999	181.31
528.214	165.31
528.429	183.31
528.644	166.31
528.859	178.31
529.074	176.31
529.289	179.31
529.503	162.31
529.718	168.31
529.933	201.31
530.148	186.31
530.363	195.31
530.577	168.31
530.792	162.31
531.007	162.31
531.221	162.31
531.436	168.31
531.651	176.31
531.865	177.31
532.08	178.31
532.295	188.31
532.509	167.31
532.724	208.31
532.938	223.31
533.153	243.31
533.367	202.31
533.582	203.31
533.796	171.31
534.011	158.31
534.225	162.31
534.44	181.31
534.654	185.31
534.868	229.31
535.083	200.31
535.297	178.31
535.511	169.31
535.726	195.31
535.94	178.31
536.154	157.31
536.369	160.31
536.583	159.31
536.797	170.31
537.011	174.31
537.225	201.31
537.44	187.31
537.654	177.31
537.868	151.31
538.082	158.31
538.296	170.31
538.51	180.31
538.724	183.31
538.938	161.31
539.153	156.31
539.367	164.31
539.581	169.31
539.795	183.31
540.009	196.31
540.222	179.31
540.436	184.31
540.65	205.31
540.864	188.31
541.078	213.31
541.292	225.31
541.506	194.31
541.72	177.31
541.934	184.31
542.147	164.31
542.361	165.31
542.575	194.31
542.789	179.31
543.002	175.31
543.216	184.31
543.43	163.31
543.644	180.31
543.857	162.31
544.071	169.31
544.285	166.31
544.498	149.31
544.712	168.31
544.925	182.31
545.139	155.31
545.352	154.31
545.566	148.31
545.779	180.31
545.993	169.31
546.206	148.31
546.42	137.31
546.633	171.31
546.847	148.31
547.06	160.31
547.274	138.31
547.487	162.31
547.7	176.31
547.914	161.31
548.127	167.31
548.34	176.31
548.554	152.31
548.767	171.31
548.98	168.31
549.193	158.31
549.407	169.31
549.62	179.31
549.833	182.31
550.046	174.31
550.259	181.31
550.473	169.31
550.686	190.31
550.899	183.31
551.112	171.31
551.325	174.31
551.538	159.31
551.751	156.31
551.964	155.31
552.177	162.31
552.39	166.31
552.603	129.31
552.816	154.31
553.029	154.31
553.242	146.31
553.455	160.31
553.667	174.31
553.88	172.31
554.093	166.31
554.306	168.31
554.519	144.31
554.732	145.31
554.944	147.31
555.157	145.31
555.37	141.31
555.583	145.31
555.795	160.31
556.008	155.31
556.221	161.31
556.433	139.31
556.646	160.31
556.859	142.31
557.071	164.31
557.284	140.31
557.496	158.31
557.709	151.31
557.921	153.31
558.134	142.31
558.346	137.31
558.559	133.31
558.771	146.31
558.984	152.31
559.196	160.31
559.409	147.31
559.621	138.31
559.833	149.31
560.046	160.31
560.258	156.31
560.47	143.31
560.683	148.31
560.895	139.31
561.107	138.31
561.32	140.31
561.532	143.31
561.744	147.31
561.956	156.31
562.168	130.31
562.381	144.31
562.593	137.31
562.805	150.31
563.017	134.31
563.229	139.31
563.441	129.31
563.653	135.31
563.865	123.31
564.077	141.31
564.289	153.31
564.501	141.31
564.713	153.31
564.925	154.31
565.137	139.31
565.349	136.31
565.561	139.31
565.773	130.31
565.985	151.31
566.197	138.31
566.408	162.31
566.62	148.31
566.832	141.31
567.044	154.31
567.255	169.31
567.467	156.31
567.679	156.31
567.891	146.31
568.102	161.31
568.314	160.31
568.526	160.31
568.737	147.31
568.949	154.31
569.161	155.31
569.372	134.31
569.584	140.31
569.795	144.31
570.007	134.31
570.218	135.31
570.43	144.31
570.641	146.31
570.853	139.31
571.064	137.31
571.276	147.31
571.487	146.31
571.698	126.31
571.91	138.31
572.121	137.31
572.333	129.31
572.544	129.31
572.755	141.31
572.966	128.31
573.178	120.31
573.389	127.31
573.6	136.31
573.811	128.31
574.023	125.31
574.234	131.31
574.445	127.31
574.656	133.31
574.867	141.31
575.078	132.31
575.289	133.31
575.501	124.31
575.712	135.31
575.923	129.31
576.134	121.31
576.345	120.31
576.556	126.31
576.767	125.31
576.978	141.31
577.188	124.31
577.399	134.31
577.61	130.31
577.821	127.31
578.032	121.31
578.243	120.31
578.454	137.31
578.665	135.31
578.875	132.31
579.086	130.31
579.297	128.31
579.508	133.31
579.718	129.31
579.929	124.31
580.14	135.31
580.35	128.31
580.561	106.31
580.772	136.31
580.982	120.31
581.193	118.31
581.403	116.31
581.614	110.31
581.825	115.31
582.035	119.31
582.246	116.31
582.456	124.31
582.667	97.31
582.877	118.31
583.087	123.31
583.298	119.31
583.508	125.31
583.719	121.31
583.929	128.31
584.139	113.31
584.35	116.31
584.56	111.31
584.77	118.31
584.981	115.31
585.191	108.31
585.401	118.31
585.611	111.31
585.821	112.31
586.032	116.31
586.242	115.31
586.452	128.31
586.662	124.31
586.872	123.31
587.082	136.31
587.292	130.31
587.502	105.31
587.713	117.31
587.923	119.31
588.133	139.31
588.343	102.31
588.553	116.31
588.762	127.31
588.972	123.31
589.182	122.31
589.392	107.31
589.602	114.31
589.812	130.31
590.022	126.31
590.232	133.31
590.441	112.31
590.651	121.31
590.861	132.31
591.071	108.31
591.281	111.31
591.49	119.31
591.7	114.31
591.91	136.31
592.119	127.31
592.329	117.31
592.539	115.31
592.748	119.31
592.958	112.31
593.167	123.31
593.377	134.31
593.587	127.31
593.796	119.31
594.006	128.31
594.215	104.31
594.424	124.31
594.634	114.31
594.843	124.31
595.053	120.31
595.262	131.31
595.472	126.31
595.681	118.31
595.89	130.31
596.1	105.31
596.309	122.31
596.518	119.31
596.727	110.31
596.937	114.31
597.146	124.31
597.355	127.31
597.564	123.31
597.774	113.31
597.983	105.31
598.192	111.31
598.401	118.31
598.61	101.31
598.819	116.31
599.028	114.31
599.237	116.31
599.446	106.31
599.655	103.31
599.864	118.31
600.073	114.31
600.282	114.31
600.491	108.31
600.7	110.31
600.909	107.31
601.118	101.31
601.327	99.31
601.536	122.31
601.745	110.31
601.953	122.31
602.162	113.31
602.371	122.31
602.58	111.31
602.789	120.31
602.997	130.31
603.206	105.31
603.415	126.31
603.623	110.31
603.832	114.31
604.041	101.31
604.249	110.31
604.458	118.31
604.666	115.31
604.875	102.31
605.084	111.31
605.292	110.31
605.501	100.31
605.709	114.31
605.918	120.31
606.126	121.31
606.334	111.31
606.543	124.31
606.751	105.31
606.96	110.31
607.168	99.31
607.376	96.31
607.585	113.31
607.793	109.31
608.001	109.31
608.21	111.31
608.418	119.31
608.626	112.31
608.834	110.31
609.043	111.31
609.251	87.31
609.459	90.31
609.667	103.31
609.875	102.31
610.083	110.31
610.291	117.31
610.499	99.31
610.707	87.31
610.916	103.31
611.124	92.31
611.332	114.31
611.54	114.31
611.748	103.31
611.955	105.31
612.163	118.31
612.371	123.31
612.579	97.31
612.787	102.31
612.995	106.31
613.203	105.31
613.411	91.31
613.618	113.31
613.826	110.31
614.034	113.31
614.242	102.31
614.449	94.31
614.657	97.31
614.865	110.31
615.072	90.31
615.28	103.31
615.488	100.31
615.695	103.31
615.903	94.31
616.111	103.31
616.318	96.31
616.526	103.31
616.733	106.31
616.941	101.31
617.148	104.31
617.356	91.31
617.563	111.31
617.771	92.31
617.978	112.31
618.185	102.31
618.393	116.31
618.6	81.31
618.807	98.31
619.015	111.31
619.222	100.31
619.429	122.31
619.637	99.31
619.844	99.31
620.051	103.31
620.258	99.31
620.466	96.31
620.673	103.31
620.88	90.31
621.087	103.31
621.294	123.31
621.501	104.31
621.708	109.31
621.915	112.31
622.122	90.31
622.329	104.31
622.536	109.31
622.743	91.31
622.95	98.31
623.157	101.31
623.364	86.31
623.571	106.31
623.778	112.31
623.985	96.31
624.192	112.31
624.399	112.31
624.606	112.31
624.812	102.31
625.019	112.31
625.226	96.31
625.433	112.31
625.639	83.31
625.846	92.31
626.053	87.31
626.259	116.31
626.466	98.31
626.673	100.31
626.879	94.31
627.086	107.31
627.293	96.31
627.499	106.31
627.706	99.31
627.912	104.31
628.119	116.31
628.325	123.31
628.532	101.31
628.738	96.31
628.945	101.31
629.151	96.31
629.357	84.31
629.564	112.31
629.77	99.31
629.976	98.31
630.183	99.31
630.389	108.31
630.595	93.31
630.802	96.31
631.008	90.31
631.214	102.31
631.42	98.31
631.627	88.31
631.833	86.31
632.039	100.31
632.245	104.31
632.451	107.31
632.657	98.31
632.863	94.31
633.069	85.31
633.275	87.31
633.481	93.31
633.688	108.31
633.893	118.31
634.099	99.31
634.305	98.31
634.511	95.31
634.717	102.31
634.923	87.31
635.129	100.31
635.335	99.31
635.541	92.31
635.747	89.31
635.952	96.31
636.158	90.31
636.364	97.31
636.57	96.31
636.775	92.31
636.981	101.31
637.187	92.31
637.392	89.31
637.598	99.31
637.804	96.31
638.009	97.31
638.215	92.31
638.421	92.31
638.626	112.31
638.832	94.31
639.037	86.31
639.243	85.31
639.448	99.31
639.654	94.31
639.859	82.31
640.065	90.31
640.27	96.31
640.475	93.31
640.681	93.31
640.886	84.31
641.091	99.31
641.297	110.31
641.502	99.31
641.707	105.31
641.913	94.31
642.118	99.31
642.323	98.31
642.528	102.31
642.733	88.31
642.939	103.31
643.144	104.31
643.349	94.31
643.554	103.31
643.759	99.31
643.964	100.31
644.169	97.31
644.374	94.31
644.579	96.31
644.784	103.31
644.989	85.31
645.194	91.31
645.399	99.31
645.604	98.31
645.809	103.31
646.014	84.31
646.219	78.31
646.423	93.31
646.628	101.31
646.833	105.31
647.038	92.31
647.243	95.31
647.447	95.31
647.652	99.31
647.857	91.31
648.062	90.31
648.266	103.31
648.471	94.31
648.676	85.31
648.88	78.31
649.085	71.31
649.289	86.31
649.494	88.31
649.698	103.31
649.903	91.31
650.107	100.31
650.312	99.31
650.516	86.31
650.721	92.31
650.925	82.31
651.13	84.31
651.334	97.31
651.539	91.31
651.743	94.31
651.947	86.31
652.152	92.31
652.356	90.31
652.56	88.31
652.764	86.31
652.969	93.31
653.173	95.31
653.377	84.31
653.581	77.31
653.785	82.31
653.99	94.31
654.194	83.31
654.398	80.31
654.602	97.31
654.806	102.31
655.01	85.31
655.214	89.31
655.418	80.31
655.622	84.31
655.826	90.31
656.03	95.31
656.234	85.31
656.438	81.31
656.642	76.31
656.846	80.31
657.049	90.31
657.253	89.31
657.457	84.31
657.661	76.31
657.865	76.31
658.068	88.31
658.272	89.31
658.476	88.31
658.68	79.31
658.883	79.31
659.087	84.31
659.291	80.31
659.494	96.31
659.698	73.31
659.901	81.31
660.105	72.31
660.309	77.31
660.512	90.31
660.716	67.31
660.919	81.31
661.123	91.31
661.326	84.31
661.53	73.31
661.733	82.31
661.936	81.31
662.14	83.31
662.343	98.31
662.546	86.31
662.75	67.31
662.953	90.31
663.156	84.31
663.36	88.31
663.563	95.31
663.766	93.31
663.969	86.31
664.173	80.31
664.376	78.31
664.579	78.31
664.782	98.31
664.985	81.31
665.188	82.31
665.391	85.31
665.594	86.31
665.797	75.31
666	80.31
666.203	72.31
666.406	70.31
666.609	77.31
666.812	90.31
667.015	79.31
667.218	89.31
667.421	73.31
667.624	67.31
667.827	89.31
668.03	97.31
668.232	88.31
668.435	75.31
668.638	76.31
668.841	83.31
669.043	63.31
669.246	82.31
669.449	90.31
669.651	94.31
669.854	94.31
670.057	71.31
670.259	78.31
670.462	84.31
670.665	89.31
670.867	78.31
671.07	74.31
671.272	83.31
671.475	80.31
671.677	91.31
671.88	81.31
672.082	85.31
672.284	73.31
672.487	85.31
672.689	76.31
672.892	80.31
