Data from NickelSpatula_HRD10591_16-35-42-126.txt Node
Date: Mon Jul 22 16:35:42 EDT 2019
User: cochatt
Spectrometer: HR+D1059
Trigger mode: 1
Integration Time (sec): 1.000000E-1
Scans to average: 1
Electric dark correction enabled: true
Nonlinearity correction enabled: false
Boxcar width: 0
XAxis mode: Wavelengths
Number of Pixels in Spectrum: 2048
>>>>>Begin Spectral Data<<<<<
223.165	-16.81
223.4	-16.81
223.635	-16.81
223.869	-19.81
224.104	-26.81
224.338	-11.81
224.573	-22.81
224.808	-11.81
225.042	-9.81
225.277	-10.81
225.511	4.19
225.746	8.19
225.98	0.19
226.215	19.19
226.449	21.19
226.683	22.19
226.918	32.19
227.152	23.19
227.387	26.19
227.621	33.19
227.856	38.19
228.09	22.19
228.324	41.19
228.559	66.19
228.793	63.19
229.027	68.19
229.262	73.19
229.496	70.19
229.73	85.19
229.964	92.19
230.199	91.19
230.433	89.19
230.667	92.19
230.901	83.19
231.136	83.19
231.37	99.19
231.604	87.19
231.838	110.19
232.072	102.19
232.306	105.19
232.541	99.19
232.775	89.19
233.009	111.19
233.243	99.19
233.477	111.19
233.711	106.19
233.945	113.19
234.179	117.19
234.413	113.19
234.647	112.19
234.881	122.19
235.115	125.19
235.349	137.19
235.583	96.19
235.817	122.19
236.051	105.19
236.285	123.19
236.519	132.19
236.753	133.19
236.987	123.19
237.221	126.19
237.455	109.19
237.689	123.19
237.922	120.19
238.156	122.19
238.39	138.19
238.624	124.19
238.858	134.19
239.091	142.19
239.325	125.19
239.559	125.19
239.793	139.19
240.027	154.19
240.26	159.19
240.494	135.19
240.728	139.19
240.961	141.19
241.195	153.19
241.429	134.19
241.662	139.19
241.896	122.19
242.13	126.19
242.363	129.19
242.597	134.19
242.83	140.19
243.064	142.19
243.298	140.19
243.531	143.19
243.765	150.19
243.998	158.19
244.232	144.19
244.465	149.19
244.699	137.19
244.932	157.19
245.166	154.19
245.399	148.19
245.633	131.19
245.866	144.19
246.099	140.19
246.333	159.19
246.566	163.19
246.8	163.19
247.033	160.19
247.266	148.19
247.5	142.19
247.733	164.19
247.966	163.19
248.2	170.19
248.433	169.19
248.666	179.19
248.899	168.19
249.133	168.19
249.366	195.19
249.599	196.19
249.832	190.19
250.066	175.19
250.299	167.19
250.532	168.19
250.765	183.19
250.998	159.19
251.231	155.19
251.465	170.19
251.698	153.19
251.931	151.19
252.164	189.19
252.397	193.19
252.63	201.19
252.863	204.19
253.096	217.19
253.329	221.19
253.562	218.19
253.795	240.19
254.028	245.19
254.261	267.19
254.494	242.19
254.727	216.19
254.96	212.19
255.193	240.19
255.426	211.19
255.659	164.19
255.892	186.19
256.124	179.19
256.357	198.19
256.59	241.19
256.823	216.19
257.056	203.19
257.289	188.19
257.521	183.19
257.754	224.19
257.987	240.19
258.22	209.19
258.452	199.19
258.685	216.19
258.918	245.19
259.151	213.19
259.383	243.19
259.616	271.19
259.849	279.19
260.081	283.19
260.314	292.19
260.547	267.19
260.779	267.19
261.012	305.19
261.244	282.19
261.477	288.19
261.71	273.19
261.942	243.19
262.175	232.19
262.407	223.19
262.64	243.19
262.872	267.19
263.105	281.19
263.337	285.19
263.57	268.19
263.802	205.19
264.035	187.19
264.267	184.19
264.499	157.19
264.732	156.19
264.964	141.19
265.197	145.19
265.429	156.19
265.661	155.19
265.894	176.19
266.126	187.19
266.358	203.19
266.591	246.19
266.823	270.19
267.055	272.19
267.287	233.19
267.52	228.19
267.752	245.19
267.984	255.19
268.216	249.19
268.448	215.19
268.681	199.19
268.913	234.19
269.145	242.19
269.377	245.19
269.609	241.19
269.841	232.19
270.073	258.19
270.306	259.19
270.538	251.19
270.77	251.19
271.002	263.19
271.234	263.19
271.466	259.19
271.698	244.19
271.93	255.19
272.162	256.19
272.394	236.19
272.626	245.19
272.858	275.19
273.09	256.19
273.322	244.19
273.553	223.19
273.785	270.19
274.017	314.19
274.249	372.19
274.481	366.19
274.713	399.19
274.945	493.19
275.176	483.19
275.408	443.19
275.64	384.19
275.872	407.19
276.104	337.19
276.335	323.19
276.567	333.19
276.799	320.19
277.031	332.19
277.262	284.19
277.494	228.19
277.726	213.19
277.957	240.19
278.189	253.19
278.421	268.19
278.652	236.19
278.884	232.19
279.115	213.19
279.347	226.19
279.579	219.19
279.81	226.19
280.042	226.19
280.273	227.19
280.505	197.19
280.736	199.19
280.968	187.19
281.199	199.19
281.431	215.19
281.662	227.19
281.894	213.19
282.125	216.19
282.356	248.19
282.588	245.19
282.819	219.19
283.051	245.19
283.282	299.19
283.513	325.19
283.745	349.19
283.976	351.19
284.207	319.19
284.439	342.19
284.67	339.19
284.901	295.19
285.132	321.19
285.364	320.19
285.595	308.19
285.826	341.19
286.057	329.19
286.288	321.19
286.52	330.19
286.751	329.19
286.982	342.19
287.213	321.19
287.444	305.19
287.675	313.19
287.906	306.19
288.138	254.19
288.369	241.19
288.6	227.19
288.831	234.19
289.062	283.19
289.293	312.19
289.524	268.19
289.755	268.19
289.986	287.19
290.217	256.19
290.448	200.19
290.679	185.19
290.91	188.19
291.141	170.19
291.371	184.19
291.602	203.19
291.833	181.19
292.064	191.19
292.295	230.19
292.526	236.19
292.757	259.19
292.987	276.19
293.218	280.19
293.449	286.19
293.68	293.19
293.91	279.19
294.141	276.19
294.372	275.19
294.603	234.19
294.833	265.19
295.064	316.19
295.295	309.19
295.525	242.19
295.756	203.19
295.987	176.19
296.217	180.19
296.448	186.19
296.679	209.19
296.909	198.19
297.14	215.19
297.37	245.19
297.601	240.19
297.831	207.19
298.062	213.19
298.292	243.19
298.523	268.19
298.753	291.19
298.984	253.19
299.214	212.19
299.445	191.19
299.675	164.19
299.905	185.19
300.136	197.19
300.366	209.19
300.597	199.19
300.827	179.19
301.057	173.19
301.288	174.19
301.518	189.19
301.748	209.19
301.979	220.19
302.209	228.19
302.439	229.19
302.669	207.19
302.9	209.19
303.13	210.19
303.36	197.19
303.59	197.19
303.82	206.19
304.051	207.19
304.281	221.19
304.511	229.19
304.741	213.19
304.971	209.19
305.201	217.19
305.431	220.19
305.661	181.19
305.891	185.19
306.121	196.19
306.352	180.19
306.582	162.19
306.812	157.19
307.042	148.19
307.272	156.19
307.502	144.19
307.731	155.19
307.961	159.19
308.191	176.19
308.421	145.19
308.651	148.19
308.881	141.19
309.111	155.19
309.341	171.19
309.571	160.19
309.8	162.19
310.03	186.19
310.26	183.19
310.49	171.19
310.72	172.19
310.949	164.19
311.179	160.19
311.409	169.19
311.639	191.19
311.868	223.19
312.098	288.19
312.328	319.19
312.557	313.19
312.787	303.19
313.017	283.19
313.246	284.19
313.476	292.19
313.706	284.19
313.935	213.19
314.165	180.19
314.394	176.19
314.624	176.19
314.853	177.19
315.083	185.19
315.312	203.19
315.542	186.19
315.771	179.19
316.001	153.19
316.23	157.19
316.46	162.19
316.689	154.19
316.919	163.19
317.148	165.19
317.377	145.19
317.607	153.19
317.836	187.19
318.065	181.19
318.295	220.19
318.524	200.19
318.753	172.19
318.983	160.19
319.212	173.19
319.441	169.19
319.67	191.19
319.9	194.19
320.129	189.19
320.358	170.19
320.587	186.19
320.816	169.19
321.046	192.19
321.275	220.19
321.504	197.19
321.733	210.19
321.962	179.19
322.191	199.19
322.42	179.19
322.649	187.19
322.878	207.19
323.108	194.19
323.337	174.19
323.566	182.19
323.795	187.19
324.024	164.19
324.253	164.19
324.482	167.19
324.71	187.19
324.939	191.19
325.168	185.19
325.397	174.19
325.626	161.19
325.855	163.19
326.084	167.19
326.313	171.19
326.542	161.19
326.77	165.19
326.999	152.19
327.228	171.19
327.457	159.19
327.686	188.19
327.914	167.19
328.143	168.19
328.372	151.19
328.6	139.19
328.829	151.19
329.058	151.19
329.287	165.19
329.515	158.19
329.744	169.19
329.972	151.19
330.201	153.19
330.43	145.19
330.658	138.19
330.887	182.19
331.115	170.19
331.344	181.19
331.572	180.19
331.801	161.19
332.03	153.19
332.258	159.19
332.486	173.19
332.715	175.19
332.943	145.19
333.172	150.19
333.4	162.19
333.629	173.19
333.857	194.19
334.085	183.19
334.314	185.19
334.542	180.19
334.771	170.19
334.999	157.19
335.227	165.19
335.455	161.19
335.684	181.19
335.912	194.19
336.14	204.19
336.369	208.19
336.597	200.19
336.825	224.19
337.053	232.19
337.281	196.19
337.51	164.19
337.738	170.19
337.966	181.19
338.194	197.19
338.422	181.19
338.65	176.19
338.878	154.19
339.106	155.19
339.334	172.19
339.562	185.19
339.79	170.19
340.018	170.19
340.246	172.19
340.474	202.19
340.702	209.19
340.93	204.19
341.158	214.19
341.386	179.19
341.614	179.19
341.842	176.19
342.07	193.19
342.298	206.19
342.526	228.19
342.754	213.19
342.981	192.19
343.209	179.19
343.437	195.19
343.665	194.19
343.893	195.19
344.12	219.19
344.348	247.19
344.576	233.19
344.804	189.19
345.031	179.19
345.259	185.19
345.487	160.19
345.714	157.19
345.942	179.19
346.17	207.19
346.397	195.19
346.625	162.19
346.853	161.19
347.08	156.19
347.308	166.19
347.535	188.19
347.763	189.19
347.99	163.19
348.218	155.19
348.445	168.19
348.673	178.19
348.9	177.19
349.128	170.19
349.355	172.19
349.583	156.19
349.81	169.19
350.037	169.19
350.265	157.19
350.492	152.19
350.72	143.19
350.947	158.19
351.174	153.19
351.402	170.19
351.629	154.19
351.856	164.19
352.083	163.19
352.311	180.19
352.538	188.19
352.765	204.19
352.992	186.19
353.22	164.19
353.447	176.19
353.674	177.19
353.901	163.19
354.128	160.19
354.355	168.19
354.583	181.19
354.81	175.19
355.037	187.19
355.264	185.19
355.491	195.19
355.718	205.19
355.945	193.19
356.172	178.19
356.399	181.19
356.626	204.19
356.853	251.19
357.08	263.19
357.307	269.19
357.534	212.19
357.761	225.19
357.988	266.19
358.215	300.19
358.441	260.19
358.668	263.19
358.895	229.19
359.122	198.19
359.349	211.19
359.576	209.19
359.802	194.19
360.029	148.19
360.256	189.19
360.483	221.19
360.709	236.19
360.936	250.19
361.163	221.19
361.39	181.19
361.616	185.19
361.843	172.19
362.07	217.19
362.296	211.19
362.523	157.19
362.749	169.19
362.976	177.19
363.203	191.19
363.429	202.19
363.656	189.19
363.882	168.19
364.109	180.19
364.335	172.19
364.562	162.19
364.788	196.19
365.015	200.19
365.241	163.19
365.468	157.19
365.694	159.19
365.92	147.19
366.147	160.19
366.373	153.19
366.599	142.19
366.826	163.19
367.052	147.19
367.278	140.19
367.505	158.19
367.731	179.19
367.957	169.19
368.184	177.19
368.41	160.19
368.636	180.19
368.862	189.19
369.089	171.19
369.315	156.19
369.541	150.19
369.767	148.19
369.993	151.19
370.219	152.19
370.445	146.19
370.672	180.19
370.898	187.19
371.124	181.19
371.35	147.19
371.576	153.19
371.802	166.19
372.028	193.19
372.254	203.19
372.48	173.19
372.706	162.19
372.932	180.19
373.158	191.19
373.384	226.19
373.61	259.19
373.835	251.19
374.061	221.19
374.287	202.19
374.513	211.19
374.739	238.19
374.965	235.19
375.191	235.19
375.416	172.19
375.642	168.19
375.868	198.19
376.094	204.19
376.319	191.19
376.545	223.19
376.771	204.19
376.997	181.19
377.222	147.19
377.448	148.19
377.674	154.19
377.899	137.19
378.125	132.19
378.35	154.19
378.576	151.19
378.802	152.19
379.027	171.19
379.253	170.19
379.478	155.19
379.704	172.19
379.929	164.19
380.155	175.19
380.38	169.19
380.606	173.19
380.831	191.19
381.057	192.19
381.282	168.19
381.507	192.19
381.733	213.19
381.958	232.19
382.184	241.19
382.409	244.19
382.634	257.19
382.86	261.19
383.085	225.19
383.31	189.19
383.535	204.19
383.761	200.19
383.986	186.19
384.211	209.19
384.436	214.19
384.662	169.19
384.887	168.19
385.112	183.19
385.337	175.19
385.562	176.19
385.787	201.19
386.013	203.19
386.238	191.19
386.463	192.19
386.688	170.19
386.913	158.19
387.138	152.19
387.363	168.19
387.588	164.19
387.813	165.19
388.038	177.19
388.263	155.19
388.488	164.19
388.713	191.19
388.938	191.19
389.163	173.19
389.387	161.19
389.612	154.19
389.837	155.19
390.062	176.19
390.287	177.19
390.512	170.19
390.736	167.19
390.961	159.19
391.186	159.19
391.411	157.19
391.636	141.19
391.86	166.19
392.085	182.19
392.31	171.19
392.534	177.19
392.759	159.19
392.984	178.19
393.208	166.19
393.433	149.19
393.658	141.19
393.882	126.19
394.107	155.19
394.331	147.19
394.556	145.19
394.78	150.19
395.005	150.19
395.229	161.19
395.454	166.19
395.678	132.19
395.903	152.19
396.127	152.19
396.352	153.19
396.576	161.19
396.801	169.19
397.025	191.19
397.249	199.19
397.474	167.19
397.698	154.19
397.922	182.19
398.147	172.19
398.371	162.19
398.595	185.19
398.82	173.19
399.044	173.19
399.268	169.19
399.492	179.19
399.717	177.19
399.941	195.19
400.165	165.19
400.389	192.19
400.613	164.19
400.837	199.19
401.062	165.19
401.286	147.19
401.51	165.19
401.734	153.19
401.958	159.19
402.182	161.19
402.406	160.19
402.63	165.19
402.854	161.19
403.078	197.19
403.302	232.19
403.526	241.19
403.75	223.19
403.974	193.19
404.198	202.19
404.422	207.19
404.645	235.19
404.869	228.19
405.093	191.19
405.317	160.19
405.541	175.19
405.765	175.19
405.988	180.19
406.212	197.19
406.436	211.19
406.66	208.19
406.883	187.19
407.107	175.19
407.331	211.19
407.555	195.19
407.778	193.19
408.002	187.19
408.226	193.19
408.449	183.19
408.673	180.19
408.896	165.19
409.12	167.19
409.344	169.19
409.567	170.19
409.791	155.19
410.014	159.19
410.238	151.19
410.461	160.19
410.685	184.19
410.908	159.19
411.132	161.19
411.355	175.19
411.578	170.19
411.802	179.19
412.025	161.19
412.249	178.19
412.472	179.19
412.695	177.19
412.919	180.19
413.142	170.19
413.365	191.19
413.589	165.19
413.812	155.19
414.035	163.19
414.258	168.19
414.482	177.19
414.705	186.19
414.928	146.19
415.151	151.19
415.374	161.19
415.597	166.19
415.821	162.19
416.044	138.19
416.267	146.19
416.49	164.19
416.713	173.19
416.936	164.19
417.159	154.19
417.382	163.19
417.605	161.19
417.828	157.19
418.051	166.19
418.274	175.19
418.497	161.19
418.72	164.19
418.943	160.19
419.166	171.19
419.389	169.19
419.611	171.19
419.834	168.19
420.057	195.19
420.28	181.19
420.503	195.19
420.726	161.19
420.948	166.19
421.171	148.19
421.394	148.19
421.617	163.19
421.839	149.19
422.062	164.19
422.285	170.19
422.507	164.19
422.73	173.19
422.953	181.19
423.175	181.19
423.398	164.19
423.621	188.19
423.843	190.19
424.066	177.19
424.288	172.19
424.511	165.19
424.733	162.19
424.956	184.19
425.178	192.19
425.401	205.19
425.623	229.19
425.846	204.19
426.068	173.19
426.291	194.19
426.513	194.19
426.735	155.19
426.958	172.19
427.18	192.19
427.402	221.19
427.625	242.19
427.847	209.19
428.069	179.19
428.292	167.19
428.514	170.19
428.736	157.19
428.958	178.19
429.181	202.19
429.403	181.19
429.625	162.19
429.847	156.19
430.069	157.19
430.292	179.19
430.514	158.19
430.736	166.19
430.958	201.19
431.18	192.19
431.402	159.19
431.624	151.19
431.846	155.19
432.068	136.19
432.29	145.19
432.512	170.19
432.734	193.19
432.956	191.19
433.178	150.19
433.4	163.19
433.622	154.19
433.844	169.19
434.066	165.19
434.287	189.19
434.509	191.19
434.731	165.19
434.953	160.19
435.175	171.19
435.397	199.19
435.618	153.19
435.84	145.19
436.062	162.19
436.284	153.19
436.505	151.19
436.727	136.19
436.949	136.19
437.17	155.19
437.392	159.19
437.614	153.19
437.835	154.19
438.057	155.19
438.278	175.19
438.5	238.19
438.721	219.19
438.943	170.19
439.165	153.19
439.386	139.19
439.608	161.19
439.829	145.19
440.05	156.19
440.272	154.19
440.493	178.19
440.715	211.19
440.936	185.19
441.158	180.19
441.379	166.19
441.6	190.19
441.822	186.19
442.043	161.19
442.264	165.19
442.486	166.19
442.707	153.19
442.928	153.19
443.149	163.19
443.371	175.19
443.592	177.19
443.813	160.19
444.034	168.19
444.255	158.19
444.476	153.19
444.698	172.19
444.919	175.19
445.14	313.19
445.361	240.19
445.582	177.19
445.803	191.19
446.024	198.19
446.245	190.19
446.466	168.19
446.687	173.19
446.908	159.19
447.129	164.19
447.35	146.19
447.571	150.19
447.792	154.19
448.013	172.19
448.234	128.19
448.455	157.19
448.675	141.19
448.896	160.19
449.117	152.19
449.338	164.19
449.559	161.19
449.779	176.19
450	168.19
450.221	168.19
450.442	152.19
450.662	153.19
450.883	145.19
451.104	177.19
451.324	153.19
451.545	148.19
451.766	135.19
451.986	151.19
452.207	153.19
452.428	144.19
452.648	144.19
452.869	166.19
453.089	174.19
453.31	172.19
453.53	142.19
453.751	155.19
453.971	161.19
454.192	144.19
454.412	162.19
454.633	146.19
454.853	149.19
455.073	145.19
455.294	144.19
455.514	152.19
455.734	144.19
455.955	145.19
456.175	160.19
456.395	134.19
456.616	145.19
456.836	135.19
457.056	127.19
457.276	144.19
457.497	149.19
457.717	149.19
457.937	141.19
458.157	151.19
458.377	159.19
458.598	123.19
458.818	148.19
459.038	156.19
459.258	159.19
459.478	139.19
459.698	152.19
459.918	164.19
460.138	171.19
460.358	165.19
460.578	183.19
460.798	150.19
461.018	160.19
461.238	171.19
461.458	162.19
461.678	172.19
461.898	175.19
462.118	164.19
462.338	164.19
462.558	176.19
462.777	185.19
462.997	172.19
463.217	197.19
463.437	183.19
463.657	173.19
463.876	181.19
464.096	175.19
464.316	179.19
464.536	186.19
464.755	188.19
464.975	190.19
465.195	168.19
465.414	186.19
465.634	171.19
465.854	171.19
466.073	151.19
466.293	157.19
466.512	166.19
466.732	193.19
466.951	179.19
467.171	173.19
467.391	169.19
467.61	179.19
467.829	165.19
468.049	170.19
468.268	156.19
468.488	146.19
468.707	157.19
468.927	183.19
469.146	204.19
469.365	159.19
469.585	165.19
469.804	190.19
470.023	183.19
470.243	166.19
470.462	154.19
470.681	162.19
470.901	163.19
471.12	178.19
471.339	179.19
471.558	168.19
471.777	165.19
471.997	180.19
472.216	200.19
472.435	201.19
472.654	195.19
472.873	175.19
473.092	171.19
473.311	185.19
473.53	170.19
473.749	177.19
473.968	188.19
474.187	193.19
474.406	184.19
474.625	170.19
474.844	164.19
475.063	197.19
475.282	193.19
475.501	201.19
475.72	217.19
475.939	195.19
476.158	186.19
476.377	218.19
476.596	255.19
476.814	261.19
477.033	225.19
477.252	189.19
477.471	183.19
477.69	183.19
477.908	191.19
478.127	188.19
478.346	188.19
478.564	208.19
478.783	196.19
479.002	202.19
479.22	205.19
479.439	233.19
479.658	210.19
479.876	187.19
480.095	202.19
480.313	215.19
480.532	197.19
480.751	179.19
480.969	187.19
481.188	214.19
481.406	213.19
481.624	194.19
481.843	170.19
482.061	193.19
482.28	201.19
482.498	261.19
482.717	247.19
482.935	218.19
483.153	195.19
483.372	184.19
483.59	172.19
483.808	180.19
484.027	187.19
484.245	199.19
484.463	176.19
484.681	177.19
484.9	185.19
485.118	199.19
485.336	191.19
485.554	175.19
485.772	187.19
485.99	189.19
486.209	219.19
486.427	209.19
486.645	222.19
486.863	203.19
487.081	221.19
487.299	233.19
487.517	228.19
487.735	203.19
487.953	203.19
488.171	213.19
488.389	204.19
488.607	179.19
488.825	206.19
489.043	199.19
489.261	254.19
489.479	263.19
489.696	212.19
489.914	213.19
490.132	195.19
490.35	201.19
490.568	191.19
490.786	199.19
491.003	193.19
491.221	199.19
491.439	171.19
491.657	205.19
491.874	202.19
492.092	262.19
492.31	287.19
492.527	276.19
492.745	259.19
492.963	207.19
493.18	211.19
493.398	243.19
493.615	224.19
493.833	209.19
494.05	205.19
494.268	219.19
494.485	198.19
494.703	203.19
494.92	204.19
495.138	205.19
495.355	200.19
495.573	201.19
495.79	224.19
496.008	296.19
496.225	241.19
496.442	216.19
496.66	241.19
496.877	245.19
497.094	232.19
497.312	203.19
497.529	229.19
497.746	213.19
497.963	229.19
498.181	244.19
498.398	253.19
498.615	262.19
498.832	259.19
499.049	264.19
499.267	254.19
499.484	236.19
499.701	243.19
499.918	283.19
500.135	291.19
500.352	304.19
500.569	323.19
500.786	332.19
501.003	327.19
501.22	293.19
501.437	267.19
501.654	263.19
501.871	263.19
502.088	252.19
502.305	237.19
502.522	247.19
502.739	234.19
502.956	221.19
503.172	209.19
503.389	200.19
503.606	202.19
503.823	222.19
504.04	227.19
504.256	219.19
504.473	214.19
504.69	228.19
504.907	233.19
505.123	219.19
505.34	230.19
505.557	225.19
505.773	215.19
505.99	228.19
506.207	226.19
506.423	218.19
506.64	203.19
506.856	216.19
507.073	240.19
507.289	235.19
507.506	232.19
507.722	229.19
507.939	255.19
508.155	249.19
508.372	204.19
508.588	214.19
508.805	200.19
509.021	204.19
509.238	214.19
509.454	207.19
509.67	208.19
509.887	213.19
510.103	211.19
510.319	219.19
510.536	197.19
510.752	212.19
510.968	184.19
511.184	172.19
511.401	170.19
511.617	182.19
511.833	199.19
512.049	179.19
512.265	199.19
512.481	203.19
512.698	217.19
512.914	224.19
513.13	211.19
513.346	200.19
513.562	216.19
513.778	192.19
513.994	202.19
514.21	223.19
514.426	205.19
514.642	190.19
514.858	201.19
515.074	199.19
515.29	221.19
515.506	251.19
515.721	247.19
515.937	219.19
516.153	204.19
516.369	199.19
516.585	205.19
516.801	238.19
517.016	284.19
517.232	258.19
517.448	255.19
517.664	230.19
517.879	219.19
518.095	210.19
518.311	232.19
518.527	235.19
518.742	240.19
518.958	251.19
519.173	243.19
519.389	236.19
519.605	241.19
519.82	252.19
520.036	276.19
520.251	260.19
520.467	285.19
520.682	436.19
520.898	529.19
521.113	485.19
521.329	309.19
521.544	287.19
521.76	269.19
521.975	238.19
522.19	226.19
522.406	210.19
522.621	240.19
522.836	270.19
523.052	270.19
523.267	232.19
523.482	245.19
523.698	231.19
523.913	239.19
524.128	215.19
524.343	200.19
524.559	216.19
524.774	201.19
524.989	205.19
525.204	217.19
525.419	222.19
525.634	212.19
525.849	215.19
526.064	215.19
526.28	221.19
526.495	252.19
526.71	269.19
526.925	250.19
527.14	239.19
527.355	233.19
527.57	217.19
527.785	230.19
527.999	212.19
528.214	197.19
528.429	204.19
528.644	203.19
528.859	187.19
529.074	179.19
529.289	188.19
529.503	188.19
529.718	198.19
529.933	230.19
530.148	248.19
530.363	205.19
530.577	177.19
530.792	182.19
531.007	195.19
531.221	177.19
531.436	181.19
531.651	192.19
531.865	196.19
532.08	186.19
532.295	178.19
532.509	191.19
532.724	209.19
532.938	233.19
533.153	283.19
533.367	229.19
533.582	205.19
533.796	196.19
534.011	175.19
534.225	195.19
534.44	203.19
534.654	208.19
534.868	245.19
535.083	218.19
535.297	200.19
535.511	193.19
535.726	204.19
535.94	192.19
536.154	188.19
536.369	180.19
536.583	202.19
536.797	199.19
537.011	193.19
537.225	200.19
537.44	224.19
537.654	197.19
537.868	202.19
538.082	210.19
538.296	186.19
538.51	204.19
538.724	203.19
538.938	204.19
539.153	186.19
539.367	184.19
539.581	179.19
539.795	185.19
540.009	216.19
540.222	188.19
540.436	188.19
540.65	218.19
540.864	217.19
541.078	230.19
541.292	270.19
541.506	199.19
541.72	191.19
541.934	193.19
542.147	176.19
542.361	183.19
542.575	200.19
542.789	196.19
543.002	179.19
543.216	194.19
543.43	172.19
543.644	187.19
543.857	187.19
544.071	151.19
544.285	173.19
544.498	194.19
544.712	179.19
544.925	181.19
545.139	186.19
545.352	160.19
545.566	187.19
545.779	179.19
545.993	194.19
546.206	168.19
546.42	186.19
546.633	171.19
546.847	149.19
547.06	164.19
547.274	160.19
547.487	182.19
547.7	182.19
547.914	184.19
548.127	193.19
548.34	200.19
548.554	185.19
548.767	184.19
548.98	199.19
549.193	166.19
549.407	181.19
549.62	216.19
549.833	201.19
550.046	212.19
550.259	204.19
550.473	202.19
550.686	179.19
550.899	187.19
551.112	185.19
551.325	196.19
551.538	187.19
551.751	190.19
551.964	164.19
552.177	178.19
552.39	165.19
552.603	163.19
552.816	184.19
553.029	185.19
553.242	181.19
553.455	172.19
553.667	195.19
553.88	188.19
554.093	182.19
554.306	165.19
554.519	154.19
554.732	153.19
554.944	143.19
555.157	160.19
555.37	157.19
555.583	149.19
555.795	162.19
556.008	169.19
556.221	168.19
556.433	161.19
556.646	168.19
556.859	162.19
557.071	163.19
557.284	165.19
557.496	176.19
557.709	158.19
557.921	169.19
558.134	163.19
558.346	157.19
558.559	162.19
558.771	156.19
558.984	157.19
559.196	150.19
559.409	157.19
559.621	149.19
559.833	151.19
560.046	151.19
560.258	162.19
560.47	154.19
560.683	159.19
560.895	152.19
561.107	145.19
561.32	143.19
561.532	154.19
561.744	168.19
561.956	160.19
562.168	143.19
562.381	144.19
562.593	160.19
562.805	162.19
563.017	161.19
563.229	150.19
563.441	144.19
563.653	144.19
563.865	155.19
564.077	160.19
564.289	159.19
564.501	140.19
564.713	183.19
564.925	145.19
565.137	139.19
565.349	139.19
565.561	152.19
565.773	152.19
565.985	169.19
566.197	164.19
566.408	172.19
566.62	184.19
566.832	158.19
567.044	169.19
567.255	181.19
567.467	196.19
567.679	187.19
567.891	175.19
568.102	195.19
568.314	183.19
568.526	171.19
568.737	170.19
568.949	180.19
569.161	161.19
569.372	177.19
569.584	161.19
569.795	131.19
570.007	155.19
570.218	166.19
570.43	168.19
570.641	158.19
570.853	147.19
571.064	147.19
571.276	167.19
571.487	161.19
571.698	157.19
571.91	147.19
572.121	159.19
572.333	133.19
572.544	151.19
572.755	148.19
572.966	160.19
573.178	141.19
573.389	133.19
573.6	135.19
573.811	151.19
574.023	139.19
574.234	137.19
574.445	142.19
574.656	151.19
574.867	151.19
575.078	153.19
575.289	148.19
575.501	148.19
575.712	153.19
575.923	138.19
576.134	144.19
576.345	141.19
576.556	137.19
576.767	139.19
576.978	133.19
577.188	141.19
577.399	138.19
577.61	134.19
577.821	136.19
578.032	136.19
578.243	157.19
578.454	130.19
578.665	154.19
578.875	145.19
579.086	148.19
579.297	139.19
579.508	153.19
579.718	141.19
579.929	141.19
580.14	132.19
580.35	134.19
580.561	120.19
580.772	128.19
580.982	121.19
581.193	131.19
581.403	135.19
581.614	124.19
581.825	135.19
582.035	123.19
582.246	133.19
582.456	135.19
582.667	120.19
582.877	128.19
583.087	119.19
583.298	136.19
583.508	120.19
583.719	112.19
583.929	129.19
584.139	129.19
584.35	130.19
584.56	129.19
584.77	130.19
584.981	138.19
585.191	118.19
585.401	136.19
585.611	129.19
585.821	149.19
586.032	131.19
586.242	135.19
586.452	123.19
586.662	121.19
586.872	129.19
587.082	139.19
587.292	123.19
587.502	134.19
587.713	125.19
587.923	111.19
588.133	129.19
588.343	121.19
588.553	112.19
588.762	134.19
588.972	127.19
589.182	132.19
589.392	141.19
589.602	133.19
589.812	128.19
590.022	119.19
590.232	149.19
590.441	131.19
590.651	113.19
590.861	125.19
591.071	124.19
591.281	116.19
591.49	118.19
591.7	117.19
591.91	121.19
592.119	107.19
592.329	115.19
592.539	122.19
592.748	132.19
592.958	118.19
593.167	129.19
593.377	128.19
593.587	145.19
593.796	129.19
594.006	129.19
594.215	130.19
594.424	131.19
594.634	123.19
594.843	131.19
595.053	125.19
595.262	125.19
595.472	121.19
595.681	123.19
595.89	122.19
596.1	141.19
596.309	105.19
596.518	125.19
596.727	131.19
596.937	128.19
597.146	120.19
597.355	137.19
597.564	139.19
597.774	118.19
597.983	126.19
598.192	117.19
598.401	122.19
598.61	124.19
598.819	111.19
599.028	127.19
599.237	110.19
599.446	123.19
599.655	121.19
599.864	118.19
600.073	115.19
600.282	121.19
600.491	129.19
600.7	112.19
600.909	121.19
601.118	111.19
601.327	108.19
601.536	109.19
601.745	127.19
601.953	135.19
602.162	123.19
602.371	119.19
602.58	131.19
602.789	124.19
602.997	111.19
603.206	111.19
603.415	128.19
603.623	109.19
603.832	122.19
604.041	115.19
604.249	115.19
604.458	119.19
604.666	103.19
604.875	112.19
605.084	105.19
605.292	123.19
605.501	123.19
605.709	118.19
605.918	116.19
606.126	117.19
606.334	117.19
606.543	116.19
606.751	123.19
606.96	121.19
607.168	114.19
607.376	103.19
607.585	117.19
607.793	119.19
608.001	106.19
608.21	113.19
608.418	121.19
608.626	113.19
608.834	121.19
609.043	130.19
609.251	127.19
609.459	104.19
609.667	124.19
609.875	111.19
610.083	127.19
610.291	111.19
610.499	118.19
610.707	120.19
610.916	125.19
611.124	120.19
611.332	113.19
611.54	114.19
611.748	122.19
611.955	128.19
612.163	116.19
612.371	114.19
612.579	105.19
612.787	111.19
612.995	125.19
613.203	107.19
613.411	115.19
613.618	111.19
613.826	101.19
614.034	115.19
614.242	113.19
614.449	108.19
614.657	97.19
614.865	115.19
615.072	116.19
615.28	116.19
615.488	113.19
615.695	114.19
615.903	118.19
616.111	107.19
616.318	113.19
616.526	106.19
616.733	102.19
616.941	96.19
617.148	118.19
617.356	127.19
617.563	108.19
617.771	90.19
617.978	99.19
618.185	109.19
618.393	99.19
618.6	106.19
618.807	121.19
619.015	123.19
619.222	126.19
619.429	104.19
619.637	107.19
619.844	98.19
620.051	110.19
620.258	113.19
620.466	98.19
620.673	107.19
620.88	121.19
621.087	118.19
621.294	114.19
621.501	104.19
621.708	95.19
621.915	115.19
622.122	106.19
622.329	119.19
622.536	113.19
622.743	97.19
622.95	115.19
623.157	111.19
623.364	111.19
623.571	102.19
623.778	95.19
623.985	104.19
624.192	94.19
624.399	114.19
624.606	109.19
624.812	122.19
625.019	108.19
625.226	107.19
625.433	123.19
625.639	124.19
625.846	115.19
626.053	97.19
626.259	97.19
626.466	120.19
626.673	98.19
626.879	109.19
627.086	109.19
627.293	106.19
627.499	110.19
627.706	106.19
627.912	115.19
628.119	126.19
628.325	107.19
628.532	101.19
628.738	103.19
628.945	93.19
629.151	102.19
629.357	113.19
629.564	117.19
629.77	106.19
629.976	108.19
630.183	107.19
630.389	96.19
630.595	107.19
630.802	108.19
631.008	106.19
631.214	101.19
631.42	112.19
631.627	104.19
631.833	111.19
632.039	119.19
632.245	98.19
632.451	105.19
632.657	97.19
632.863	107.19
633.069	108.19
633.275	110.19
633.481	96.19
633.688	102.19
633.893	102.19
634.099	106.19
634.305	112.19
634.511	101.19
634.717	93.19
634.923	92.19
635.129	96.19
635.335	87.19
635.541	99.19
635.747	108.19
635.952	93.19
636.158	98.19
636.364	101.19
636.57	83.19
636.775	87.19
636.981	108.19
637.187	111.19
637.392	95.19
637.598	92.19
637.804	111.19
638.009	113.19
638.215	103.19
638.421	96.19
638.626	109.19
638.832	99.19
639.037	95.19
639.243	89.19
639.448	95.19
639.654	120.19
639.859	106.19
640.065	115.19
640.27	117.19
640.475	92.19
640.681	103.19
640.886	95.19
641.091	100.19
641.297	111.19
641.502	108.19
641.707	90.19
641.913	99.19
642.118	100.19
642.323	102.19
642.528	117.19
642.733	100.19
642.939	102.19
643.144	98.19
643.349	103.19
643.554	103.19
643.759	102.19
643.964	96.19
644.169	89.19
644.374	97.19
644.579	106.19
644.784	99.19
644.989	115.19
645.194	91.19
645.399	111.19
645.604	97.19
645.809	89.19
646.014	94.19
646.219	105.19
646.423	98.19
646.628	96.19
646.833	95.19
647.038	101.19
647.243	93.19
647.447	97.19
647.652	91.19
647.857	92.19
648.062	91.19
648.266	98.19
648.471	100.19
648.676	89.19
648.88	106.19
649.085	88.19
649.289	109.19
649.494	99.19
649.698	116.19
649.903	106.19
650.107	89.19
650.312	106.19
650.516	90.19
650.721	89.19
650.925	90.19
651.13	109.19
651.334	102.19
651.539	102.19
651.743	85.19
651.947	104.19
652.152	100.19
652.356	103.19
652.56	77.19
652.764	80.19
652.969	92.19
653.173	93.19
653.377	95.19
653.581	94.19
653.785	89.19
653.99	99.19
654.194	89.19
654.398	95.19
654.602	89.19
654.806	94.19
655.01	68.19
655.214	85.19
655.418	93.19
655.622	98.19
655.826	79.19
656.03	82.19
656.234	87.19
656.438	92.19
656.642	86.19
656.846	92.19
657.049	86.19
657.253	97.19
657.457	88.19
657.661	80.19
657.865	88.19
658.068	95.19
658.272	84.19
658.476	87.19
658.68	86.19
658.883	77.19
659.087	102.19
659.291	85.19
659.494	95.19
659.698	89.19
659.901	83.19
660.105	73.19
660.309	97.19
660.512	101.19
660.716	96.19
660.919	85.19
661.123	89.19
661.326	79.19
661.53	100.19
661.733	84.19
661.936	91.19
662.14	84.19
662.343	79.19
662.546	67.19
662.75	80.19
662.953	97.19
663.156	70.19
663.36	73.19
663.563	87.19
663.766	83.19
663.969	84.19
664.173	73.19
664.376	78.19
664.579	90.19
664.782	98.19
664.985	64.19
665.188	90.19
665.391	79.19
665.594	79.19
665.797	86.19
666	86.19
666.203	80.19
666.406	81.19
666.609	80.19
666.812	79.19
667.015	69.19
667.218	85.19
667.421	88.19
667.624	90.19
667.827	76.19
668.03	79.19
668.232	73.19
668.435	75.19
668.638	84.19
668.841	82.19
669.043	84.19
669.246	98.19
669.449	87.19
669.651	87.19
669.854	84.19
670.057	92.19
670.259	72.19
670.462	82.19
670.665	81.19
670.867	80.19
671.07	79.19
671.272	85.19
671.475	84.19
671.677	82.19
671.88	87.19
672.082	81.19
672.284	86.19
672.487	99.19
672.689	75.19
672.892	76.19
