Data from NickelSpatula.Lamp.E5.5.P2_HRD10591_11-51-12-563.txt Node
Date: Tue Jul 23 11:51:12 EDT 2019
User: cochatt
Spectrometer: HR+D1059
Trigger mode: 1
Integration Time (sec): 1.000000E-1
Scans to average: 1
Electric dark correction enabled: true
Nonlinearity correction enabled: false
Boxcar width: 0
XAxis mode: Wavelengths
Number of Pixels in Spectrum: 2048
>>>>>Begin Spectral Data<<<<<
223.165	-19.81
223.4	-19.81
223.635	-19.81
223.869	-17.81
224.104	-29.81
224.338	-12.81
224.573	-20.81
224.808	-7.81
225.042	-19.81
225.277	8.19
225.511	-5.81
225.746	0.19
225.98	4.19
226.215	28.19
226.449	16.19
226.683	16.19
226.918	29.19
227.152	32.19
227.387	23.19
227.621	25.19
227.856	54.19
228.09	62.19
228.324	45.19
228.559	41.19
228.793	49.19
229.027	65.19
229.262	85.19
229.496	67.19
229.73	77.19
229.964	76.19
230.199	97.19
230.433	92.19
230.667	90.19
230.901	93.19
231.136	97.19
231.37	80.19
231.604	80.19
231.838	108.19
232.072	108.19
232.306	104.19
232.541	106.19
232.775	100.19
233.009	106.19
233.243	105.19
233.477	123.19
233.711	117.19
233.945	112.19
234.179	125.19
234.413	106.19
234.647	111.19
234.881	140.19
235.115	114.19
235.349	119.19
235.583	108.19
235.817	116.19
236.051	113.19
236.285	123.19
236.519	120.19
236.753	117.19
236.987	124.19
237.221	113.19
237.455	104.19
237.689	119.19
237.922	129.19
238.156	127.19
238.39	127.19
238.624	141.19
238.858	128.19
239.091	120.19
239.325	132.19
239.559	125.19
239.793	127.19
240.027	158.19
240.26	156.19
240.494	133.19
240.728	146.19
240.961	159.19
241.195	149.19
241.429	140.19
241.662	141.19
241.896	142.19
242.13	139.19
242.363	130.19
242.597	136.19
242.83	137.19
243.064	133.19
243.298	153.19
243.531	146.19
243.765	162.19
243.998	149.19
244.232	136.19
244.465	146.19
244.699	151.19
244.932	142.19
245.166	139.19
245.399	150.19
245.633	128.19
245.866	132.19
246.099	150.19
246.333	157.19
246.566	174.19
246.8	158.19
247.033	153.19
247.266	136.19
247.5	168.19
247.733	165.19
247.966	148.19
248.2	147.19
248.433	154.19
248.666	181.19
248.899	182.19
249.133	179.19
249.366	188.19
249.599	208.19
249.832	185.19
250.066	180.19
250.299	177.19
250.532	170.19
250.765	176.19
250.998	176.19
251.231	162.19
251.465	179.19
251.698	181.19
251.931	182.19
252.164	195.19
252.397	182.19
252.63	184.19
252.863	211.19
253.096	225.19
253.329	221.19
253.562	215.19
253.795	219.19
254.028	242.19
254.261	264.19
254.494	236.19
254.727	202.19
254.96	215.19
255.193	224.19
255.426	212.19
255.659	184.19
255.892	192.19
256.124	197.19
256.357	205.19
256.59	217.19
256.823	223.19
257.056	210.19
257.289	188.19
257.521	221.19
257.754	235.19
257.987	246.19
258.22	234.19
258.452	198.19
258.685	218.19
258.918	242.19
259.151	236.19
259.383	255.19
259.616	271.19
259.849	287.19
260.081	290.19
260.314	323.19
260.547	269.19
260.779	244.19
261.012	284.19
261.244	285.19
261.477	278.19
261.71	275.19
261.942	229.19
262.175	215.19
262.407	232.19
262.64	233.19
262.872	254.19
263.105	282.19
263.337	304.19
263.57	279.19
263.802	202.19
264.035	201.19
264.267	195.19
264.499	173.19
264.732	168.19
264.964	158.19
265.197	174.19
265.429	180.19
265.661	182.19
265.894	192.19
266.126	202.19
266.358	201.19
266.591	270.19
266.823	288.19
267.055	270.19
267.287	242.19
267.52	242.19
267.752	259.19
267.984	297.19
268.216	264.19
268.448	240.19
268.681	237.19
268.913	252.19
269.145	255.19
269.377	255.19
269.609	267.19
269.841	231.19
270.073	246.19
270.306	274.19
270.538	277.19
270.77	274.19
271.002	278.19
271.234	276.19
271.466	295.19
271.698	280.19
271.93	253.19
272.162	250.19
272.394	263.19
272.626	255.19
272.858	284.19
273.09	272.19
273.322	258.19
273.553	228.19
273.785	255.19
274.017	308.19
274.249	371.19
274.481	396.19
274.713	394.19
274.945	457.19
275.176	476.19
275.408	432.19
275.64	416.19
275.872	403.19
276.104	369.19
276.335	336.19
276.567	340.19
276.799	338.19
277.031	337.19
277.262	302.19
277.494	259.19
277.726	239.19
277.957	249.19
278.189	279.19
278.421	266.19
278.652	273.19
278.884	266.19
279.115	246.19
279.347	244.19
279.579	238.19
279.81	250.19
280.042	247.19
280.273	263.19
280.505	232.19
280.736	216.19
280.968	191.19
281.199	219.19
281.431	233.19
281.662	252.19
281.894	259.19
282.125	246.19
282.356	263.19
282.588	262.19
282.819	252.19
283.051	275.19
283.282	302.19
283.513	354.19
283.745	355.19
283.976	384.19
284.207	354.19
284.439	349.19
284.67	352.19
284.901	329.19
285.132	337.19
285.364	351.19
285.595	326.19
285.826	345.19
286.057	342.19
286.288	342.19
286.52	354.19
286.751	370.19
286.982	372.19
287.213	351.19
287.444	319.19
287.675	321.19
287.906	328.19
288.138	290.19
288.369	277.19
288.6	266.19
288.831	269.19
289.062	304.19
289.293	342.19
289.524	290.19
289.755	303.19
289.986	316.19
290.217	292.19
290.448	233.19
290.679	217.19
290.91	193.19
291.141	192.19
291.371	223.19
291.602	233.19
291.833	211.19
292.064	222.19
292.295	233.19
292.526	263.19
292.757	306.19
292.987	305.19
293.218	297.19
293.449	326.19
293.68	320.19
293.91	329.19
294.141	302.19
294.372	306.19
294.603	285.19
294.833	304.19
295.064	325.19
295.295	320.19
295.525	270.19
295.756	258.19
295.987	220.19
296.217	212.19
296.448	206.19
296.679	228.19
296.909	237.19
297.14	250.19
297.37	276.19
297.601	262.19
297.831	236.19
298.062	231.19
298.292	268.19
298.523	273.19
298.753	308.19
298.984	293.19
299.214	256.19
299.445	241.19
299.675	228.19
299.905	217.19
300.136	239.19
300.366	239.19
300.597	223.19
300.827	218.19
301.057	220.19
301.288	237.19
301.518	231.19
301.748	262.19
301.979	283.19
302.209	266.19
302.439	268.19
302.669	249.19
302.9	254.19
303.13	248.19
303.36	222.19
303.59	246.19
303.82	232.19
304.051	259.19
304.281	269.19
304.511	266.19
304.741	236.19
304.971	252.19
305.201	262.19
305.431	258.19
305.661	233.19
305.891	228.19
306.121	221.19
306.352	220.19
306.582	206.19
306.812	194.19
307.042	199.19
307.272	197.19
307.502	166.19
307.731	191.19
307.961	212.19
308.191	196.19
308.421	198.19
308.651	199.19
308.881	186.19
309.111	194.19
309.341	177.19
309.571	194.19
309.8	198.19
310.03	209.19
310.26	223.19
310.49	218.19
310.72	205.19
310.949	192.19
311.179	202.19
311.409	210.19
311.639	238.19
311.868	270.19
312.098	337.19
312.328	331.19
312.557	343.19
312.787	336.19
313.017	307.19
313.246	316.19
313.476	331.19
313.706	306.19
313.935	280.19
314.165	224.19
314.394	213.19
314.624	215.19
314.853	226.19
315.083	219.19
315.312	222.19
315.542	232.19
315.771	214.19
316.001	187.19
316.23	183.19
316.46	193.19
316.689	198.19
316.919	205.19
317.148	193.19
317.377	184.19
317.607	197.19
317.836	205.19
318.065	229.19
318.295	228.19
318.524	233.19
318.753	191.19
318.983	186.19
319.212	211.19
319.441	216.19
319.67	216.19
319.9	231.19
320.129	219.19
320.358	219.19
320.587	195.19
320.816	213.19
321.046	239.19
321.275	248.19
321.504	251.19
321.733	235.19
321.962	241.19
322.191	242.19
322.42	225.19
322.649	222.19
322.878	233.19
323.108	250.19
323.337	218.19
323.566	236.19
323.795	250.19
324.024	228.19
324.253	216.19
324.482	201.19
324.71	224.19
324.939	244.19
325.168	217.19
325.397	213.19
325.626	211.19
325.855	202.19
326.084	206.19
326.313	205.19
326.542	188.19
326.77	198.19
326.999	192.19
327.228	199.19
327.457	233.19
327.686	227.19
327.914	191.19
328.143	204.19
328.372	176.19
328.6	194.19
328.829	193.19
329.058	186.19
329.287	195.19
329.515	208.19
329.744	195.19
329.972	213.19
330.201	178.19
330.43	199.19
330.658	205.19
330.887	218.19
331.115	218.19
331.344	217.19
331.572	224.19
331.801	217.19
332.03	192.19
332.258	201.19
332.486	202.19
332.715	234.19
332.943	219.19
333.172	220.19
333.4	224.19
333.629	246.19
333.857	263.19
334.085	254.19
334.314	237.19
334.542	244.19
334.771	214.19
334.999	213.19
335.227	201.19
335.455	195.19
335.684	224.19
335.912	244.19
336.14	265.19
336.369	273.19
336.597	261.19
336.825	282.19
337.053	284.19
337.281	251.19
337.51	214.19
337.738	212.19
337.966	221.19
338.194	231.19
338.422	248.19
338.65	234.19
338.878	202.19
339.106	202.19
339.334	221.19
339.562	238.19
339.79	221.19
340.018	205.19
340.246	226.19
340.474	221.19
340.702	259.19
340.93	259.19
341.158	272.19
341.386	232.19
341.614	226.19
341.842	225.19
342.07	228.19
342.298	253.19
342.526	255.19
342.754	251.19
342.981	236.19
343.209	225.19
343.437	246.19
343.665	257.19
343.893	254.19
344.12	304.19
344.348	311.19
344.576	292.19
344.804	251.19
345.031	217.19
345.259	215.19
345.487	211.19
345.714	203.19
345.942	229.19
346.17	250.19
346.397	240.19
346.625	240.19
346.853	237.19
347.08	226.19
347.308	203.19
347.535	242.19
347.763	238.19
347.99	219.19
348.218	209.19
348.445	248.19
348.673	210.19
348.9	221.19
349.128	243.19
349.355	231.19
349.583	236.19
349.81	222.19
350.037	205.19
350.265	183.19
350.492	183.19
350.72	193.19
350.947	188.19
351.174	207.19
351.402	208.19
351.629	217.19
351.856	197.19
352.083	211.19
352.311	208.19
352.538	245.19
352.765	240.19
352.992	214.19
353.22	214.19
353.447	226.19
353.674	223.19
353.901	214.19
354.128	220.19
354.355	225.19
354.583	217.19
354.81	236.19
355.037	244.19
355.264	233.19
355.491	237.19
355.718	225.19
355.945	232.19
356.172	245.19
356.399	223.19
356.626	252.19
356.853	307.19
357.08	304.19
357.307	354.19
357.534	289.19
357.761	293.19
357.988	345.19
358.215	369.19
358.441	341.19
358.668	318.19
358.895	294.19
359.122	257.19
359.349	256.19
359.576	276.19
359.802	258.19
360.029	222.19
360.256	223.19
360.483	263.19
360.709	302.19
360.936	325.19
361.163	282.19
361.39	211.19
361.616	229.19
361.843	228.19
362.07	287.19
362.296	270.19
362.523	233.19
362.749	218.19
362.976	215.19
363.203	248.19
363.429	266.19
363.656	227.19
363.882	221.19
364.109	229.19
364.335	222.19
364.562	201.19
364.788	237.19
365.015	239.19
365.241	229.19
365.468	225.19
365.694	183.19
365.92	200.19
366.147	189.19
366.373	192.19
366.599	182.19
366.826	189.19
367.052	195.19
367.278	186.19
367.505	194.19
367.731	195.19
367.957	213.19
368.184	203.19
368.41	208.19
368.636	254.19
368.862	224.19
369.089	222.19
369.315	217.19
369.541	205.19
369.767	200.19
369.993	202.19
370.219	208.19
370.445	194.19
370.672	226.19
370.898	236.19
371.124	229.19
371.35	219.19
371.576	210.19
371.802	218.19
372.028	247.19
372.254	276.19
372.48	230.19
372.706	245.19
372.932	250.19
373.158	258.19
373.384	274.19
373.61	328.19
373.835	337.19
374.061	274.19
374.287	242.19
374.513	286.19
374.739	316.19
374.965	340.19
375.191	318.19
375.416	252.19
375.642	232.19
375.868	256.19
376.094	270.19
376.319	244.19
376.545	270.19
376.771	280.19
376.997	248.19
377.222	207.19
377.448	203.19
377.674	198.19
377.899	194.19
378.125	185.19
378.35	184.19
378.576	195.19
378.802	211.19
379.027	204.19
379.253	220.19
379.478	197.19
379.704	217.19
379.929	240.19
380.155	250.19
380.38	214.19
380.606	220.19
380.831	233.19
381.057	238.19
381.282	223.19
381.507	249.19
381.733	269.19
381.958	313.19
382.184	300.19
382.409	313.19
382.634	338.19
382.86	336.19
383.085	281.19
383.31	255.19
383.535	266.19
383.761	261.19
383.986	237.19
384.211	280.19
384.436	296.19
384.662	228.19
384.887	231.19
385.112	264.19
385.337	256.19
385.562	243.19
385.787	246.19
386.013	294.19
386.238	286.19
386.463	233.19
386.688	231.19
386.913	206.19
387.138	212.19
387.363	209.19
387.588	240.19
387.813	212.19
388.038	247.19
388.263	218.19
388.488	245.19
388.713	258.19
388.938	278.19
389.163	245.19
389.387	209.19
389.612	230.19
389.837	223.19
390.062	221.19
390.287	233.19
390.512	234.19
390.736	212.19
390.961	214.19
391.186	212.19
391.411	207.19
391.636	227.19
391.86	223.19
392.085	252.19
392.31	262.19
392.534	229.19
392.759	209.19
392.984	237.19
393.208	247.19
393.433	225.19
393.658	214.19
393.882	191.19
394.107	212.19
394.331	205.19
394.556	202.19
394.78	202.19
395.005	194.19
395.229	205.19
395.454	215.19
395.678	227.19
395.903	235.19
396.127	219.19
396.352	224.19
396.576	224.19
396.801	232.19
397.025	248.19
397.249	242.19
397.474	202.19
397.698	217.19
397.922	224.19
398.147	220.19
398.371	233.19
398.595	233.19
398.82	229.19
399.044	238.19
399.268	277.19
399.492	275.19
399.717	294.19
399.941	272.19
400.165	268.19
400.389	275.19
400.613	247.19
400.837	227.19
401.062	219.19
401.286	224.19
401.51	222.19
401.734	211.19
401.958	242.19
402.182	229.19
402.406	233.19
402.63	242.19
402.854	250.19
403.078	262.19
403.302	364.19
403.526	343.19
403.75	320.19
403.974	281.19
404.198	286.19
404.422	312.19
404.645	333.19
404.869	326.19
405.093	290.19
405.317	254.19
405.541	271.19
405.765	256.19
405.988	254.19
406.212	265.19
406.436	283.19
406.66	302.19
406.883	268.19
407.107	283.19
407.331	308.19
407.555	304.19
407.778	270.19
408.002	282.19
408.226	266.19
408.449	268.19
408.673	271.19
408.896	233.19
409.12	225.19
409.344	232.19
409.567	234.19
409.791	257.19
410.014	233.19
410.238	253.19
410.461	233.19
410.685	226.19
410.908	215.19
411.132	232.19
411.355	229.19
411.578	252.19
411.802	229.19
412.025	240.19
412.249	237.19
412.472	230.19
412.695	236.19
412.919	228.19
413.142	223.19
413.365	236.19
413.589	237.19
413.812	230.19
414.035	221.19
414.258	227.19
414.482	251.19
414.705	260.19
414.928	238.19
415.151	229.19
415.374	225.19
415.597	231.19
415.821	249.19
416.044	231.19
416.267	240.19
416.49	232.19
416.713	229.19
416.936	217.19
417.159	198.19
417.382	222.19
417.605	223.19
417.828	232.19
418.051	239.19
418.274	238.19
418.497	213.19
418.72	233.19
418.943	240.19
419.166	228.19
419.389	252.19
419.611	247.19
419.834	250.19
420.057	259.19
420.28	258.19
420.503	236.19
420.726	215.19
420.948	213.19
421.171	227.19
421.394	226.19
421.617	220.19
421.839	226.19
422.062	242.19
422.285	232.19
422.507	217.19
422.73	228.19
422.953	233.19
423.175	231.19
423.398	233.19
423.621	255.19
423.843	256.19
424.066	248.19
424.288	256.19
424.511	238.19
424.733	234.19
424.956	236.19
425.178	261.19
425.401	301.19
425.623	330.19
425.846	296.19
426.068	241.19
426.291	254.19
426.513	250.19
426.735	222.19
426.958	244.19
427.18	260.19
427.402	330.19
427.625	335.19
427.847	293.19
428.069	240.19
428.292	219.19
428.514	228.19
428.736	236.19
428.958	229.19
429.181	288.19
429.403	234.19
429.625	227.19
429.847	212.19
430.069	231.19
430.292	226.19
430.514	206.19
430.736	221.19
430.958	264.19
431.18	257.19
431.402	209.19
431.624	209.19
431.846	215.19
432.068	207.19
432.29	230.19
432.512	219.19
432.734	255.19
432.956	266.19
433.178	227.19
433.4	206.19
433.622	228.19
433.844	220.19
434.066	247.19
434.287	228.19
434.509	252.19
434.731	270.19
434.953	239.19
435.175	241.19
435.397	257.19
435.618	240.19
435.84	215.19
436.062	229.19
436.284	229.19
436.505	210.19
436.727	220.19
436.949	217.19
437.17	222.19
437.392	209.19
437.614	206.19
437.835	224.19
438.057	223.19
438.278	236.19
438.5	291.19
438.721	283.19
438.943	228.19
439.165	217.19
439.386	198.19
439.608	209.19
439.829	211.19
440.05	200.19
440.272	220.19
440.493	246.19
440.715	278.19
440.936	249.19
441.158	216.19
441.379	237.19
441.6	252.19
441.822	233.19
442.043	209.19
442.264	226.19
442.486	233.19
442.707	252.19
442.928	240.19
443.149	261.19
443.371	244.19
443.592	240.19
443.813	245.19
444.034	244.19
444.255	242.19
444.476	249.19
444.698	242.19
444.919	262.19
445.14	336.19
445.361	267.19
445.582	246.19
445.803	237.19
446.024	240.19
446.245	243.19
446.466	226.19
446.687	209.19
446.908	221.19
447.129	210.19
447.35	213.19
447.571	219.19
447.792	208.19
448.013	223.19
448.234	196.19
448.455	196.19
448.675	197.19
448.896	208.19
449.117	204.19
449.338	213.19
449.559	218.19
449.779	233.19
450	222.19
450.221	208.19
450.442	208.19
450.662	211.19
450.883	213.19
451.104	211.19
451.324	229.19
451.545	214.19
451.766	208.19
451.986	192.19
452.207	207.19
452.428	205.19
452.648	226.19
452.869	202.19
453.089	215.19
453.31	216.19
453.53	199.19
453.751	202.19
453.971	193.19
454.192	206.19
454.412	221.19
454.633	206.19
454.853	204.19
455.073	189.19
455.294	202.19
455.514	192.19
455.734	199.19
455.955	200.19
456.175	212.19
456.395	187.19
456.616	188.19
456.836	178.19
457.056	184.19
457.276	199.19
457.497	196.19
457.717	191.19
457.937	196.19
458.157	189.19
458.377	185.19
458.598	182.19
458.818	194.19
459.038	210.19
459.258	224.19
459.478	217.19
459.698	220.19
459.918	232.19
460.138	236.19
460.358	238.19
460.578	224.19
460.798	231.19
461.018	230.19
461.238	243.19
461.458	228.19
461.678	246.19
461.898	240.19
462.118	265.19
462.338	240.19
462.558	257.19
462.777	262.19
462.997	271.19
463.217	278.19
463.437	286.19
463.657	292.19
463.876	264.19
464.096	254.19
464.316	246.19
464.536	265.19
464.755	270.19
464.975	270.19
465.195	269.19
465.414	252.19
465.634	228.19
465.854	249.19
466.073	199.19
466.293	236.19
466.512	227.19
466.732	237.19
466.951	239.19
467.171	227.19
467.391	216.19
467.61	219.19
467.829	222.19
468.049	225.19
468.268	218.19
468.488	214.19
468.707	220.19
468.927	220.19
469.146	250.19
469.365	236.19
469.585	219.19
469.804	231.19
470.023	248.19
470.243	230.19
470.462	227.19
470.681	219.19
470.901	223.19
471.12	256.19
471.339	244.19
471.558	241.19
471.777	214.19
471.997	229.19
472.216	233.19
472.435	237.19
472.654	236.19
472.873	233.19
473.092	239.19
473.311	246.19
473.53	220.19
473.749	224.19
473.968	236.19
474.187	211.19
474.406	200.19
474.625	217.19
474.844	232.19
475.063	216.19
475.282	225.19
475.501	248.19
475.72	266.19
475.939	249.19
476.158	218.19
476.377	290.19
476.596	302.19
476.814	320.19
477.033	287.19
477.252	249.19
477.471	228.19
477.69	232.19
477.908	247.19
478.127	271.19
478.346	269.19
478.564	265.19
478.783	264.19
479.002	267.19
479.22	286.19
479.439	298.19
479.658	281.19
479.876	248.19
480.095	264.19
480.313	295.19
480.532	273.19
480.751	278.19
480.969	255.19
481.188	262.19
481.406	272.19
481.624	270.19
481.843	252.19
482.061	247.19
482.28	282.19
482.498	318.19
482.717	300.19
482.935	273.19
483.153	266.19
483.372	250.19
483.59	260.19
483.808	244.19
484.027	239.19
484.245	246.19
484.463	258.19
484.681	246.19
484.9	250.19
485.118	261.19
485.336	248.19
485.554	254.19
485.772	259.19
485.99	271.19
486.209	293.19
486.427	276.19
486.645	261.19
486.863	273.19
487.081	276.19
487.299	293.19
487.517	294.19
487.735	272.19
487.953	277.19
488.171	272.19
488.389	272.19
488.607	277.19
488.825	243.19
489.043	291.19
489.261	303.19
489.479	295.19
489.696	281.19
489.914	285.19
490.132	261.19
490.35	266.19
490.568	270.19
490.786	266.19
491.003	265.19
491.221	256.19
491.439	261.19
491.657	256.19
491.874	258.19
492.092	306.19
492.31	338.19
492.527	332.19
492.745	312.19
492.963	293.19
493.18	264.19
493.398	286.19
493.615	296.19
493.833	279.19
494.05	270.19
494.268	267.19
494.485	271.19
494.703	260.19
494.92	266.19
495.138	268.19
495.355	272.19
495.573	274.19
495.79	298.19
496.008	372.19
496.225	317.19
496.442	270.19
496.66	287.19
496.877	277.19
497.094	280.19
497.312	278.19
497.529	273.19
497.746	298.19
497.963	294.19
498.181	316.19
498.398	327.19
498.615	338.19
498.832	358.19
499.049	372.19
499.267	379.19
499.484	384.19
499.701	409.19
499.918	441.19
500.135	470.19
500.352	530.19
500.569	530.19
500.786	546.19
501.003	525.19
501.22	469.19
501.437	429.19
501.654	405.19
501.871	381.19
502.088	385.19
502.305	349.19
502.522	341.19
502.739	324.19
502.956	320.19
503.172	316.19
503.389	292.19
503.606	296.19
503.823	281.19
504.04	295.19
504.256	307.19
504.473	302.19
504.69	309.19
504.907	297.19
505.123	284.19
505.34	310.19
505.557	317.19
505.773	285.19
505.99	275.19
506.207	274.19
506.423	286.19
506.64	269.19
506.856	272.19
507.073	289.19
507.289	297.19
507.506	276.19
507.722	312.19
507.939	298.19
508.155	302.19
508.372	289.19
508.588	281.19
508.805	272.19
509.021	269.19
509.238	249.19
509.454	257.19
509.67	237.19
509.887	265.19
510.103	279.19
510.319	272.19
510.536	253.19
510.752	256.19
510.968	264.19
511.184	251.19
511.401	245.19
511.617	246.19
511.833	252.19
512.049	240.19
512.265	254.19
512.481	267.19
512.698	245.19
512.914	276.19
513.13	269.19
513.346	265.19
513.562	252.19
513.778	257.19
513.994	257.19
514.21	251.19
514.426	257.19
514.642	257.19
514.858	271.19
515.074	269.19
515.29	256.19
515.506	287.19
515.721	291.19
515.937	275.19
516.153	257.19
516.369	264.19
516.585	263.19
516.801	293.19
517.016	334.19
517.232	330.19
517.448	328.19
517.664	304.19
517.879	309.19
518.095	307.19
518.311	310.19
518.527	310.19
518.742	319.19
518.958	316.19
519.173	281.19
519.389	300.19
519.605	299.19
519.82	310.19
520.036	330.19
520.251	332.19
520.467	328.19
520.682	544.19
520.898	670.19
521.113	635.19
521.329	386.19
521.544	312.19
521.76	285.19
521.975	274.19
522.19	295.19
522.406	278.19
522.621	284.19
522.836	305.19
523.052	333.19
523.267	256.19
523.482	287.19
523.698	279.19
523.913	277.19
524.128	241.19
524.343	245.19
524.559	272.19
524.774	259.19
524.989	271.19
525.204	260.19
525.419	258.19
525.634	264.19
525.849	268.19
526.064	282.19
526.28	284.19
526.495	312.19
526.71	356.19
526.925	296.19
527.14	316.19
527.355	300.19
527.57	272.19
527.785	280.19
527.999	271.19
528.214	250.19
528.429	243.19
528.644	256.19
528.859	236.19
529.074	238.19
529.289	221.19
529.503	221.19
529.718	230.19
529.933	303.19
530.148	317.19
530.363	272.19
530.577	254.19
530.792	245.19
531.007	252.19
531.221	241.19
531.436	244.19
531.651	246.19
531.865	224.19
532.08	255.19
532.295	265.19
532.509	247.19
532.724	285.19
532.938	314.19
533.153	342.19
533.367	270.19
533.582	258.19
533.796	259.19
534.011	264.19
534.225	257.19
534.44	268.19
534.654	274.19
534.868	317.19
535.083	285.19
535.297	259.19
535.511	264.19
535.726	279.19
535.94	227.19
536.154	239.19
536.369	226.19
536.583	240.19
536.797	239.19
537.011	238.19
537.225	263.19
537.44	277.19
537.654	222.19
537.868	216.19
538.082	238.19
538.296	247.19
538.51	262.19
538.724	242.19
538.938	226.19
539.153	231.19
539.367	226.19
539.581	234.19
539.795	258.19
540.009	254.19
540.222	231.19
540.436	258.19
540.65	252.19
540.864	263.19
541.078	265.19
541.292	312.19
541.506	258.19
541.72	252.19
541.934	243.19
542.147	237.19
542.361	240.19
542.575	266.19
542.789	259.19
543.002	235.19
543.216	232.19
543.43	223.19
543.644	226.19
543.857	228.19
544.071	214.19
544.285	231.19
544.498	215.19
544.712	223.19
544.925	229.19
545.139	226.19
545.352	217.19
545.566	236.19
545.779	237.19
545.993	240.19
546.206	228.19
546.42	204.19
546.633	216.19
546.847	230.19
547.06	214.19
547.274	208.19
547.487	209.19
547.7	215.19
547.914	226.19
548.127	255.19
548.34	223.19
548.554	223.19
548.767	237.19
548.98	248.19
549.193	212.19
549.407	242.19
549.62	250.19
549.833	254.19
550.046	239.19
550.259	264.19
550.473	231.19
550.686	221.19
550.899	231.19
551.112	228.19
551.325	244.19
551.538	230.19
551.751	232.19
551.964	234.19
552.177	220.19
552.39	224.19
552.603	230.19
552.816	238.19
553.029	236.19
553.242	210.19
553.455	238.19
553.667	253.19
553.88	251.19
554.093	219.19
554.306	207.19
554.519	200.19
554.732	210.19
554.944	193.19
555.157	215.19
555.37	184.19
555.583	216.19
555.795	200.19
556.008	220.19
556.221	215.19
556.433	206.19
556.646	194.19
556.859	212.19
557.071	200.19
557.284	202.19
557.496	205.19
557.709	209.19
557.921	211.19
558.134	192.19
558.346	190.19
558.559	183.19
558.771	218.19
558.984	225.19
559.196	206.19
559.409	205.19
559.621	202.19
559.833	190.19
560.046	193.19
560.258	207.19
560.47	200.19
560.683	186.19
560.895	185.19
561.107	191.19
561.32	180.19
561.532	197.19
561.744	185.19
561.956	193.19
562.168	188.19
562.381	193.19
562.593	200.19
562.805	190.19
563.017	193.19
563.229	202.19
563.441	194.19
563.653	188.19
563.865	201.19
564.077	207.19
564.289	194.19
564.501	206.19
564.713	212.19
564.925	212.19
565.137	192.19
565.349	199.19
565.561	196.19
565.773	190.19
565.985	192.19
566.197	228.19
566.408	233.19
566.62	232.19
566.832	244.19
567.044	255.19
567.255	270.19
567.467	267.19
567.679	249.19
567.891	281.19
568.102	290.19
568.314	261.19
568.526	254.19
568.737	249.19
568.949	239.19
569.161	222.19
569.372	211.19
569.584	204.19
569.795	192.19
570.007	193.19
570.218	206.19
570.43	204.19
570.641	202.19
570.853	183.19
571.064	190.19
571.276	206.19
571.487	208.19
571.698	200.19
571.91	185.19
572.121	182.19
572.333	164.19
572.544	198.19
572.755	183.19
572.966	187.19
573.178	160.19
573.389	178.19
573.6	187.19
573.811	175.19
574.023	183.19
574.234	180.19
574.445	174.19
574.656	180.19
574.867	169.19
575.078	176.19
575.289	180.19
575.501	180.19
575.712	186.19
575.923	170.19
576.134	176.19
576.345	177.19
576.556	190.19
576.767	185.19
576.978	161.19
577.188	162.19
577.399	178.19
577.61	182.19
577.821	176.19
578.032	169.19
578.243	165.19
578.454	180.19
578.665	157.19
578.875	180.19
579.086	178.19
579.297	164.19
579.508	170.19
579.718	172.19
579.929	176.19
580.14	163.19
580.35	168.19
580.561	152.19
580.772	143.19
580.982	175.19
581.193	176.19
581.403	152.19
581.614	174.19
581.825	146.19
582.035	153.19
582.246	144.19
582.456	146.19
582.667	157.19
582.877	174.19
583.087	170.19
583.298	146.19
583.508	154.19
583.719	161.19
583.929	146.19
584.139	138.19
584.35	151.19
584.56	172.19
584.77	157.19
584.981	158.19
585.191	153.19
585.401	159.19
585.611	165.19
585.821	165.19
586.032	166.19
586.242	153.19
586.452	169.19
586.662	154.19
586.872	173.19
587.082	159.19
587.292	142.19
587.502	148.19
587.713	151.19
587.923	159.19
588.133	177.19
588.343	169.19
588.553	156.19
588.762	156.19
588.972	156.19
589.182	153.19
589.392	152.19
589.602	152.19
589.812	156.19
590.022	158.19
590.232	165.19
590.441	156.19
590.651	161.19
590.861	164.19
591.071	157.19
591.281	157.19
591.49	154.19
591.7	148.19
591.91	148.19
592.119	155.19
592.329	161.19
592.539	162.19
592.748	161.19
592.958	168.19
593.167	168.19
593.377	183.19
593.587	165.19
593.796	172.19
594.006	174.19
594.215	174.19
594.424	186.19
594.634	184.19
594.843	176.19
595.053	176.19
595.262	173.19
595.472	155.19
595.681	169.19
595.89	155.19
596.1	158.19
596.309	156.19
596.518	143.19
596.727	172.19
596.937	148.19
597.146	151.19
597.355	154.19
597.564	150.19
597.774	141.19
597.983	144.19
598.192	152.19
598.401	162.19
598.61	142.19
598.819	130.19
599.028	139.19
599.237	156.19
599.446	136.19
599.655	159.19
599.864	137.19
600.073	137.19
600.282	136.19
600.491	139.19
600.7	146.19
600.909	144.19
601.118	144.19
601.327	134.19
601.536	136.19
601.745	146.19
601.953	149.19
602.162	134.19
602.371	143.19
602.58	131.19
602.789	146.19
602.997	118.19
603.206	128.19
603.415	138.19
603.623	137.19
603.832	124.19
604.041	133.19
604.249	141.19
604.458	138.19
604.666	137.19
604.875	133.19
605.084	142.19
605.292	154.19
605.501	134.19
605.709	140.19
605.918	136.19
606.126	149.19
606.334	133.19
606.543	124.19
606.751	118.19
606.96	125.19
607.168	138.19
607.376	136.19
607.585	132.19
607.793	126.19
608.001	146.19
608.21	137.19
608.418	144.19
608.626	140.19
608.834	155.19
609.043	132.19
609.251	129.19
609.459	136.19
609.667	128.19
609.875	134.19
610.083	137.19
610.291	115.19
610.499	129.19
610.707	118.19
610.916	137.19
611.124	138.19
611.332	120.19
611.54	120.19
611.748	133.19
611.955	132.19
612.163	124.19
612.371	143.19
612.579	136.19
612.787	157.19
612.995	138.19
613.203	134.19
613.411	144.19
613.618	132.19
613.826	136.19
614.034	131.19
614.242	127.19
614.449	142.19
614.657	130.19
614.865	135.19
615.072	113.19
615.28	137.19
615.488	151.19
615.695	131.19
615.903	138.19
616.111	138.19
616.318	125.19
616.526	134.19
616.733	151.19
616.941	126.19
617.148	142.19
617.356	124.19
617.563	136.19
617.771	133.19
617.978	117.19
618.185	136.19
618.393	132.19
618.6	141.19
618.807	128.19
619.015	126.19
619.222	135.19
619.429	111.19
619.637	133.19
619.844	127.19
620.051	125.19
620.258	130.19
620.466	129.19
620.673	126.19
620.88	136.19
621.087	146.19
621.294	130.19
621.501	143.19
621.708	132.19
621.915	124.19
622.122	118.19
622.329	110.19
622.536	127.19
622.743	118.19
622.95	122.19
623.157	128.19
623.364	121.19
623.571	126.19
623.778	117.19
623.985	128.19
624.192	133.19
624.399	148.19
624.606	132.19
624.812	113.19
625.019	121.19
625.226	110.19
625.433	116.19
625.639	132.19
625.846	117.19
626.053	109.19
626.259	113.19
626.466	140.19
626.673	113.19
626.879	125.19
627.086	115.19
627.293	126.19
627.499	128.19
627.706	115.19
627.912	123.19
628.119	111.19
628.325	108.19
628.532	118.19
628.738	124.19
628.945	121.19
629.151	126.19
629.357	112.19
629.564	127.19
629.77	99.19
629.976	117.19
630.183	119.19
630.389	123.19
630.595	128.19
630.802	106.19
631.008	108.19
631.214	122.19
631.42	124.19
631.627	118.19
631.833	128.19
632.039	122.19
632.245	101.19
632.451	111.19
632.657	120.19
632.863	115.19
633.069	118.19
633.275	120.19
633.481	115.19
633.688	124.19
633.893	106.19
634.099	110.19
634.305	116.19
634.511	111.19
634.717	121.19
634.923	116.19
635.129	108.19
635.335	104.19
635.541	111.19
635.747	104.19
635.952	114.19
636.158	119.19
636.364	113.19
636.57	114.19
636.775	115.19
636.981	116.19
637.187	118.19
637.392	105.19
637.598	98.19
637.804	111.19
638.009	128.19
638.215	122.19
638.421	99.19
638.626	115.19
638.832	111.19
639.037	105.19
639.243	111.19
639.448	105.19
639.654	132.19
639.859	120.19
640.065	122.19
640.27	125.19
640.475	114.19
640.681	114.19
640.886	109.19
641.091	114.19
641.297	105.19
641.502	105.19
641.707	107.19
641.913	118.19
642.118	100.19
642.323	122.19
642.528	118.19
642.733	114.19
642.939	114.19
643.144	116.19
643.349	111.19
643.554	112.19
643.759	117.19
643.964	105.19
644.169	110.19
644.374	124.19
644.579	111.19
644.784	113.19
644.989	114.19
645.194	108.19
645.399	113.19
645.604	101.19
645.809	115.19
646.014	121.19
646.219	118.19
646.423	109.19
646.628	103.19
646.833	103.19
647.038	126.19
647.243	104.19
647.447	105.19
647.652	105.19
647.857	112.19
648.062	120.19
648.266	124.19
648.471	108.19
648.676	126.19
648.88	123.19
649.085	114.19
649.289	124.19
649.494	110.19
649.698	109.19
649.903	121.19
650.107	108.19
650.312	114.19
650.516	112.19
650.721	116.19
650.925	105.19
651.13	115.19
651.334	111.19
651.539	105.19
651.743	116.19
651.947	97.19
652.152	100.19
652.356	100.19
652.56	110.19
652.764	114.19
652.969	106.19
653.173	116.19
653.377	95.19
653.581	98.19
653.785	108.19
653.99	98.19
654.194	94.19
654.398	95.19
654.602	112.19
654.806	105.19
655.01	110.19
655.214	100.19
655.418	95.19
655.622	102.19
655.826	101.19
656.03	97.19
656.234	106.19
656.438	85.19
656.642	98.19
656.846	96.19
657.049	89.19
657.253	112.19
657.457	105.19
657.661	89.19
657.865	89.19
658.068	83.19
658.272	101.19
658.476	90.19
658.68	96.19
658.883	73.19
659.087	79.19
659.291	92.19
659.494	71.19
659.698	86.19
659.901	85.19
660.105	95.19
660.309	88.19
660.512	102.19
660.716	86.19
660.919	102.19
661.123	112.19
661.326	66.19
661.53	103.19
661.733	93.19
661.936	88.19
662.14	84.19
662.343	87.19
662.546	81.19
662.75	87.19
662.953	82.19
663.156	84.19
663.36	80.19
663.563	91.19
663.766	82.19
663.969	76.19
664.173	70.19
664.376	81.19
664.579	92.19
664.782	77.19
664.985	66.19
665.188	64.19
665.391	81.19
665.594	88.19
665.797	81.19
666	88.19
666.203	95.19
666.406	90.19
666.609	75.19
666.812	84.19
667.015	79.19
667.218	75.19
667.421	87.19
667.624	83.19
667.827	83.19
668.03	93.19
668.232	84.19
668.435	80.19
668.638	77.19
668.841	80.19
669.043	77.19
669.246	72.19
669.449	84.19
669.651	72.19
669.854	70.19
670.057	88.19
670.259	86.19
670.462	85.19
670.665	68.19
670.867	77.19
671.07	82.19
671.272	89.19
671.475	92.19
671.677	85.19
671.88	79.19
672.082	64.19
672.284	82.19
672.487	91.19
672.689	90.19
672.892	87.19
