Data from NickelSpatula.Lamp.E5.5.P2_HRD10591_11-51-27-560.txt Node
Date: Tue Jul 23 11:51:27 EDT 2019
User: cochatt
Spectrometer: HR+D1059
Trigger mode: 1
Integration Time (sec): 1.000000E-1
Scans to average: 1
Electric dark correction enabled: true
Nonlinearity correction enabled: false
Boxcar width: 0
XAxis mode: Wavelengths
Number of Pixels in Spectrum: 2048
>>>>>Begin Spectral Data<<<<<
223.165	-6.81
223.4	-6.81
223.635	-6.81
223.869	-7.81
224.104	-15.81
224.338	-9.81
224.573	-7.81
224.808	-3.81
225.042	-0.81
225.277	-11.81
225.511	0.19
225.746	-10.81
225.98	8.19
226.215	2.19
226.449	4.19
226.683	7.19
226.918	22.19
227.152	31.19
227.387	26.19
227.621	30.19
227.856	44.19
228.09	42.19
228.324	53.19
228.559	59.19
228.793	59.19
229.027	67.19
229.262	77.19
229.496	80.19
229.73	86.19
229.964	104.19
230.199	100.19
230.433	94.19
230.667	98.19
230.901	98.19
231.136	97.19
231.37	92.19
231.604	80.19
231.838	105.19
232.072	113.19
232.306	109.19
232.541	111.19
232.775	95.19
233.009	106.19
233.243	121.19
233.477	109.19
233.711	111.19
233.945	127.19
234.179	109.19
234.413	131.19
234.647	124.19
234.881	144.19
235.115	131.19
235.349	117.19
235.583	131.19
235.817	115.19
236.051	123.19
236.285	120.19
236.519	137.19
236.753	135.19
236.987	121.19
237.221	137.19
237.455	123.19
237.689	129.19
237.922	135.19
238.156	142.19
238.39	151.19
238.624	167.19
238.858	152.19
239.091	145.19
239.325	140.19
239.559	136.19
239.793	148.19
240.027	176.19
240.26	169.19
240.494	160.19
240.728	156.19
240.961	167.19
241.195	175.19
241.429	167.19
241.662	172.19
241.896	132.19
242.13	131.19
242.363	131.19
242.597	142.19
242.83	141.19
243.064	144.19
243.298	158.19
243.531	167.19
243.765	162.19
243.998	147.19
244.232	149.19
244.465	158.19
244.699	154.19
244.932	178.19
245.166	156.19
245.399	158.19
245.633	147.19
245.866	147.19
246.099	173.19
246.333	171.19
246.566	177.19
246.8	177.19
247.033	182.19
247.266	168.19
247.5	181.19
247.733	167.19
247.966	151.19
248.2	164.19
248.433	172.19
248.666	188.19
248.899	171.19
249.133	177.19
249.366	219.19
249.599	220.19
249.832	211.19
250.066	187.19
250.299	202.19
250.532	197.19
250.765	196.19
250.998	176.19
251.231	183.19
251.465	185.19
251.698	200.19
251.931	190.19
252.164	191.19
252.397	198.19
252.63	222.19
252.863	255.19
253.096	262.19
253.329	231.19
253.562	241.19
253.795	265.19
254.028	284.19
254.261	288.19
254.494	264.19
254.727	256.19
254.96	262.19
255.193	261.19
255.426	239.19
255.659	208.19
255.892	207.19
256.124	206.19
256.357	242.19
256.59	271.19
256.823	269.19
257.056	214.19
257.289	216.19
257.521	220.19
257.754	273.19
257.987	290.19
258.22	256.19
258.452	230.19
258.685	249.19
258.918	259.19
259.151	259.19
259.383	285.19
259.616	328.19
259.849	351.19
260.081	357.19
260.314	414.19
260.547	323.19
260.779	305.19
261.012	357.19
261.244	345.19
261.477	353.19
261.71	329.19
261.942	274.19
262.175	278.19
262.407	265.19
262.64	279.19
262.872	316.19
263.105	339.19
263.337	368.19
263.57	322.19
263.802	233.19
264.035	227.19
264.267	203.19
264.499	194.19
264.732	191.19
264.964	183.19
265.197	184.19
265.429	183.19
265.661	191.19
265.894	205.19
266.126	223.19
266.358	227.19
266.591	258.19
266.823	304.19
267.055	288.19
267.287	255.19
267.52	260.19
267.752	292.19
267.984	305.19
268.216	312.19
268.448	256.19
268.681	257.19
268.913	272.19
269.145	283.19
269.377	286.19
269.609	281.19
269.841	259.19
270.073	293.19
270.306	316.19
270.538	301.19
270.77	299.19
271.002	287.19
271.234	316.19
271.466	299.19
271.698	305.19
271.93	283.19
272.162	294.19
272.394	295.19
272.626	296.19
272.858	296.19
273.09	297.19
273.322	245.19
273.553	276.19
273.785	281.19
274.017	357.19
274.249	456.19
274.481	475.19
274.713	507.19
274.945	575.19
275.176	584.19
275.408	537.19
275.64	519.19
275.872	480.19
276.104	415.19
276.335	394.19
276.567	379.19
276.799	391.19
277.031	405.19
277.262	324.19
277.494	279.19
277.726	238.19
277.957	288.19
278.189	296.19
278.421	297.19
278.652	313.19
278.884	278.19
279.115	263.19
279.347	273.19
279.579	257.19
279.81	269.19
280.042	279.19
280.273	277.19
280.505	261.19
280.736	235.19
280.968	228.19
281.199	255.19
281.431	261.19
281.662	256.19
281.894	264.19
282.125	265.19
282.356	308.19
282.588	298.19
282.819	271.19
283.051	291.19
283.282	333.19
283.513	382.19
283.745	417.19
283.976	426.19
284.207	397.19
284.439	409.19
284.67	392.19
284.901	337.19
285.132	383.19
285.364	406.19
285.595	357.19
285.826	375.19
286.057	389.19
286.288	355.19
286.52	402.19
286.751	420.19
286.982	416.19
287.213	376.19
287.444	338.19
287.675	371.19
287.906	360.19
288.138	313.19
288.369	310.19
288.6	276.19
288.831	286.19
289.062	323.19
289.293	355.19
289.524	354.19
289.755	322.19
289.986	348.19
290.217	307.19
290.448	260.19
290.679	227.19
290.91	227.19
291.141	225.19
291.371	227.19
291.602	229.19
291.833	223.19
292.064	230.19
292.295	263.19
292.526	297.19
292.757	316.19
292.987	323.19
293.218	317.19
293.449	356.19
293.68	366.19
293.91	342.19
294.141	371.19
294.372	341.19
294.603	301.19
294.833	316.19
295.064	393.19
295.295	395.19
295.525	311.19
295.756	259.19
295.987	235.19
296.217	231.19
296.448	240.19
296.679	245.19
296.909	269.19
297.14	283.19
297.37	284.19
297.601	295.19
297.831	258.19
298.062	275.19
298.292	284.19
298.523	327.19
298.753	339.19
298.984	340.19
299.214	282.19
299.445	226.19
299.675	236.19
299.905	229.19
300.136	213.19
300.366	257.19
300.597	255.19
300.827	239.19
301.057	213.19
301.288	229.19
301.518	243.19
301.748	265.19
301.979	301.19
302.209	305.19
302.439	319.19
302.669	259.19
302.9	268.19
303.13	257.19
303.36	262.19
303.59	235.19
303.82	264.19
304.051	255.19
304.281	275.19
304.511	273.19
304.741	237.19
304.971	272.19
305.201	287.19
305.431	268.19
305.661	233.19
305.891	242.19
306.121	249.19
306.352	225.19
306.582	192.19
306.812	202.19
307.042	211.19
307.272	210.19
307.502	196.19
307.731	214.19
307.961	233.19
308.191	200.19
308.421	189.19
308.651	187.19
308.881	192.19
309.111	192.19
309.341	184.19
309.571	204.19
309.8	203.19
310.03	209.19
310.26	226.19
310.49	204.19
310.72	185.19
310.949	203.19
311.179	212.19
311.409	215.19
311.639	241.19
311.868	292.19
312.098	345.19
312.328	383.19
312.557	359.19
312.787	358.19
313.017	320.19
313.246	360.19
313.476	397.19
313.706	339.19
313.935	275.19
314.165	227.19
314.394	214.19
314.624	230.19
314.853	246.19
315.083	213.19
315.312	222.19
315.542	235.19
315.771	207.19
316.001	203.19
316.23	190.19
316.46	197.19
316.689	198.19
316.919	206.19
317.148	217.19
317.377	211.19
317.607	217.19
317.836	214.19
318.065	217.19
318.295	268.19
318.524	238.19
318.753	209.19
318.983	219.19
319.212	215.19
319.441	207.19
319.67	239.19
319.9	265.19
320.129	249.19
320.358	215.19
320.587	214.19
320.816	216.19
321.046	248.19
321.275	248.19
321.504	265.19
321.733	231.19
321.962	236.19
322.191	235.19
322.42	230.19
322.649	224.19
322.878	234.19
323.108	261.19
323.337	227.19
323.566	223.19
323.795	243.19
324.024	241.19
324.253	222.19
324.482	235.19
324.71	244.19
324.939	251.19
325.168	245.19
325.397	218.19
325.626	223.19
325.855	204.19
326.084	214.19
326.313	208.19
326.542	213.19
326.77	189.19
326.999	214.19
327.228	217.19
327.457	217.19
327.686	220.19
327.914	201.19
328.143	210.19
328.372	209.19
328.6	199.19
328.829	198.19
329.058	212.19
329.287	187.19
329.515	196.19
329.744	210.19
329.972	195.19
330.201	201.19
330.43	219.19
330.658	200.19
330.887	229.19
331.115	216.19
331.344	230.19
331.572	234.19
331.801	207.19
332.03	210.19
332.258	227.19
332.486	207.19
332.715	230.19
332.943	212.19
333.172	229.19
333.4	224.19
333.629	258.19
333.857	266.19
334.085	264.19
334.314	237.19
334.542	249.19
334.771	225.19
334.999	218.19
335.227	223.19
335.455	240.19
335.684	233.19
335.912	264.19
336.14	291.19
336.369	272.19
336.597	257.19
336.825	291.19
337.053	326.19
337.281	279.19
337.51	226.19
337.738	237.19
337.966	226.19
338.194	250.19
338.422	237.19
338.65	207.19
338.878	208.19
339.106	201.19
339.334	228.19
339.562	231.19
339.79	214.19
340.018	237.19
340.246	228.19
340.474	254.19
340.702	251.19
340.93	272.19
341.158	275.19
341.386	244.19
341.614	241.19
341.842	236.19
342.07	238.19
342.298	283.19
342.526	267.19
342.754	244.19
342.981	224.19
343.209	236.19
343.437	255.19
343.665	256.19
343.893	251.19
344.12	282.19
344.348	341.19
344.576	297.19
344.804	264.19
345.031	229.19
345.259	227.19
345.487	215.19
345.714	232.19
345.942	244.19
346.17	247.19
346.397	260.19
346.625	217.19
346.853	224.19
347.08	218.19
347.308	242.19
347.535	265.19
347.763	267.19
347.99	229.19
348.218	212.19
348.445	222.19
348.673	215.19
348.9	223.19
349.128	249.19
349.355	250.19
349.583	228.19
349.81	230.19
350.037	217.19
350.265	199.19
350.492	181.19
350.72	204.19
350.947	207.19
351.174	194.19
351.402	214.19
351.629	214.19
351.856	225.19
352.083	201.19
352.311	214.19
352.538	231.19
352.765	240.19
352.992	220.19
353.22	205.19
353.447	233.19
353.674	210.19
353.901	209.19
354.128	207.19
354.355	201.19
354.583	230.19
354.81	233.19
355.037	224.19
355.264	227.19
355.491	228.19
355.718	230.19
355.945	239.19
356.172	239.19
356.399	229.19
356.626	271.19
356.853	328.19
357.08	324.19
357.307	353.19
357.534	295.19
357.761	294.19
357.988	383.19
358.215	391.19
358.441	356.19
358.668	303.19
358.895	299.19
359.122	260.19
359.349	259.19
359.576	295.19
359.802	239.19
360.029	228.19
360.256	233.19
360.483	271.19
360.709	329.19
360.936	328.19
361.163	264.19
361.39	222.19
361.616	217.19
361.843	245.19
362.07	272.19
362.296	278.19
362.523	234.19
362.749	241.19
362.976	210.19
363.203	264.19
363.429	281.19
363.656	226.19
363.882	229.19
364.109	230.19
364.335	226.19
364.562	213.19
364.788	235.19
365.015	264.19
365.241	235.19
365.468	212.19
365.694	192.19
365.92	210.19
366.147	189.19
366.373	189.19
366.599	183.19
366.826	198.19
367.052	195.19
367.278	189.19
367.505	205.19
367.731	221.19
367.957	221.19
368.184	230.19
368.41	208.19
368.636	214.19
368.862	240.19
369.089	212.19
369.315	208.19
369.541	187.19
369.767	211.19
369.993	200.19
370.219	196.19
370.445	235.19
370.672	237.19
370.898	238.19
371.124	232.19
371.35	222.19
371.576	227.19
371.802	231.19
372.028	257.19
372.254	288.19
372.48	244.19
372.706	242.19
372.932	242.19
373.158	245.19
373.384	262.19
373.61	339.19
373.835	350.19
374.061	288.19
374.287	232.19
374.513	287.19
374.739	333.19
374.965	342.19
375.191	335.19
375.416	263.19
375.642	232.19
375.868	261.19
376.094	273.19
376.319	246.19
376.545	271.19
376.771	285.19
376.997	254.19
377.222	209.19
377.448	197.19
377.674	187.19
377.899	190.19
378.125	196.19
378.35	187.19
378.576	181.19
378.802	190.19
379.027	202.19
379.253	221.19
379.478	224.19
379.704	241.19
379.929	251.19
380.155	236.19
380.38	221.19
380.606	220.19
380.831	247.19
381.057	239.19
381.282	247.19
381.507	247.19
381.733	293.19
381.958	302.19
382.184	317.19
382.409	355.19
382.634	346.19
382.86	346.19
383.085	306.19
383.31	251.19
383.535	274.19
383.761	275.19
383.986	248.19
384.211	294.19
384.436	280.19
384.662	239.19
384.887	246.19
385.112	245.19
385.337	243.19
385.562	251.19
385.787	264.19
386.013	272.19
386.238	294.19
386.463	263.19
386.688	225.19
386.913	209.19
387.138	224.19
387.363	213.19
387.588	241.19
387.813	224.19
388.038	251.19
388.263	236.19
388.488	221.19
388.713	259.19
388.938	269.19
389.163	240.19
389.387	220.19
389.612	219.19
389.837	199.19
390.062	230.19
390.287	237.19
390.512	261.19
390.736	227.19
390.961	207.19
391.186	200.19
391.411	214.19
391.636	207.19
391.86	223.19
392.085	241.19
392.31	231.19
392.534	249.19
392.759	248.19
392.984	232.19
393.208	236.19
393.433	214.19
393.658	212.19
393.882	226.19
394.107	204.19
394.331	193.19
394.556	211.19
394.78	210.19
395.005	209.19
395.229	221.19
395.454	211.19
395.678	216.19
395.903	214.19
396.127	223.19
396.352	228.19
396.576	232.19
396.801	238.19
397.025	237.19
397.249	263.19
397.474	238.19
397.698	227.19
397.922	225.19
398.147	236.19
398.371	238.19
398.595	248.19
398.82	237.19
399.044	237.19
399.268	252.19
399.492	281.19
399.717	295.19
399.941	291.19
400.165	269.19
400.389	248.19
400.613	257.19
400.837	228.19
401.062	226.19
401.286	211.19
401.51	231.19
401.734	227.19
401.958	237.19
402.182	239.19
402.406	231.19
402.63	231.19
402.854	259.19
403.078	272.19
403.302	339.19
403.526	359.19
403.75	329.19
403.974	269.19
404.198	286.19
404.422	304.19
404.645	303.19
404.869	352.19
405.093	284.19
405.317	264.19
405.541	242.19
405.765	260.19
405.988	252.19
406.212	259.19
406.436	295.19
406.66	307.19
406.883	286.19
407.107	297.19
407.331	315.19
407.555	303.19
407.778	271.19
408.002	257.19
408.226	276.19
408.449	256.19
408.673	265.19
408.896	266.19
409.12	243.19
409.344	230.19
409.567	214.19
409.791	239.19
410.014	237.19
410.238	250.19
410.461	232.19
410.685	241.19
410.908	241.19
411.132	247.19
411.355	216.19
411.578	249.19
411.802	236.19
412.025	257.19
412.249	251.19
412.472	230.19
412.695	241.19
412.919	236.19
413.142	244.19
413.365	241.19
413.589	271.19
413.812	221.19
414.035	240.19
414.258	230.19
414.482	236.19
414.705	236.19
414.928	228.19
415.151	216.19
415.374	215.19
415.597	239.19
415.821	237.19
416.044	235.19
416.267	252.19
416.49	226.19
416.713	229.19
416.936	240.19
417.159	223.19
417.382	236.19
417.605	229.19
417.828	236.19
418.051	236.19
418.274	248.19
418.497	226.19
418.72	232.19
418.943	249.19
419.166	230.19
419.389	283.19
419.611	274.19
419.834	273.19
420.057	271.19
420.28	250.19
420.503	241.19
420.726	240.19
420.948	221.19
421.171	227.19
421.394	233.19
421.617	220.19
421.839	256.19
422.062	236.19
422.285	235.19
422.507	238.19
422.73	244.19
422.953	226.19
423.175	239.19
423.398	236.19
423.621	255.19
423.843	255.19
424.066	274.19
424.288	253.19
424.511	249.19
424.733	227.19
424.956	262.19
425.178	263.19
425.401	300.19
425.623	355.19
425.846	293.19
426.068	243.19
426.291	254.19
426.513	261.19
426.735	241.19
426.958	241.19
427.18	250.19
427.402	322.19
427.625	338.19
427.847	309.19
428.069	219.19
428.292	235.19
428.514	229.19
428.736	219.19
428.958	223.19
429.181	291.19
429.403	268.19
429.625	219.19
429.847	212.19
430.069	215.19
430.292	222.19
430.514	229.19
430.736	235.19
430.958	265.19
431.18	257.19
431.402	206.19
431.624	214.19
431.846	213.19
432.068	210.19
432.29	223.19
432.512	232.19
432.734	264.19
432.956	273.19
433.178	230.19
433.4	217.19
433.622	232.19
433.844	227.19
434.066	230.19
434.287	230.19
434.509	226.19
434.731	247.19
434.953	228.19
435.175	254.19
435.397	259.19
435.618	248.19
435.84	219.19
436.062	231.19
436.284	215.19
436.505	226.19
436.727	221.19
436.949	217.19
437.17	212.19
437.392	221.19
437.614	222.19
437.835	209.19
438.057	227.19
438.278	221.19
438.5	292.19
438.721	311.19
438.943	249.19
439.165	209.19
439.386	191.19
439.608	203.19
439.829	214.19
440.05	211.19
440.272	218.19
440.493	249.19
440.715	283.19
440.936	222.19
441.158	242.19
441.379	227.19
441.6	246.19
441.822	259.19
442.043	237.19
442.264	229.19
442.486	227.19
442.707	231.19
442.928	244.19
443.149	238.19
443.371	235.19
443.592	245.19
443.813	224.19
444.034	245.19
444.255	238.19
444.476	249.19
444.698	261.19
444.919	259.19
445.14	339.19
445.361	293.19
445.582	255.19
445.803	252.19
446.024	243.19
446.245	219.19
446.466	220.19
446.687	247.19
446.908	249.19
447.129	226.19
447.35	210.19
447.571	209.19
447.792	223.19
448.013	191.19
448.234	184.19
448.455	205.19
448.675	207.19
448.896	192.19
449.117	217.19
449.338	216.19
449.559	222.19
449.779	218.19
450	231.19
450.221	210.19
450.442	229.19
450.662	215.19
450.883	222.19
451.104	211.19
451.324	228.19
451.545	224.19
451.766	234.19
451.986	215.19
452.207	190.19
452.428	205.19
452.648	213.19
452.869	212.19
453.089	220.19
453.31	219.19
453.53	213.19
453.751	203.19
453.971	193.19
454.192	212.19
454.412	227.19
454.633	206.19
454.853	216.19
455.073	210.19
455.294	183.19
455.514	196.19
455.734	205.19
455.955	212.19
456.175	201.19
456.395	213.19
456.616	196.19
456.836	198.19
457.056	178.19
457.276	189.19
457.497	185.19
457.717	192.19
457.937	204.19
458.157	191.19
458.377	205.19
458.598	204.19
458.818	227.19
459.038	224.19
459.258	224.19
459.478	226.19
459.698	221.19
459.918	264.19
460.138	242.19
460.358	253.19
460.578	232.19
460.798	258.19
461.018	249.19
461.238	237.19
461.458	227.19
461.678	233.19
461.898	226.19
462.118	230.19
462.338	256.19
462.558	262.19
462.777	273.19
462.997	281.19
463.217	290.19
463.437	293.19
463.657	274.19
463.876	257.19
464.096	245.19
464.316	262.19
464.536	269.19
464.755	279.19
464.975	275.19
465.195	285.19
465.414	248.19
465.634	263.19
465.854	241.19
466.073	223.19
466.293	230.19
466.512	215.19
466.732	263.19
466.951	275.19
467.171	238.19
467.391	219.19
467.61	219.19
467.829	225.19
468.049	230.19
468.268	239.19
468.488	223.19
468.707	222.19
468.927	248.19
469.146	275.19
469.365	249.19
469.585	237.19
469.804	245.19
470.023	252.19
470.243	258.19
470.462	231.19
470.681	236.19
470.901	235.19
471.12	235.19
471.339	257.19
471.558	228.19
471.777	231.19
471.997	243.19
472.216	266.19
472.435	269.19
472.654	235.19
472.873	224.19
473.092	248.19
473.311	246.19
473.53	227.19
473.749	223.19
473.968	229.19
474.187	237.19
474.406	227.19
474.625	234.19
474.844	231.19
475.063	236.19
475.282	243.19
475.501	263.19
475.72	281.19
475.939	254.19
476.158	250.19
476.377	291.19
476.596	310.19
476.814	337.19
477.033	293.19
477.252	263.19
477.471	237.19
477.69	259.19
477.908	271.19
478.127	288.19
478.346	265.19
478.564	288.19
478.783	270.19
479.002	280.19
479.22	287.19
479.439	339.19
479.658	303.19
479.876	274.19
480.095	265.19
480.313	295.19
480.532	278.19
480.751	276.19
480.969	272.19
481.188	279.19
481.406	305.19
481.624	276.19
481.843	269.19
482.061	238.19
482.28	303.19
482.498	352.19
482.717	321.19
482.935	265.19
483.153	276.19
483.372	262.19
483.59	246.19
483.808	244.19
484.027	239.19
484.245	239.19
484.463	239.19
484.681	262.19
484.9	244.19
485.118	271.19
485.336	257.19
485.554	248.19
485.772	255.19
485.99	256.19
486.209	309.19
486.427	295.19
486.645	285.19
486.863	290.19
487.081	281.19
487.299	317.19
487.517	280.19
487.735	278.19
487.953	308.19
488.171	293.19
488.389	265.19
488.607	250.19
488.825	269.19
489.043	288.19
489.261	304.19
489.479	310.19
489.696	288.19
489.914	269.19
490.132	262.19
490.35	273.19
490.568	261.19
490.786	261.19
491.003	260.19
491.221	265.19
491.439	263.19
491.657	274.19
491.874	301.19
492.092	327.19
492.31	366.19
492.527	332.19
492.745	326.19
492.963	289.19
493.18	287.19
493.398	288.19
493.615	291.19
493.833	282.19
494.05	280.19
494.268	296.19
494.485	291.19
494.703	275.19
494.92	279.19
495.138	284.19
495.355	274.19
495.573	283.19
495.79	283.19
496.008	350.19
496.225	299.19
496.442	288.19
496.66	297.19
496.877	293.19
497.094	315.19
497.312	293.19
497.529	288.19
497.746	296.19
497.963	294.19
498.181	353.19
498.398	338.19
498.615	347.19
498.832	378.19
499.049	394.19
499.267	376.19
499.484	363.19
499.701	396.19
499.918	457.19
500.135	485.19
500.352	529.19
500.569	545.19
500.786	541.19
501.003	555.19
501.22	503.19
501.437	433.19
501.654	380.19
501.871	367.19
502.088	356.19
502.305	345.19
502.522	340.19
502.739	346.19
502.956	317.19
503.172	320.19
503.389	314.19
503.606	295.19
503.823	297.19
504.04	323.19
504.256	299.19
504.473	307.19
504.69	322.19
504.907	317.19
505.123	301.19
505.34	321.19
505.557	323.19
505.773	301.19
505.99	289.19
506.207	295.19
506.423	279.19
506.64	261.19
506.856	295.19
507.073	311.19
507.289	293.19
507.506	292.19
507.722	322.19
507.939	320.19
508.155	296.19
508.372	290.19
508.588	301.19
508.805	296.19
509.021	280.19
509.238	284.19
509.454	263.19
509.67	261.19
509.887	278.19
510.103	298.19
510.319	277.19
510.536	288.19
510.752	254.19
510.968	256.19
511.184	253.19
511.401	270.19
511.617	271.19
511.833	262.19
512.049	239.19
512.265	246.19
512.481	271.19
512.698	269.19
512.914	297.19
513.13	299.19
513.346	263.19
513.562	257.19
513.778	286.19
513.994	280.19
514.21	295.19
514.426	281.19
514.642	270.19
514.858	272.19
515.074	268.19
515.29	286.19
515.506	325.19
515.721	290.19
515.937	287.19
516.153	275.19
516.369	264.19
516.585	281.19
516.801	316.19
517.016	367.19
517.232	327.19
517.448	356.19
517.664	344.19
517.879	307.19
518.095	338.19
518.311	308.19
518.527	309.19
518.742	318.19
518.958	337.19
519.173	332.19
519.389	304.19
519.605	312.19
519.82	316.19
520.036	387.19
520.251	387.19
520.467	351.19
520.682	547.19
520.898	695.19
521.113	673.19
521.329	390.19
521.544	334.19
521.76	321.19
521.975	308.19
522.19	275.19
522.406	303.19
522.621	316.19
522.836	314.19
523.052	339.19
523.267	278.19
523.482	288.19
523.698	319.19
523.913	297.19
524.128	276.19
524.343	280.19
524.559	269.19
524.774	276.19
524.989	283.19
525.204	281.19
525.419	295.19
525.634	276.19
525.849	274.19
526.064	280.19
526.28	308.19
526.495	347.19
526.71	341.19
526.925	306.19
527.14	317.19
527.355	299.19
527.57	262.19
527.785	292.19
527.999	256.19
528.214	284.19
528.429	265.19
528.644	270.19
528.859	236.19
529.074	235.19
529.289	251.19
529.503	252.19
529.718	242.19
529.933	314.19
530.148	316.19
530.363	243.19
530.577	249.19
530.792	259.19
531.007	248.19
531.221	233.19
531.436	259.19
531.651	251.19
531.865	230.19
532.08	255.19
532.295	233.19
532.509	239.19
532.724	265.19
532.938	289.19
533.153	348.19
533.367	290.19
533.582	264.19
533.796	273.19
534.011	263.19
534.225	237.19
534.44	245.19
534.654	275.19
534.868	321.19
535.083	291.19
535.297	284.19
535.511	245.19
535.726	267.19
535.94	280.19
536.154	233.19
536.369	247.19
536.583	239.19
536.797	230.19
537.011	241.19
537.225	259.19
537.44	274.19
537.654	248.19
537.868	259.19
538.082	251.19
538.296	233.19
538.51	259.19
538.724	259.19
538.938	244.19
539.153	245.19
539.367	236.19
539.581	229.19
539.795	240.19
540.009	265.19
540.222	258.19
540.436	241.19
540.65	259.19
540.864	257.19
541.078	300.19
541.292	324.19
541.506	265.19
541.72	261.19
541.934	251.19
542.147	235.19
542.361	252.19
542.575	255.19
542.789	234.19
543.002	229.19
543.216	236.19
543.43	244.19
543.644	220.19
543.857	229.19
544.071	244.19
544.285	249.19
544.498	236.19
544.712	231.19
544.925	252.19
545.139	239.19
545.352	230.19
545.566	231.19
545.779	254.19
545.993	239.19
546.206	205.19
546.42	204.19
546.633	243.19
546.847	224.19
547.06	215.19
547.274	240.19
547.487	224.19
547.7	223.19
547.914	227.19
548.127	276.19
548.34	266.19
548.554	238.19
548.767	242.19
548.98	267.19
549.193	247.19
549.407	248.19
549.62	286.19
549.833	280.19
550.046	258.19
550.259	266.19
550.473	255.19
550.686	237.19
550.899	249.19
551.112	233.19
551.325	257.19
551.538	259.19
551.751	231.19
551.964	228.19
552.177	219.19
552.39	223.19
552.603	237.19
552.816	241.19
553.029	224.19
553.242	224.19
553.455	248.19
553.667	262.19
553.88	257.19
554.093	240.19
554.306	233.19
554.519	214.19
554.732	198.19
554.944	215.19
555.157	206.19
555.37	203.19
555.583	214.19
555.795	211.19
556.008	214.19
556.221	225.19
556.433	206.19
556.646	220.19
556.859	215.19
557.071	211.19
557.284	217.19
557.496	214.19
557.709	199.19
557.921	206.19
558.134	199.19
558.346	209.19
558.559	190.19
558.771	210.19
558.984	218.19
559.196	215.19
559.409	205.19
559.621	196.19
559.833	185.19
560.046	185.19
560.258	199.19
560.47	214.19
560.683	203.19
560.895	198.19
561.107	197.19
561.32	185.19
561.532	206.19
561.744	204.19
561.956	214.19
562.168	199.19
562.381	200.19
562.593	214.19
562.805	214.19
563.017	200.19
563.229	196.19
563.441	197.19
563.653	193.19
563.865	208.19
564.077	198.19
564.289	201.19
564.501	202.19
564.713	214.19
564.925	214.19
565.137	191.19
565.349	203.19
565.561	192.19
565.773	208.19
565.985	219.19
566.197	227.19
566.408	233.19
566.62	233.19
566.832	253.19
567.044	249.19
567.255	263.19
567.467	280.19
567.679	276.19
567.891	279.19
568.102	301.19
568.314	303.19
568.526	264.19
568.737	257.19
568.949	255.19
569.161	198.19
569.372	192.19
569.584	209.19
569.795	185.19
570.007	182.19
570.218	217.19
570.43	207.19
570.641	199.19
570.853	204.19
571.064	191.19
571.276	203.19
571.487	210.19
571.698	208.19
571.91	189.19
572.121	205.19
572.333	203.19
572.544	191.19
572.755	204.19
572.966	175.19
573.178	179.19
573.389	197.19
573.6	191.19
573.811	181.19
574.023	191.19
574.234	181.19
574.445	188.19
574.656	180.19
574.867	187.19
575.078	176.19
575.289	183.19
575.501	171.19
575.712	174.19
575.923	173.19
576.134	177.19
576.345	174.19
576.556	186.19
576.767	168.19
576.978	179.19
577.188	165.19
577.399	171.19
577.61	180.19
577.821	152.19
578.032	165.19
578.243	180.19
578.454	200.19
578.665	198.19
578.875	180.19
579.086	174.19
579.297	187.19
579.508	173.19
579.718	162.19
579.929	166.19
580.14	186.19
580.35	168.19
580.561	163.19
580.772	159.19
580.982	170.19
581.193	165.19
581.403	166.19
581.614	163.19
581.825	162.19
582.035	145.19
582.246	160.19
582.456	165.19
582.667	158.19
582.877	166.19
583.087	162.19
583.298	162.19
583.508	162.19
583.719	151.19
583.929	160.19
584.139	153.19
584.35	158.19
584.56	163.19
584.77	165.19
584.981	169.19
585.191	164.19
585.401	171.19
585.611	165.19
585.821	158.19
586.032	155.19
586.242	159.19
586.452	166.19
586.662	160.19
586.872	168.19
587.082	180.19
587.292	180.19
587.502	162.19
587.713	138.19
587.923	168.19
588.133	166.19
588.343	167.19
588.553	151.19
588.762	157.19
588.972	154.19
589.182	178.19
589.392	175.19
589.602	153.19
589.812	164.19
590.022	171.19
590.232	175.19
590.441	164.19
590.651	156.19
590.861	160.19
591.071	163.19
591.281	155.19
591.49	154.19
591.7	171.19
591.91	145.19
592.119	168.19
592.329	190.19
592.539	164.19
592.748	161.19
592.958	174.19
593.167	174.19
593.377	180.19
593.587	182.19
593.796	173.19
594.006	174.19
594.215	192.19
594.424	176.19
594.634	180.19
594.843	170.19
595.053	186.19
595.262	178.19
595.472	163.19
595.681	171.19
595.89	159.19
596.1	178.19
596.309	169.19
596.518	163.19
596.727	148.19
596.937	129.19
597.146	152.19
597.355	169.19
597.564	145.19
597.774	164.19
597.983	160.19
598.192	156.19
598.401	143.19
598.61	137.19
598.819	148.19
599.028	143.19
599.237	160.19
599.446	146.19
599.655	137.19
599.864	148.19
600.073	140.19
600.282	140.19
600.491	155.19
600.7	150.19
600.909	145.19
601.118	144.19
601.327	151.19
601.536	148.19
601.745	156.19
601.953	155.19
602.162	158.19
602.371	155.19
602.58	144.19
602.789	129.19
602.997	158.19
603.206	151.19
603.415	144.19
603.623	125.19
603.832	130.19
604.041	148.19
604.249	133.19
604.458	141.19
604.666	148.19
604.875	149.19
605.084	143.19
605.292	140.19
605.501	159.19
605.709	143.19
605.918	137.19
606.126	156.19
606.334	133.19
606.543	139.19
606.751	132.19
606.96	138.19
607.168	120.19
607.376	133.19
607.585	139.19
607.793	147.19
608.001	144.19
608.21	152.19
608.418	138.19
608.626	139.19
608.834	141.19
609.043	141.19
609.251	139.19
609.459	123.19
609.667	142.19
609.875	134.19
610.083	146.19
610.291	128.19
610.499	128.19
610.707	128.19
610.916	134.19
611.124	131.19
611.332	120.19
611.54	136.19
611.748	148.19
611.955	137.19
612.163	135.19
612.371	138.19
612.579	116.19
612.787	125.19
612.995	123.19
613.203	129.19
613.411	148.19
613.618	121.19
613.826	137.19
614.034	131.19
614.242	142.19
614.449	133.19
614.657	127.19
614.865	118.19
615.072	127.19
615.28	131.19
615.488	119.19
615.695	134.19
615.903	129.19
616.111	116.19
616.318	127.19
616.526	130.19
616.733	133.19
616.941	146.19
617.148	136.19
617.356	141.19
617.563	138.19
617.771	129.19
617.978	136.19
618.185	130.19
618.393	131.19
618.6	131.19
618.807	131.19
619.015	143.19
619.222	133.19
619.429	125.19
619.637	134.19
619.844	121.19
620.051	134.19
620.258	132.19
620.466	132.19
620.673	135.19
620.88	123.19
621.087	117.19
621.294	123.19
621.501	121.19
621.708	131.19
621.915	126.19
622.122	131.19
622.329	127.19
622.536	148.19
622.743	130.19
622.95	130.19
623.157	119.19
623.364	123.19
623.571	116.19
623.778	122.19
623.985	116.19
624.192	132.19
624.399	120.19
624.606	113.19
624.812	111.19
625.019	119.19
625.226	131.19
625.433	137.19
625.639	149.19
625.846	125.19
626.053	109.19
626.259	118.19
626.466	122.19
626.673	126.19
626.879	128.19
627.086	111.19
627.293	136.19
627.499	128.19
627.706	126.19
627.912	124.19
628.119	123.19
628.325	125.19
628.532	113.19
628.738	106.19
628.945	116.19
629.151	100.19
629.357	123.19
629.564	126.19
629.77	121.19
629.976	112.19
630.183	116.19
630.389	116.19
630.595	123.19
630.802	118.19
631.008	112.19
631.214	132.19
631.42	115.19
631.627	116.19
631.833	119.19
632.039	121.19
632.245	98.19
632.451	112.19
632.657	131.19
632.863	115.19
633.069	127.19
633.275	108.19
633.481	108.19
633.688	110.19
633.893	130.19
634.099	113.19
634.305	107.19
634.511	124.19
634.717	113.19
634.923	110.19
635.129	116.19
635.335	109.19
635.541	117.19
635.747	127.19
635.952	109.19
636.158	107.19
636.364	116.19
636.57	98.19
636.775	98.19
636.981	114.19
637.187	111.19
637.392	106.19
637.598	114.19
637.804	125.19
638.009	119.19
638.215	104.19
638.421	114.19
638.626	110.19
638.832	126.19
639.037	109.19
639.243	119.19
639.448	117.19
639.654	118.19
639.859	117.19
640.065	113.19
640.27	120.19
640.475	123.19
640.681	119.19
640.886	108.19
641.091	118.19
641.297	119.19
641.502	109.19
641.707	111.19
641.913	118.19
642.118	115.19
642.323	117.19
642.528	110.19
642.733	133.19
642.939	120.19
643.144	128.19
643.349	114.19
643.554	111.19
643.759	116.19
643.964	111.19
644.169	117.19
644.374	97.19
644.579	117.19
644.784	107.19
644.989	104.19
645.194	111.19
645.399	121.19
645.604	103.19
645.809	104.19
646.014	112.19
646.219	121.19
646.423	117.19
646.628	103.19
646.833	113.19
647.038	112.19
647.243	105.19
647.447	117.19
647.652	119.19
647.857	105.19
648.062	112.19
648.266	117.19
648.471	114.19
648.676	125.19
648.88	103.19
649.085	113.19
649.289	111.19
649.494	96.19
649.698	93.19
649.903	112.19
650.107	117.19
650.312	101.19
650.516	105.19
650.721	112.19
650.925	94.19
651.13	98.19
651.334	110.19
651.539	101.19
651.743	111.19
651.947	102.19
652.152	95.19
652.356	108.19
652.56	107.19
652.764	112.19
652.969	108.19
653.173	117.19
653.377	103.19
653.581	111.19
653.785	88.19
653.99	109.19
654.194	94.19
654.398	97.19
654.602	110.19
654.806	87.19
655.01	113.19
655.214	113.19
655.418	100.19
655.622	107.19
655.826	105.19
656.03	96.19
656.234	98.19
656.438	102.19
656.642	90.19
656.846	100.19
657.049	87.19
657.253	93.19
657.457	102.19
657.661	95.19
657.865	95.19
658.068	107.19
658.272	83.19
658.476	84.19
658.68	86.19
658.883	92.19
659.087	80.19
659.291	82.19
659.494	75.19
659.698	84.19
659.901	98.19
660.105	99.19
660.309	81.19
660.512	88.19
660.716	81.19
660.919	76.19
661.123	94.19
661.326	85.19
661.53	97.19
661.733	86.19
661.936	79.19
662.14	91.19
662.343	86.19
662.546	85.19
662.75	97.19
662.953	78.19
663.156	90.19
663.36	81.19
663.563	83.19
663.766	84.19
663.969	85.19
664.173	93.19
664.376	82.19
664.579	95.19
664.782	78.19
664.985	84.19
665.188	86.19
665.391	77.19
665.594	76.19
665.797	77.19
666	84.19
666.203	81.19
666.406	71.19
666.609	78.19
666.812	70.19
667.015	67.19
667.218	84.19
667.421	88.19
667.624	86.19
667.827	70.19
668.03	91.19
668.232	64.19
668.435	77.19
668.638	79.19
668.841	75.19
669.043	80.19
669.246	75.19
669.449	82.19
669.651	87.19
669.854	81.19
670.057	75.19
670.259	80.19
670.462	80.19
670.665	76.19
670.867	74.19
671.07	77.19
671.272	66.19
671.475	83.19
671.677	87.19
671.88	71.19
672.082	88.19
672.284	74.19
672.487	84.19
672.689	87.19
672.892	81.19
