Data from NickelSpatula.Lamp.E5.5.P2_HRD10591_11-52-41-553.txt Node
Date: Tue Jul 23 11:52:41 EDT 2019
User: cochatt
Spectrometer: HR+D1059
Trigger mode: 1
Integration Time (sec): 1.000000E-1
Scans to average: 1
Electric dark correction enabled: true
Nonlinearity correction enabled: false
Boxcar width: 0
XAxis mode: Wavelengths
Number of Pixels in Spectrum: 2048
>>>>>Begin Spectral Data<<<<<
223.165	-23.81
223.4	-23.81
223.635	-23.81
223.869	-4.81
224.104	-4.81
224.338	-14.81
224.573	5.19
224.808	-15.81
225.042	-14.81
225.277	-1.81
225.511	-11.81
225.746	-0.81
225.98	9.19
226.215	5.19
226.449	4.19
226.683	24.19
226.918	9.19
227.152	36.19
227.387	49.19
227.621	38.19
227.856	48.19
228.09	42.19
228.324	42.19
228.559	50.19
228.793	66.19
229.027	73.19
229.262	73.19
229.496	70.19
229.73	86.19
229.964	66.19
230.199	66.19
230.433	82.19
230.667	89.19
230.901	101.19
231.136	90.19
231.37	87.19
231.604	96.19
231.838	101.19
232.072	99.19
232.306	114.19
232.541	101.19
232.775	112.19
233.009	108.19
233.243	117.19
233.477	106.19
233.711	131.19
233.945	110.19
234.179	101.19
234.413	116.19
234.647	132.19
234.881	165.19
235.115	138.19
235.349	136.19
235.583	117.19
235.817	114.19
236.051	120.19
236.285	114.19
236.519	135.19
236.753	136.19
236.987	144.19
237.221	130.19
237.455	141.19
237.689	133.19
237.922	145.19
238.156	126.19
238.39	153.19
238.624	182.19
238.858	162.19
239.091	138.19
239.325	137.19
239.559	128.19
239.793	137.19
240.027	172.19
240.26	167.19
240.494	135.19
240.728	141.19
240.961	175.19
241.195	164.19
241.429	160.19
241.662	176.19
241.896	136.19
242.13	125.19
242.363	146.19
242.597	120.19
242.83	146.19
243.064	143.19
243.298	160.19
243.531	162.19
243.765	177.19
243.998	173.19
244.232	156.19
244.465	158.19
244.699	170.19
244.932	175.19
245.166	163.19
245.399	140.19
245.633	150.19
245.866	142.19
246.099	175.19
246.333	179.19
246.566	182.19
246.8	178.19
247.033	208.19
247.266	189.19
247.5	180.19
247.733	172.19
247.966	170.19
248.2	178.19
248.433	200.19
248.666	190.19
248.899	201.19
249.133	200.19
249.366	218.19
249.599	227.19
249.832	217.19
250.066	199.19
250.299	194.19
250.532	196.19
250.765	216.19
250.998	183.19
251.231	182.19
251.465	198.19
251.698	200.19
251.931	177.19
252.164	202.19
252.397	219.19
252.63	225.19
252.863	264.19
253.096	263.19
253.329	252.19
253.562	241.19
253.795	274.19
254.028	317.19
254.261	322.19
254.494	267.19
254.727	246.19
254.96	256.19
255.193	259.19
255.426	264.19
255.659	212.19
255.892	207.19
256.124	176.19
256.357	244.19
256.59	281.19
256.823	254.19
257.056	215.19
257.289	219.19
257.521	229.19
257.754	263.19
257.987	308.19
258.22	266.19
258.452	226.19
258.685	262.19
258.918	273.19
259.151	276.19
259.383	294.19
259.616	329.19
259.849	343.19
260.081	345.19
260.314	388.19
260.547	316.19
260.779	322.19
261.012	378.19
261.244	348.19
261.477	347.19
261.71	339.19
261.942	316.19
262.175	290.19
262.407	270.19
262.64	277.19
262.872	306.19
263.105	322.19
263.337	369.19
263.57	330.19
263.802	242.19
264.035	221.19
264.267	220.19
264.499	192.19
264.732	174.19
264.964	168.19
265.197	164.19
265.429	188.19
265.661	198.19
265.894	224.19
266.126	213.19
266.358	227.19
266.591	271.19
266.823	330.19
267.055	336.19
267.287	288.19
267.52	277.19
267.752	295.19
267.984	326.19
268.216	294.19
268.448	264.19
268.681	238.19
268.913	282.19
269.145	316.19
269.377	290.19
269.609	281.19
269.841	273.19
270.073	292.19
270.306	289.19
270.538	311.19
270.77	301.19
271.002	310.19
271.234	317.19
271.466	348.19
271.698	334.19
271.93	318.19
272.162	317.19
272.394	307.19
272.626	279.19
272.858	306.19
273.09	294.19
273.322	281.19
273.553	252.19
273.785	276.19
274.017	378.19
274.249	480.19
274.481	497.19
274.713	514.19
274.945	583.19
275.176	607.19
275.408	543.19
275.64	493.19
275.872	505.19
276.104	445.19
276.335	380.19
276.567	384.19
276.799	391.19
277.031	428.19
277.262	353.19
277.494	262.19
277.726	267.19
277.957	262.19
278.189	321.19
278.421	325.19
278.652	295.19
278.884	282.19
279.115	268.19
279.347	257.19
279.579	250.19
279.81	270.19
280.042	274.19
280.273	280.19
280.505	261.19
280.736	227.19
280.968	236.19
281.199	265.19
281.431	286.19
281.662	280.19
281.894	270.19
282.125	276.19
282.356	296.19
282.588	309.19
282.819	271.19
283.051	302.19
283.282	339.19
283.513	394.19
283.745	434.19
283.976	421.19
284.207	404.19
284.439	422.19
284.67	397.19
284.901	360.19
285.132	394.19
285.364	405.19
285.595	383.19
285.826	396.19
286.057	406.19
286.288	394.19
286.52	412.19
286.751	436.19
286.982	436.19
287.213	397.19
287.444	355.19
287.675	362.19
287.906	381.19
288.138	341.19
288.369	278.19
288.6	278.19
288.831	298.19
289.062	360.19
289.293	367.19
289.524	344.19
289.755	338.19
289.986	341.19
290.217	305.19
290.448	232.19
290.679	227.19
290.91	229.19
291.141	214.19
291.371	242.19
291.602	240.19
291.833	205.19
292.064	230.19
292.295	254.19
292.526	302.19
292.757	308.19
292.987	323.19
293.218	321.19
293.449	357.19
293.68	384.19
293.91	370.19
294.141	369.19
294.372	347.19
294.603	298.19
294.833	338.19
295.064	406.19
295.295	392.19
295.525	300.19
295.756	262.19
295.987	244.19
296.217	230.19
296.448	222.19
296.679	232.19
296.909	261.19
297.14	270.19
297.37	287.19
297.601	284.19
297.831	257.19
298.062	269.19
298.292	317.19
298.523	314.19
298.753	362.19
298.984	336.19
299.214	291.19
299.445	240.19
299.675	242.19
299.905	250.19
300.136	255.19
300.366	254.19
300.597	236.19
300.827	232.19
301.057	218.19
301.288	230.19
301.518	238.19
301.748	286.19
301.979	300.19
302.209	277.19
302.439	298.19
302.669	261.19
302.9	277.19
303.13	272.19
303.36	246.19
303.59	230.19
303.82	256.19
304.051	286.19
304.281	290.19
304.511	286.19
304.741	280.19
304.971	260.19
305.201	297.19
305.431	279.19
305.661	239.19
305.891	229.19
306.121	238.19
306.352	219.19
306.582	202.19
306.812	202.19
307.042	214.19
307.272	195.19
307.502	198.19
307.731	216.19
307.961	214.19
308.191	214.19
308.421	201.19
308.651	207.19
308.881	190.19
309.111	180.19
309.341	194.19
309.571	212.19
309.8	219.19
310.03	218.19
310.26	228.19
310.49	222.19
310.72	200.19
310.949	212.19
311.179	213.19
311.409	211.19
311.639	238.19
311.868	301.19
312.098	368.19
312.328	379.19
312.557	374.19
312.787	386.19
313.017	356.19
313.246	351.19
313.476	384.19
313.706	334.19
313.935	299.19
314.165	228.19
314.394	237.19
314.624	206.19
314.853	218.19
315.083	227.19
315.312	224.19
315.542	221.19
315.771	238.19
316.001	205.19
316.23	187.19
316.46	217.19
316.689	202.19
316.919	213.19
317.148	206.19
317.377	210.19
317.607	215.19
317.836	216.19
318.065	240.19
318.295	245.19
318.524	231.19
318.753	222.19
318.983	213.19
319.212	209.19
319.441	220.19
319.67	232.19
319.9	256.19
320.129	239.19
320.358	217.19
320.587	218.19
320.816	226.19
321.046	240.19
321.275	274.19
321.504	269.19
321.733	231.19
321.962	254.19
322.191	234.19
322.42	233.19
322.649	235.19
322.878	268.19
323.108	260.19
323.337	239.19
323.566	244.19
323.795	232.19
324.024	225.19
324.253	224.19
324.482	215.19
324.71	236.19
324.939	265.19
325.168	249.19
325.397	223.19
325.626	219.19
325.855	217.19
326.084	222.19
326.313	207.19
326.542	198.19
326.77	223.19
326.999	209.19
327.228	233.19
327.457	215.19
327.686	215.19
327.914	212.19
328.143	206.19
328.372	200.19
328.6	177.19
328.829	200.19
329.058	187.19
329.287	182.19
329.515	223.19
329.744	216.19
329.972	185.19
330.201	196.19
330.43	206.19
330.658	218.19
330.887	265.19
331.115	236.19
331.344	233.19
331.572	220.19
331.801	209.19
332.03	193.19
332.258	209.19
332.486	239.19
332.715	229.19
332.943	216.19
333.172	220.19
333.4	237.19
333.629	246.19
333.857	251.19
334.085	256.19
334.314	253.19
334.542	239.19
334.771	217.19
334.999	226.19
335.227	213.19
335.455	240.19
335.684	227.19
335.912	260.19
336.14	280.19
336.369	258.19
336.597	269.19
336.825	305.19
337.053	343.19
337.281	270.19
337.51	226.19
337.738	216.19
337.966	231.19
338.194	232.19
338.422	253.19
338.65	215.19
338.878	205.19
339.106	207.19
339.334	229.19
339.562	234.19
339.79	233.19
340.018	230.19
340.246	224.19
340.474	246.19
340.702	270.19
340.93	283.19
341.158	263.19
341.386	253.19
341.614	250.19
341.842	244.19
342.07	259.19
342.298	287.19
342.526	280.19
342.754	265.19
342.981	251.19
343.209	224.19
343.437	254.19
343.665	270.19
343.893	280.19
344.12	310.19
344.348	352.19
344.576	316.19
344.804	278.19
345.031	225.19
345.259	227.19
345.487	223.19
345.714	225.19
345.942	233.19
346.17	261.19
346.397	250.19
346.625	232.19
346.853	242.19
347.08	216.19
347.308	222.19
347.535	262.19
347.763	260.19
347.99	237.19
348.218	232.19
348.445	236.19
348.673	221.19
348.9	210.19
349.128	242.19
349.355	247.19
349.583	241.19
349.81	241.19
350.037	209.19
350.265	193.19
350.492	200.19
350.72	185.19
350.947	190.19
351.174	194.19
351.402	205.19
351.629	208.19
351.856	202.19
352.083	201.19
352.311	234.19
352.538	231.19
352.765	228.19
352.992	223.19
353.22	234.19
353.447	250.19
353.674	219.19
353.901	213.19
354.128	210.19
354.355	232.19
354.583	234.19
354.81	225.19
355.037	226.19
355.264	245.19
355.491	244.19
355.718	257.19
355.945	238.19
356.172	253.19
356.399	240.19
356.626	270.19
356.853	316.19
357.08	353.19
357.307	346.19
357.534	295.19
357.761	297.19
357.988	362.19
358.215	409.19
358.441	356.19
358.668	335.19
358.895	320.19
359.122	272.19
359.349	276.19
359.576	305.19
359.802	246.19
360.029	218.19
360.256	240.19
360.483	272.19
360.709	339.19
360.936	332.19
361.163	300.19
361.39	252.19
361.616	245.19
361.843	258.19
362.07	290.19
362.296	271.19
362.523	238.19
362.749	217.19
362.976	231.19
363.203	263.19
363.429	285.19
363.656	240.19
363.882	214.19
364.109	231.19
364.335	246.19
364.562	209.19
364.788	238.19
365.015	264.19
365.241	245.19
365.468	217.19
365.694	204.19
365.92	210.19
366.147	201.19
366.373	198.19
366.599	183.19
366.826	202.19
367.052	198.19
367.278	209.19
367.505	210.19
367.731	204.19
367.957	214.19
368.184	225.19
368.41	236.19
368.636	229.19
368.862	239.19
369.089	229.19
369.315	215.19
369.541	208.19
369.767	211.19
369.993	184.19
370.219	196.19
370.445	224.19
370.672	238.19
370.898	246.19
371.124	236.19
371.35	223.19
371.576	212.19
371.802	224.19
372.028	266.19
372.254	279.19
372.48	240.19
372.706	231.19
372.932	238.19
373.158	266.19
373.384	304.19
373.61	381.19
373.835	362.19
374.061	285.19
374.287	265.19
374.513	294.19
374.739	341.19
374.965	360.19
375.191	339.19
375.416	260.19
375.642	248.19
375.868	258.19
376.094	286.19
376.319	255.19
376.545	282.19
376.771	277.19
376.997	273.19
377.222	216.19
377.448	200.19
377.674	203.19
377.899	212.19
378.125	188.19
378.35	188.19
378.576	202.19
378.802	196.19
379.027	216.19
379.253	223.19
379.478	232.19
379.704	240.19
379.929	252.19
380.155	229.19
380.38	231.19
380.606	234.19
380.831	257.19
381.057	258.19
381.282	213.19
381.507	247.19
381.733	282.19
381.958	319.19
382.184	330.19
382.409	334.19
382.634	346.19
382.86	342.19
383.085	300.19
383.31	256.19
383.535	273.19
383.761	284.19
383.986	263.19
384.211	293.19
384.436	288.19
384.662	256.19
384.887	242.19
385.112	253.19
385.337	256.19
385.562	242.19
385.787	257.19
386.013	279.19
386.238	302.19
386.463	266.19
386.688	246.19
386.913	240.19
387.138	216.19
387.363	216.19
387.588	235.19
387.813	221.19
388.038	258.19
388.263	244.19
388.488	223.19
388.713	240.19
388.938	292.19
389.163	253.19
389.387	232.19
389.612	227.19
389.837	233.19
390.062	216.19
390.287	246.19
390.512	253.19
390.736	233.19
390.961	215.19
391.186	217.19
391.411	208.19
391.636	216.19
391.86	231.19
392.085	266.19
392.31	249.19
392.534	217.19
392.759	225.19
392.984	229.19
393.208	252.19
393.433	198.19
393.658	215.19
393.882	201.19
394.107	217.19
394.331	199.19
394.556	209.19
394.78	208.19
395.005	208.19
395.229	215.19
395.454	218.19
395.678	222.19
395.903	234.19
396.127	215.19
396.352	217.19
396.576	234.19
396.801	240.19
397.025	248.19
397.249	265.19
397.474	230.19
397.698	231.19
397.922	243.19
398.147	234.19
398.371	224.19
398.595	242.19
398.82	230.19
399.044	234.19
399.268	249.19
399.492	295.19
399.717	300.19
399.941	294.19
400.165	266.19
400.389	254.19
400.613	243.19
400.837	256.19
401.062	228.19
401.286	242.19
401.51	241.19
401.734	230.19
401.958	238.19
402.182	231.19
402.406	229.19
402.63	226.19
402.854	263.19
403.078	292.19
403.302	365.19
403.526	366.19
403.75	350.19
403.974	287.19
404.198	293.19
404.422	306.19
404.645	316.19
404.869	334.19
405.093	274.19
405.317	269.19
405.541	249.19
405.765	270.19
405.988	247.19
406.212	262.19
406.436	282.19
406.66	321.19
406.883	275.19
407.107	313.19
407.331	320.19
407.555	310.19
407.778	275.19
408.002	266.19
408.226	260.19
408.449	272.19
408.673	247.19
408.896	245.19
409.12	237.19
409.344	230.19
409.567	232.19
409.791	233.19
410.014	245.19
410.238	230.19
410.461	242.19
410.685	226.19
410.908	250.19
411.132	240.19
411.355	225.19
411.578	240.19
411.802	225.19
412.025	241.19
412.249	230.19
412.472	242.19
412.695	251.19
412.919	229.19
413.142	234.19
413.365	275.19
413.589	264.19
413.812	231.19
414.035	236.19
414.258	228.19
414.482	252.19
414.705	271.19
414.928	233.19
415.151	232.19
415.374	216.19
415.597	225.19
415.821	258.19
416.044	231.19
416.267	233.19
416.49	218.19
416.713	232.19
416.936	222.19
417.159	227.19
417.382	227.19
417.605	221.19
417.828	239.19
418.051	236.19
418.274	244.19
418.497	240.19
418.72	217.19
418.943	232.19
419.166	256.19
419.389	251.19
419.611	242.19
419.834	243.19
420.057	254.19
420.28	253.19
420.503	262.19
420.726	226.19
420.948	223.19
421.171	220.19
421.394	230.19
421.617	218.19
421.839	240.19
422.062	231.19
422.285	204.19
422.507	232.19
422.73	245.19
422.953	249.19
423.175	234.19
423.398	239.19
423.621	259.19
423.843	258.19
424.066	261.19
424.288	232.19
424.511	248.19
424.733	219.19
424.956	253.19
425.178	263.19
425.401	308.19
425.623	366.19
425.846	306.19
426.068	273.19
426.291	263.19
426.513	244.19
426.735	248.19
426.958	243.19
427.18	272.19
427.402	352.19
427.625	349.19
427.847	321.19
428.069	256.19
428.292	225.19
428.514	220.19
428.736	233.19
428.958	260.19
429.181	313.19
429.403	274.19
429.625	237.19
429.847	226.19
430.069	218.19
430.292	234.19
430.514	222.19
430.736	234.19
430.958	271.19
431.18	254.19
431.402	215.19
431.624	209.19
431.846	217.19
432.068	198.19
432.29	211.19
432.512	220.19
432.734	274.19
432.956	254.19
433.178	245.19
433.4	215.19
433.622	237.19
433.844	234.19
434.066	248.19
434.287	239.19
434.509	211.19
434.731	241.19
434.953	232.19
435.175	241.19
435.397	277.19
435.618	230.19
435.84	212.19
436.062	226.19
436.284	216.19
436.505	199.19
436.727	205.19
436.949	213.19
437.17	213.19
437.392	216.19
437.614	227.19
437.835	217.19
438.057	214.19
438.278	233.19
438.5	290.19
438.721	306.19
438.943	232.19
439.165	216.19
439.386	213.19
439.608	201.19
439.829	212.19
440.05	208.19
440.272	231.19
440.493	230.19
440.715	293.19
440.936	257.19
441.158	226.19
441.379	233.19
441.6	250.19
441.822	255.19
442.043	245.19
442.264	226.19
442.486	221.19
442.707	236.19
442.928	230.19
443.149	242.19
443.371	238.19
443.592	237.19
443.813	236.19
444.034	232.19
444.255	236.19
444.476	264.19
444.698	262.19
444.919	264.19
445.14	360.19
445.361	301.19
445.582	262.19
445.803	252.19
446.024	217.19
446.245	233.19
446.466	242.19
446.687	219.19
446.908	220.19
447.129	215.19
447.35	207.19
447.571	203.19
447.792	213.19
448.013	217.19
448.234	204.19
448.455	199.19
448.675	211.19
448.896	199.19
449.117	205.19
449.338	215.19
449.559	215.19
449.779	211.19
450	223.19
450.221	213.19
450.442	232.19
450.662	205.19
450.883	217.19
451.104	238.19
451.324	218.19
451.545	227.19
451.766	210.19
451.986	210.19
452.207	197.19
452.428	207.19
452.648	206.19
452.869	205.19
453.089	222.19
453.31	223.19
453.53	217.19
453.751	208.19
453.971	203.19
454.192	199.19
454.412	205.19
454.633	207.19
454.853	209.19
455.073	196.19
455.294	202.19
455.514	191.19
455.734	190.19
455.955	201.19
456.175	207.19
456.395	196.19
456.616	178.19
456.836	196.19
457.056	183.19
457.276	190.19
457.497	184.19
457.717	202.19
457.937	182.19
458.157	192.19
458.377	192.19
458.598	205.19
458.818	208.19
459.038	210.19
459.258	231.19
459.478	228.19
459.698	224.19
459.918	230.19
460.138	233.19
460.358	251.19
460.578	222.19
460.798	221.19
461.018	242.19
461.238	246.19
461.458	238.19
461.678	256.19
461.898	264.19
462.118	241.19
462.338	262.19
462.558	250.19
462.777	263.19
462.997	293.19
463.217	274.19
463.437	281.19
463.657	254.19
463.876	256.19
464.096	246.19
464.316	268.19
464.536	265.19
464.755	266.19
464.975	260.19
465.195	247.19
465.414	256.19
465.634	258.19
465.854	238.19
466.073	220.19
466.293	228.19
466.512	238.19
466.732	260.19
466.951	252.19
467.171	228.19
467.391	230.19
467.61	228.19
467.829	229.19
468.049	240.19
468.268	220.19
468.488	224.19
468.707	206.19
468.927	239.19
469.146	271.19
469.365	244.19
469.585	240.19
469.804	252.19
470.023	263.19
470.243	235.19
470.462	230.19
470.681	260.19
470.901	234.19
471.12	258.19
471.339	238.19
471.558	225.19
471.777	216.19
471.997	231.19
472.216	261.19
472.435	267.19
472.654	253.19
472.873	224.19
473.092	246.19
473.311	266.19
473.53	238.19
473.749	225.19
473.968	230.19
474.187	231.19
474.406	231.19
474.625	227.19
474.844	236.19
475.063	243.19
475.282	258.19
475.501	258.19
475.72	274.19
475.939	270.19
476.158	253.19
476.377	319.19
476.596	341.19
476.814	344.19
477.033	285.19
477.252	264.19
477.471	256.19
477.69	252.19
477.908	260.19
478.127	259.19
478.346	256.19
478.564	297.19
478.783	273.19
479.002	275.19
479.22	289.19
479.439	318.19
479.658	311.19
479.876	267.19
480.095	285.19
480.313	284.19
480.532	292.19
480.751	277.19
480.969	257.19
481.188	287.19
481.406	288.19
481.624	281.19
481.843	263.19
482.061	267.19
482.28	261.19
482.498	324.19
482.717	357.19
482.935	296.19
483.153	270.19
483.372	265.19
483.59	254.19
483.808	262.19
484.027	249.19
484.245	261.19
484.463	244.19
484.681	258.19
484.9	250.19
485.118	288.19
485.336	274.19
485.554	260.19
485.772	258.19
485.99	270.19
486.209	295.19
486.427	291.19
486.645	293.19
486.863	289.19
487.081	277.19
487.299	311.19
487.517	284.19
487.735	258.19
487.953	289.19
488.171	293.19
488.389	275.19
488.607	260.19
488.825	254.19
489.043	284.19
489.261	330.19
489.479	328.19
489.696	305.19
489.914	273.19
490.132	255.19
490.35	241.19
490.568	258.19
490.786	263.19
491.003	268.19
491.221	267.19
491.439	278.19
491.657	263.19
491.874	288.19
492.092	343.19
492.31	337.19
492.527	366.19
492.745	336.19
492.963	276.19
493.18	261.19
493.398	281.19
493.615	280.19
493.833	289.19
494.05	277.19
494.268	287.19
494.485	282.19
494.703	293.19
494.92	294.19
495.138	277.19
495.355	296.19
495.573	295.19
495.79	307.19
496.008	360.19
496.225	325.19
496.442	304.19
496.66	308.19
496.877	320.19
497.094	312.19
497.312	307.19
497.529	297.19
497.746	303.19
497.963	304.19
498.181	323.19
498.398	353.19
498.615	357.19
498.832	378.19
499.049	376.19
499.267	377.19
499.484	368.19
499.701	415.19
499.918	439.19
500.135	474.19
500.352	525.19
500.569	564.19
500.786	550.19
501.003	533.19
501.22	484.19
501.437	445.19
501.654	419.19
501.871	371.19
502.088	373.19
502.305	371.19
502.522	343.19
502.739	345.19
502.956	321.19
503.172	312.19
503.389	318.19
503.606	292.19
503.823	312.19
504.04	309.19
504.256	321.19
504.473	325.19
504.69	349.19
504.907	348.19
505.123	293.19
505.34	329.19
505.557	323.19
505.773	288.19
505.99	306.19
506.207	298.19
506.423	295.19
506.64	269.19
506.856	288.19
507.073	304.19
507.289	306.19
507.506	302.19
507.722	325.19
507.939	293.19
508.155	328.19
508.372	286.19
508.588	279.19
508.805	277.19
509.021	297.19
509.238	237.19
509.454	252.19
509.67	260.19
509.887	264.19
510.103	286.19
510.319	289.19
510.536	260.19
510.752	244.19
510.968	255.19
511.184	229.19
511.401	258.19
511.617	233.19
511.833	252.19
512.049	239.19
512.265	254.19
512.481	275.19
512.698	297.19
512.914	301.19
513.13	295.19
513.346	276.19
513.562	270.19
513.778	258.19
513.994	244.19
514.21	266.19
514.426	282.19
514.642	277.19
514.858	251.19
515.074	264.19
515.29	288.19
515.506	325.19
515.721	295.19
515.937	295.19
516.153	264.19
516.369	260.19
516.585	276.19
516.801	315.19
517.016	337.19
517.232	349.19
517.448	349.19
517.664	325.19
517.879	309.19
518.095	331.19
518.311	353.19
518.527	326.19
518.742	346.19
518.958	359.19
519.173	338.19
519.389	333.19
519.605	298.19
519.82	350.19
520.036	381.19
520.251	392.19
520.467	376.19
520.682	601.19
520.898	724.19
521.113	654.19
521.329	404.19
521.544	347.19
521.76	319.19
521.975	314.19
522.19	318.19
522.406	304.19
522.621	317.19
522.836	338.19
523.052	337.19
523.267	304.19
523.482	301.19
523.698	307.19
523.913	308.19
524.128	264.19
524.343	272.19
524.559	276.19
524.774	268.19
524.989	279.19
525.204	276.19
525.419	306.19
525.634	289.19
525.849	274.19
526.064	294.19
526.28	288.19
526.495	344.19
526.71	351.19
526.925	294.19
527.14	311.19
527.355	306.19
527.57	272.19
527.785	303.19
527.999	268.19
528.214	264.19
528.429	271.19
528.644	261.19
528.859	249.19
529.074	244.19
529.289	234.19
529.503	246.19
529.718	249.19
529.933	301.19
530.148	308.19
530.363	267.19
530.577	255.19
530.792	231.19
531.007	243.19
531.221	248.19
531.436	233.19
531.651	276.19
531.865	256.19
532.08	258.19
532.295	262.19
532.509	246.19
532.724	279.19
532.938	313.19
533.153	361.19
533.367	293.19
533.582	287.19
533.796	271.19
534.011	260.19
534.225	266.19
534.44	260.19
534.654	287.19
534.868	312.19
535.083	289.19
535.297	256.19
535.511	252.19
535.726	281.19
535.94	262.19
536.154	238.19
536.369	241.19
536.583	248.19
536.797	227.19
537.011	239.19
537.225	266.19
537.44	286.19
537.654	254.19
537.868	237.19
538.082	254.19
538.296	237.19
538.51	260.19
538.724	246.19
538.938	260.19
539.153	250.19
539.367	256.19
539.581	245.19
539.795	239.19
540.009	269.19
540.222	252.19
540.436	244.19
540.65	252.19
540.864	286.19
541.078	288.19
541.292	328.19
541.506	252.19
541.72	254.19
541.934	237.19
542.147	245.19
542.361	231.19
542.575	231.19
542.789	242.19
543.002	224.19
543.216	260.19
543.43	247.19
543.644	243.19
543.857	224.19
544.071	229.19
544.285	240.19
544.498	253.19
544.712	225.19
544.925	247.19
545.139	236.19
545.352	230.19
545.566	242.19
545.779	234.19
545.993	242.19
546.206	209.19
546.42	239.19
546.633	224.19
546.847	203.19
547.06	217.19
547.274	231.19
547.487	214.19
547.7	251.19
547.914	229.19
548.127	260.19
548.34	265.19
548.554	242.19
548.767	252.19
548.98	245.19
549.193	238.19
549.407	238.19
549.62	289.19
549.833	248.19
550.046	282.19
550.259	289.19
550.473	262.19
550.686	240.19
550.899	252.19
551.112	247.19
551.325	261.19
551.538	268.19
551.751	240.19
551.964	219.19
552.177	234.19
552.39	210.19
552.603	230.19
552.816	237.19
553.029	264.19
553.242	237.19
553.455	252.19
553.667	274.19
553.88	274.19
554.093	241.19
554.306	253.19
554.519	220.19
554.732	194.19
554.944	229.19
555.157	227.19
555.37	210.19
555.583	201.19
555.795	229.19
556.008	208.19
556.221	207.19
556.433	189.19
556.646	213.19
556.859	215.19
557.071	210.19
557.284	226.19
557.496	216.19
557.709	205.19
557.921	220.19
558.134	193.19
558.346	218.19
558.559	208.19
558.771	205.19
558.984	206.19
559.196	209.19
559.409	208.19
559.621	198.19
559.833	187.19
560.046	195.19
560.258	176.19
560.47	193.19
560.683	180.19
560.895	180.19
561.107	199.19
561.32	174.19
561.532	196.19
561.744	192.19
561.956	200.19
562.168	189.19
562.381	202.19
562.593	200.19
562.805	224.19
563.017	205.19
563.229	197.19
563.441	184.19
563.653	189.19
563.865	175.19
564.077	195.19
564.289	200.19
564.501	194.19
564.713	216.19
564.925	198.19
565.137	183.19
565.349	206.19
565.561	209.19
565.773	197.19
565.985	216.19
566.197	216.19
566.408	247.19
566.62	250.19
566.832	254.19
567.044	252.19
567.255	261.19
567.467	272.19
567.679	264.19
567.891	268.19
568.102	280.19
568.314	285.19
568.526	257.19
568.737	246.19
568.949	254.19
569.161	218.19
569.372	211.19
569.584	221.19
569.795	221.19
570.007	200.19
570.218	223.19
570.43	215.19
570.641	189.19
570.853	188.19
571.064	205.19
571.276	200.19
571.487	195.19
571.698	201.19
571.91	189.19
572.121	198.19
572.333	194.19
572.544	180.19
572.755	188.19
572.966	169.19
573.178	182.19
573.389	196.19
573.6	203.19
573.811	194.19
574.023	164.19
574.234	184.19
574.445	182.19
574.656	183.19
574.867	190.19
575.078	187.19
575.289	167.19
575.501	198.19
575.712	199.19
575.923	177.19
576.134	172.19
576.345	176.19
576.556	178.19
576.767	164.19
576.978	178.19
577.188	168.19
577.399	173.19
577.61	160.19
577.821	169.19
578.032	173.19
578.243	192.19
578.454	176.19
578.665	184.19
578.875	171.19
579.086	185.19
579.297	177.19
579.508	187.19
579.718	173.19
579.929	163.19
580.14	192.19
580.35	174.19
580.561	167.19
580.772	172.19
580.982	166.19
581.193	167.19
581.403	174.19
581.614	150.19
581.825	162.19
582.035	159.19
582.246	161.19
582.456	178.19
582.667	160.19
582.877	150.19
583.087	170.19
583.298	177.19
583.508	157.19
583.719	157.19
583.929	145.19
584.139	150.19
584.35	143.19
584.56	148.19
584.77	158.19
584.981	147.19
585.191	148.19
585.401	180.19
585.611	162.19
585.821	159.19
586.032	150.19
586.242	152.19
586.452	154.19
586.662	161.19
586.872	146.19
587.082	160.19
587.292	150.19
587.502	144.19
587.713	153.19
587.923	153.19
588.133	163.19
588.343	178.19
588.553	144.19
588.762	154.19
588.972	156.19
589.182	142.19
589.392	161.19
589.602	158.19
589.812	169.19
590.022	174.19
590.232	185.19
590.441	156.19
590.651	153.19
590.861	160.19
591.071	154.19
591.281	153.19
591.49	165.19
591.7	142.19
591.91	160.19
592.119	169.19
592.329	176.19
592.539	154.19
592.748	172.19
592.958	178.19
593.167	175.19
593.377	173.19
593.587	181.19
593.796	185.19
594.006	169.19
594.215	183.19
594.424	174.19
594.634	188.19
594.843	161.19
595.053	159.19
595.262	159.19
595.472	153.19
595.681	153.19
595.89	153.19
596.1	142.19
596.309	158.19
596.518	145.19
596.727	148.19
596.937	151.19
597.146	161.19
597.355	161.19
597.564	146.19
597.774	150.19
597.983	151.19
598.192	147.19
598.401	154.19
598.61	133.19
598.819	138.19
599.028	134.19
599.237	148.19
599.446	138.19
599.655	144.19
599.864	143.19
600.073	142.19
600.282	136.19
600.491	137.19
600.7	151.19
600.909	151.19
601.118	132.19
601.327	139.19
601.536	137.19
601.745	152.19
601.953	156.19
602.162	146.19
602.371	150.19
602.58	151.19
602.789	138.19
602.997	129.19
603.206	139.19
603.415	144.19
603.623	136.19
603.832	130.19
604.041	135.19
604.249	130.19
604.458	136.19
604.666	139.19
604.875	143.19
605.084	141.19
605.292	138.19
605.501	129.19
605.709	135.19
605.918	131.19
606.126	141.19
606.334	147.19
606.543	126.19
606.751	135.19
606.96	129.19
607.168	133.19
607.376	136.19
607.585	146.19
607.793	129.19
608.001	134.19
608.21	132.19
608.418	139.19
608.626	138.19
608.834	137.19
609.043	128.19
609.251	128.19
609.459	131.19
609.667	136.19
609.875	134.19
610.083	139.19
610.291	125.19
610.499	146.19
610.707	128.19
610.916	141.19
611.124	142.19
611.332	122.19
611.54	142.19
611.748	116.19
611.955	140.19
612.163	123.19
612.371	134.19
612.579	123.19
612.787	135.19
612.995	117.19
613.203	137.19
613.411	133.19
613.618	127.19
613.826	129.19
614.034	124.19
614.242	118.19
614.449	132.19
614.657	124.19
614.865	133.19
615.072	131.19
615.28	123.19
615.488	130.19
615.695	127.19
615.903	129.19
616.111	143.19
616.318	131.19
616.526	138.19
616.733	120.19
616.941	132.19
617.148	149.19
617.356	138.19
617.563	124.19
617.771	130.19
617.978	139.19
618.185	129.19
618.393	142.19
618.6	144.19
618.807	142.19
619.015	125.19
619.222	129.19
619.429	133.19
619.637	117.19
619.844	133.19
620.051	130.19
620.258	129.19
620.466	126.19
620.673	114.19
620.88	123.19
621.087	127.19
621.294	121.19
621.501	138.19
621.708	126.19
621.915	129.19
622.122	133.19
622.329	117.19
622.536	120.19
622.743	119.19
622.95	118.19
623.157	124.19
623.364	131.19
623.571	128.19
623.778	117.19
623.985	113.19
624.192	124.19
624.399	138.19
624.606	121.19
624.812	129.19
625.019	113.19
625.226	133.19
625.433	129.19
625.639	127.19
625.846	120.19
626.053	126.19
626.259	118.19
626.466	125.19
626.673	122.19
626.879	116.19
627.086	135.19
627.293	126.19
627.499	128.19
627.706	119.19
627.912	113.19
628.119	126.19
628.325	121.19
628.532	121.19
628.738	128.19
628.945	109.19
629.151	119.19
629.357	113.19
629.564	133.19
629.77	134.19
629.976	118.19
630.183	113.19
630.389	121.19
630.595	111.19
630.802	120.19
631.008	119.19
631.214	107.19
631.42	130.19
631.627	114.19
631.833	132.19
632.039	116.19
632.245	120.19
632.451	108.19
632.657	109.19
632.863	118.19
633.069	116.19
633.275	117.19
633.481	120.19
633.688	122.19
633.893	112.19
634.099	105.19
634.305	123.19
634.511	105.19
634.717	120.19
634.923	99.19
635.129	102.19
635.335	119.19
635.541	108.19
635.747	103.19
635.952	108.19
636.158	112.19
636.364	120.19
636.57	119.19
636.775	105.19
636.981	131.19
637.187	118.19
637.392	118.19
637.598	120.19
637.804	100.19
638.009	102.19
638.215	113.19
638.421	112.19
638.626	115.19
638.832	120.19
639.037	114.19
639.243	92.19
639.448	113.19
639.654	126.19
639.859	111.19
640.065	109.19
640.27	117.19
640.475	116.19
640.681	110.19
640.886	112.19
641.091	113.19
641.297	111.19
641.502	120.19
641.707	119.19
641.913	122.19
642.118	124.19
642.323	122.19
642.528	106.19
642.733	106.19
642.939	108.19
643.144	94.19
643.349	108.19
643.554	126.19
643.759	108.19
643.964	118.19
644.169	104.19
644.374	121.19
644.579	116.19
644.784	98.19
644.989	96.19
645.194	108.19
645.399	96.19
645.604	105.19
645.809	105.19
646.014	117.19
646.219	106.19
646.423	116.19
646.628	114.19
646.833	112.19
647.038	112.19
647.243	119.19
647.447	108.19
647.652	110.19
647.857	113.19
648.062	99.19
648.266	110.19
648.471	102.19
648.676	105.19
648.88	116.19
649.085	134.19
649.289	106.19
649.494	102.19
649.698	120.19
649.903	112.19
650.107	111.19
650.312	107.19
650.516	102.19
650.721	115.19
650.925	112.19
651.13	94.19
651.334	103.19
651.539	101.19
651.743	94.19
651.947	106.19
652.152	102.19
652.356	98.19
652.56	101.19
652.764	90.19
652.969	112.19
653.173	102.19
653.377	110.19
653.581	93.19
653.785	110.19
653.99	108.19
654.194	109.19
654.398	108.19
654.602	102.19
654.806	81.19
655.01	97.19
655.214	101.19
655.418	96.19
655.622	91.19
655.826	102.19
656.03	88.19
656.234	112.19
656.438	102.19
656.642	100.19
656.846	100.19
657.049	101.19
657.253	103.19
657.457	99.19
657.661	101.19
657.865	88.19
658.068	92.19
658.272	89.19
658.476	84.19
658.68	77.19
658.883	82.19
659.087	79.19
659.291	89.19
659.494	83.19
659.698	86.19
659.901	84.19
660.105	98.19
660.309	95.19
660.512	96.19
660.716	82.19
660.919	91.19
661.123	97.19
661.326	88.19
661.53	88.19
661.733	88.19
661.936	96.19
662.14	84.19
662.343	73.19
662.546	85.19
662.75	84.19
662.953	95.19
663.156	85.19
663.36	73.19
663.563	84.19
663.766	99.19
663.969	81.19
664.173	76.19
664.376	73.19
664.579	88.19
664.782	74.19
664.985	94.19
665.188	92.19
665.391	74.19
665.594	79.19
665.797	83.19
666	73.19
666.203	83.19
666.406	81.19
666.609	75.19
666.812	92.19
667.015	86.19
667.218	74.19
667.421	78.19
667.624	89.19
667.827	84.19
668.03	64.19
668.232	72.19
668.435	90.19
668.638	89.19
668.841	102.19
669.043	76.19
669.246	76.19
669.449	93.19
669.651	67.19
669.854	98.19
670.057	69.19
670.259	82.19
670.462	90.19
670.665	74.19
670.867	81.19
671.07	90.19
671.272	77.19
671.475	72.19
671.677	82.19
671.88	72.19
672.082	78.19
672.284	97.19
672.487	88.19
672.689	81.19
672.892	75.19
