Data from NickelSpatula_HRD10591_16-35-32-125.txt Node
Date: Mon Jul 22 16:35:32 EDT 2019
User: cochatt
Spectrometer: HR+D1059
Trigger mode: 1
Integration Time (sec): 1.000000E-1
Scans to average: 1
Electric dark correction enabled: true
Nonlinearity correction enabled: false
Boxcar width: 0
XAxis mode: Wavelengths
Number of Pixels in Spectrum: 2048
>>>>>Begin Spectral Data<<<<<
223.165	-10
223.4	-10
223.635	-10
223.869	-4
224.104	-11
224.338	-10
224.573	-16
224.808	-13
225.042	-8
225.277	4
225.511	0
225.746	-5
225.98	7
226.215	-8
226.449	6
226.683	16
226.918	28
227.152	24
227.387	41
227.621	18
227.856	41
228.09	32
228.324	26
228.559	61
228.793	54
229.027	67
229.262	63
229.496	72
229.73	96
229.964	98
230.199	86
230.433	92
230.667	77
230.901	102
231.136	85
231.37	87
231.604	88
231.838	100
232.072	103
232.306	106
232.541	118
232.775	100
233.009	104
233.243	97
233.477	116
233.711	118
233.945	110
234.179	107
234.413	120
234.647	120
234.881	119
235.115	126
235.349	126
235.583	117
235.817	108
236.051	116
236.285	115
236.519	130
236.753	105
236.987	131
237.221	113
237.455	131
237.689	128
237.922	144
238.156	118
238.39	138
238.624	154
238.858	149
239.091	133
239.325	140
239.559	121
239.793	149
240.027	157
240.26	136
240.494	140
240.728	142
240.961	154
241.195	154
241.429	157
241.662	154
241.896	127
242.13	124
242.363	120
242.597	132
242.83	136
243.064	133
243.298	145
243.531	146
243.765	161
243.998	155
244.232	151
244.465	145
244.699	134
244.932	162
245.166	163
245.399	148
245.633	138
245.866	149
246.099	139
246.333	167
246.566	155
246.8	171
247.033	175
247.266	166
247.5	151
247.733	169
247.966	150
248.2	148
248.433	158
248.666	185
248.899	189
249.133	175
249.366	182
249.599	205
249.832	194
250.066	187
250.299	170
250.532	166
250.765	182
250.998	170
251.231	172
251.465	158
251.698	195
251.931	176
252.164	169
252.397	200
252.63	221
252.863	226
253.096	242
253.329	211
253.562	216
253.795	247
254.028	264
254.261	283
254.494	251
254.727	228
254.96	231
255.193	234
255.426	241
255.659	174
255.892	167
256.124	181
256.357	209
256.59	223
256.823	227
257.056	215
257.289	194
257.521	190
257.754	221
257.987	259
258.22	222
258.452	198
258.685	226
258.918	239
259.151	248
259.383	262
259.616	275
259.849	280
260.081	299
260.314	312
260.547	275
260.779	287
261.012	313
261.244	310
261.477	299
261.71	285
261.942	251
262.175	262
262.407	223
262.64	245
262.872	267
263.105	294
263.337	314
263.57	288
263.802	213
264.035	203
264.267	189
264.499	175
264.732	156
264.964	168
265.197	159
265.429	168
265.661	176
265.894	179
266.126	192
266.358	211
266.591	234
266.823	287
267.055	272
267.287	240
267.52	240
267.752	260
267.984	276
268.216	248
268.448	223
268.681	207
268.913	244
269.145	247
269.377	254
269.609	264
269.841	243
270.073	248
270.306	260
270.538	263
270.77	280
271.002	285
271.234	290
271.466	300
271.698	272
271.93	256
272.162	261
272.394	251
272.626	259
272.858	250
273.09	262
273.322	249
273.553	236
273.785	262
274.017	339
274.249	398
274.481	396
274.713	423
274.945	490
275.176	504
275.408	466
275.64	436
275.872	410
276.104	353
276.335	332
276.567	331
276.799	335
277.031	362
277.262	300
277.494	222
277.726	222
277.957	230
278.189	265
278.421	262
278.652	255
278.884	258
279.115	228
279.347	243
279.579	233
279.81	237
280.042	236
280.273	224
280.505	207
280.736	219
280.968	199
281.199	221
281.431	251
281.662	237
281.894	229
282.125	234
282.356	254
282.588	260
282.819	249
283.051	243
283.282	294
283.513	330
283.745	361
283.976	354
284.207	338
284.439	352
284.67	335
284.901	314
285.132	347
285.364	358
285.595	312
285.826	325
286.057	326
286.288	326
286.52	335
286.751	358
286.982	357
287.213	327
287.444	318
287.675	333
287.906	316
288.138	296
288.369	260
288.6	254
288.831	240
289.062	297
289.293	319
289.524	301
289.755	286
289.986	299
290.217	274
290.448	231
290.679	201
290.91	180
291.141	199
291.371	219
291.602	202
291.833	216
292.064	210
292.295	227
292.526	251
292.757	257
292.987	280
293.218	297
293.449	301
293.68	317
293.91	312
294.141	330
294.372	282
294.603	252
294.833	299
295.064	316
295.295	317
295.525	250
295.756	213
295.987	207
296.217	186
296.448	195
296.679	208
296.909	209
297.14	225
297.37	242
297.601	236
297.831	214
298.062	226
298.292	259
298.523	267
298.753	295
298.984	288
299.214	220
299.445	212
299.675	190
299.905	191
300.136	197
300.366	210
300.597	197
300.827	184
301.057	183
301.288	202
301.518	211
301.748	229
301.979	247
302.209	255
302.439	233
302.669	215
302.9	228
303.13	212
303.36	207
303.59	210
303.82	202
304.051	212
304.281	231
304.511	226
304.741	219
304.971	218
305.201	219
305.431	233
305.661	200
305.891	187
306.121	207
306.352	176
306.582	167
306.812	178
307.042	146
307.272	168
307.502	164
307.731	161
307.961	172
308.191	161
308.421	157
308.651	157
308.881	152
309.111	148
309.341	169
309.571	173
309.8	167
310.03	169
310.26	191
310.49	189
310.72	157
310.949	175
311.179	187
311.409	182
311.639	204
311.868	230
312.098	303
312.328	336
312.557	318
312.787	334
313.017	310
313.246	310
313.476	332
313.706	269
313.935	248
314.165	203
314.394	187
314.624	188
314.853	193
315.083	200
315.312	193
315.542	187
315.771	162
316.001	158
316.23	172
316.46	171
316.689	169
316.919	165
317.148	160
317.377	180
317.607	167
317.836	176
318.065	196
318.295	220
318.524	206
318.753	186
318.983	165
319.212	164
319.441	184
319.67	211
319.9	201
320.129	229
320.358	183
320.587	163
320.816	187
321.046	211
321.275	224
321.504	206
321.733	208
321.962	210
322.191	190
322.42	191
322.649	181
322.878	215
323.108	208
323.337	200
323.566	203
323.795	214
324.024	180
324.253	184
324.482	182
324.71	179
324.939	223
325.168	215
325.397	166
325.626	163
325.855	187
326.084	181
326.313	166
326.542	163
326.77	159
326.999	166
327.228	194
327.457	173
327.686	175
327.914	153
328.143	162
328.372	170
328.6	169
328.829	157
329.058	169
329.287	166
329.515	160
329.744	179
329.972	174
330.201	162
330.43	168
330.658	184
330.887	197
331.115	187
331.344	174
331.572	170
331.801	156
332.03	179
332.258	162
332.486	174
332.715	195
332.943	162
333.172	164
333.4	176
333.629	211
333.857	200
334.085	195
334.314	208
334.542	203
334.771	188
334.999	182
335.227	190
335.455	181
335.684	188
335.912	216
336.14	227
336.369	204
336.597	215
336.825	215
337.053	259
337.281	218
337.51	189
337.738	175
337.966	190
338.194	204
338.422	195
338.65	180
338.878	169
339.106	168
339.334	186
339.562	181
339.79	178
340.018	169
340.246	180
340.474	194
340.702	212
340.93	208
341.158	227
341.386	178
341.614	190
341.842	192
342.07	199
342.298	212
342.526	216
342.754	188
342.981	190
343.209	184
343.437	201
343.665	207
343.893	204
344.12	215
344.348	262
344.576	235
344.804	219
345.031	174
345.259	166
345.487	166
345.714	161
345.942	185
346.17	204
346.397	199
346.625	175
346.853	174
347.08	168
347.308	184
347.535	199
347.763	193
347.99	175
348.218	176
348.445	191
348.673	170
348.9	179
349.128	196
349.355	193
349.583	188
349.81	187
350.037	176
350.265	158
350.492	158
350.72	171
350.947	160
351.174	171
351.402	187
351.629	184
351.856	169
352.083	175
352.311	176
352.538	193
352.765	190
352.992	188
353.22	188
353.447	180
353.674	184
353.901	175
354.128	171
354.355	175
354.583	169
354.81	186
355.037	190
355.264	184
355.491	182
355.718	193
355.945	182
356.172	197
356.399	181
356.626	195
356.853	253
357.08	246
357.307	271
357.534	224
357.761	224
357.988	270
358.215	279
358.441	258
358.668	244
358.895	234
359.122	206
359.349	197
359.576	218
359.802	184
360.029	174
360.256	180
360.483	204
360.709	236
360.936	243
361.163	256
361.39	190
361.616	171
361.843	196
362.07	221
362.296	213
362.523	187
362.749	171
362.976	165
363.203	197
363.429	197
363.656	191
363.882	170
364.109	182
364.335	182
364.562	179
364.788	187
365.015	201
365.241	183
365.468	184
365.694	186
365.92	158
366.147	154
366.373	145
366.599	168
366.826	144
367.052	159
367.278	155
367.505	139
367.731	157
367.957	163
368.184	175
368.41	175
368.636	176
368.862	183
369.089	180
369.315	183
369.541	162
369.767	157
369.993	162
370.219	151
370.445	174
370.672	165
370.898	185
371.124	180
371.35	173
371.576	161
371.802	184
372.028	180
372.254	191
372.48	185
372.706	187
372.932	187
373.158	196
373.384	225
373.61	241
373.835	262
374.061	211
374.287	182
374.513	214
374.739	248
374.965	235
375.191	232
375.416	187
375.642	180
375.868	197
376.094	221
376.319	183
376.545	212
376.771	198
376.997	180
377.222	181
377.448	154
377.674	152
377.899	146
378.125	147
378.35	159
378.576	161
378.802	162
379.027	170
379.253	169
379.478	181
379.704	184
379.929	163
380.155	183
380.38	170
380.606	172
380.831	200
381.057	187
381.282	176
381.507	204
381.733	245
381.958	237
382.184	227
382.409	244
382.634	248
382.86	256
383.085	228
383.31	214
383.535	188
383.761	203
383.986	196
384.211	234
384.436	224
384.662	186
384.887	170
385.112	178
385.337	174
385.562	181
385.787	200
386.013	208
386.238	205
386.463	197
386.688	166
386.913	175
387.138	170
387.363	178
387.588	171
387.813	180
388.038	187
388.263	180
388.488	192
388.713	199
388.938	205
389.163	176
389.387	164
389.612	178
389.837	182
390.062	176
390.287	169
390.512	181
390.736	180
390.961	174
391.186	175
391.411	168
391.636	184
391.86	179
392.085	195
392.31	203
392.534	179
392.759	179
392.984	183
393.208	186
393.433	160
393.658	154
393.882	148
394.107	147
394.331	170
394.556	148
394.78	157
395.005	162
395.229	156
395.454	162
395.678	171
395.903	158
396.127	165
396.352	172
396.576	210
396.801	180
397.025	192
397.249	199
397.474	170
397.698	176
397.922	196
398.147	164
398.371	176
398.595	175
398.82	187
399.044	194
399.268	196
399.492	196
399.717	209
399.941	197
400.165	189
400.389	188
400.613	197
400.837	187
401.062	188
401.286	181
401.51	162
401.734	179
401.958	180
402.182	183
402.406	180
402.63	182
402.854	182
403.078	210
403.302	233
403.526	253
403.75	246
403.974	210
404.198	218
404.422	216
404.645	236
404.869	239
405.093	196
405.317	197
405.541	180
405.765	197
405.988	187
406.212	194
406.436	226
406.66	223
406.883	194
407.107	228
407.331	222
407.555	220
407.778	212
408.002	206
408.226	209
408.449	207
408.673	207
408.896	191
409.12	184
409.344	187
409.567	179
409.791	194
410.014	178
410.238	167
410.461	190
410.685	169
410.908	174
411.132	177
411.355	184
411.578	184
411.802	184
412.025	194
412.249	186
412.472	182
412.695	188
412.919	179
413.142	189
413.365	209
413.589	207
413.812	175
414.035	172
414.258	186
414.482	196
414.705	206
414.928	192
415.151	160
415.374	185
415.597	174
415.821	191
416.044	173
416.267	185
416.49	166
416.713	166
416.936	179
417.159	186
417.382	194
417.605	166
417.828	169
418.051	195
418.274	184
418.497	173
418.72	174
418.943	176
419.166	186
419.389	186
419.611	194
419.834	197
420.057	199
420.28	208
420.503	195
420.726	195
420.948	181
421.171	185
421.394	176
421.617	182
421.839	171
422.062	182
422.285	182
422.507	179
422.73	173
422.953	177
423.175	189
423.398	175
423.621	202
423.843	206
424.066	203
424.288	195
424.511	171
424.733	197
424.956	191
425.178	211
425.401	226
425.623	235
425.846	212
426.068	170
426.291	198
426.513	193
426.735	180
426.958	203
427.18	207
427.402	238
427.625	250
427.847	212
428.069	190
428.292	176
428.514	182
428.736	189
428.958	186
429.181	225
429.403	199
429.625	188
429.847	171
430.069	176
430.292	163
430.514	174
430.736	186
430.958	214
431.18	196
431.402	158
431.624	165
431.846	163
432.068	172
432.29	163
432.512	176
432.734	202
432.956	212
433.178	169
433.4	167
433.622	167
433.844	169
434.066	200
434.287	197
434.509	207
434.731	220
434.953	192
435.175	189
435.397	212
435.618	183
435.84	163
436.062	170
436.284	189
436.505	170
436.727	167
436.949	176
437.17	175
437.392	161
437.614	187
437.835	175
438.057	175
438.278	180
438.5	229
438.721	222
438.943	178
439.165	161
439.386	156
439.608	171
439.829	169
440.05	186
440.272	175
440.493	203
440.715	211
440.936	203
441.158	175
441.379	170
441.6	190
441.822	203
442.043	173
442.264	183
442.486	168
442.707	190
442.928	174
443.149	178
443.371	174
443.592	174
443.813	184
444.034	194
444.255	206
444.476	189
444.698	189
444.919	195
445.14	314
445.361	247
445.582	184
445.803	192
446.024	190
446.245	189
446.466	182
446.687	182
446.908	188
447.129	172
447.35	162
447.571	166
447.792	171
448.013	154
448.234	153
448.455	158
448.675	168
448.896	143
449.117	148
449.338	169
449.559	151
449.779	168
450	189
450.221	170
450.442	173
450.662	169
450.883	177
451.104	170
451.324	175
451.545	170
451.766	189
451.986	176
452.207	167
452.428	153
452.648	173
452.869	161
453.089	183
453.31	166
453.53	166
453.751	158
453.971	154
454.192	152
454.412	166
454.633	143
454.853	165
455.073	154
455.294	146
455.514	159
455.734	162
455.955	165
456.175	170
456.395	164
456.616	144
456.836	150
457.056	149
457.276	153
457.497	155
457.717	150
457.937	152
458.157	176
458.377	160
458.598	175
458.818	164
459.038	163
459.258	172
459.478	172
459.698	185
459.918	175
460.138	179
460.358	186
460.578	192
460.798	180
461.018	188
461.238	169
461.458	186
461.678	190
461.898	198
462.118	193
462.338	196
462.558	198
462.777	196
462.997	218
463.217	185
463.437	219
463.657	208
463.876	206
464.096	197
464.316	186
464.536	174
464.755	224
464.975	211
465.195	198
465.414	214
465.634	182
465.854	191
466.073	183
466.293	173
466.512	178
466.732	209
466.951	216
467.171	189
467.391	180
467.61	185
467.829	180
468.049	190
468.268	179
468.488	184
468.707	176
468.927	188
469.146	204
469.365	198
469.585	192
469.804	188
470.023	220
470.243	188
470.462	175
470.681	185
470.901	184
471.12	193
471.339	184
471.558	194
471.777	200
471.997	191
472.216	223
472.435	204
472.654	194
472.873	190
473.092	181
473.311	198
473.53	180
473.749	180
473.968	211
474.187	198
474.406	189
474.625	188
474.844	205
475.063	205
475.282	207
475.501	205
475.72	228
475.939	207
476.158	217
476.377	233
476.596	258
476.814	272
477.033	248
477.252	208
477.471	190
477.69	196
477.908	202
478.127	215
478.346	215
478.564	225
478.783	205
479.002	205
479.22	225
479.439	266
479.658	217
479.876	200
480.095	218
480.313	221
480.532	214
480.751	198
480.969	205
481.188	228
481.406	258
481.624	221
481.843	210
482.061	200
482.28	215
482.498	272
482.717	266
482.935	230
483.153	200
483.372	180
483.59	188
483.808	194
484.027	190
484.245	194
484.463	187
484.681	195
484.9	215
485.118	219
485.336	208
485.554	195
485.772	183
485.99	217
486.209	230
486.427	223
486.645	205
486.863	231
487.081	223
487.299	232
487.517	239
487.735	235
487.953	233
488.171	229
488.389	207
488.607	204
488.825	191
489.043	227
489.261	261
489.479	262
489.696	228
489.914	211
490.132	199
490.35	231
490.568	219
490.786	209
491.003	215
491.221	231
491.439	194
491.657	199
491.874	227
492.092	252
492.31	284
492.527	301
492.745	257
492.963	236
493.18	216
493.398	221
493.615	218
493.833	226
494.05	206
494.268	225
494.485	226
494.703	230
494.92	223
495.138	225
495.355	204
495.573	219
495.79	231
496.008	291
496.225	252
496.442	229
496.66	236
496.877	233
497.094	253
497.312	238
497.529	216
497.746	213
497.963	227
498.181	235
498.398	275
498.615	289
498.832	306
499.049	299
499.267	279
499.484	284
499.701	294
499.918	303
500.135	342
500.352	361
500.569	359
500.786	373
501.003	343
501.22	339
501.437	294
501.654	282
501.871	276
502.088	269
502.305	273
502.522	251
502.739	249
502.956	228
503.172	234
503.389	233
503.606	243
503.823	237
504.04	238
504.256	234
504.473	232
504.69	238
504.907	231
505.123	260
505.34	263
505.557	244
505.773	227
505.99	219
506.207	236
506.423	228
506.64	219
506.856	214
507.073	234
507.289	230
507.506	237
507.722	238
507.939	237
508.155	243
508.372	233
508.588	232
508.805	214
509.021	213
509.238	214
509.454	230
509.67	218
509.887	224
510.103	243
510.319	239
510.536	221
510.752	208
510.968	178
511.184	170
511.401	187
511.617	208
511.833	204
512.049	190
512.265	208
512.481	215
512.698	223
512.914	234
513.13	212
513.346	219
513.562	211
513.778	215
513.994	211
514.21	228
514.426	215
514.642	212
514.858	206
515.074	239
515.29	237
515.506	245
515.721	234
515.937	221
516.153	199
516.369	208
516.585	224
516.801	245
517.016	272
517.232	251
517.448	283
517.664	254
517.879	230
518.095	237
518.311	242
518.527	260
518.742	259
518.958	267
519.173	254
519.389	269
519.605	237
519.82	275
520.036	302
520.251	279
520.467	264
520.682	415
520.898	493
521.113	461
521.329	312
521.544	279
521.76	263
521.975	215
522.19	218
522.406	228
522.621	255
522.836	265
523.052	279
523.267	240
523.482	219
523.698	248
523.913	237
524.128	223
524.343	204
524.559	217
524.774	204
524.989	226
525.204	220
525.419	221
525.634	210
525.849	240
526.064	239
526.28	207
526.495	239
526.71	280
526.925	238
527.14	257
527.355	235
527.57	220
527.785	232
527.999	225
528.214	211
528.429	205
528.644	207
528.859	195
529.074	200
529.289	208
529.503	198
529.718	198
529.933	254
530.148	238
530.363	206
530.577	185
530.792	182
531.007	189
531.221	199
531.436	193
531.651	195
531.865	208
532.08	202
532.295	192
532.509	206
532.724	231
532.938	247
533.153	286
533.367	246
533.582	224
533.796	221
534.011	194
534.225	220
534.44	212
534.654	228
534.868	262
535.083	221
535.297	202
535.511	195
535.726	223
535.94	211
536.154	200
536.369	206
536.583	196
536.797	213
537.011	202
537.225	205
537.44	223
537.654	204
537.868	202
538.082	205
538.296	191
538.51	204
538.724	204
538.938	199
539.153	178
539.367	195
539.581	188
539.795	205
540.009	214
540.222	201
540.436	207
540.65	214
540.864	229
541.078	222
541.292	270
541.506	213
541.72	190
541.934	198
542.147	193
542.361	211
542.575	203
542.789	200
543.002	175
543.216	207
543.43	201
543.644	182
543.857	182
544.071	198
544.285	186
544.498	183
544.712	196
544.925	197
545.139	193
545.352	172
545.566	188
545.779	222
545.993	192
546.206	167
546.42	178
546.633	189
546.847	167
547.06	166
547.274	174
547.487	179
547.7	190
547.914	192
548.127	207
548.34	202
548.554	194
548.767	187
548.98	205
549.193	201
549.407	178
549.62	215
549.833	215
550.046	217
550.259	223
550.473	203
550.686	194
550.899	189
551.112	195
551.325	189
551.538	201
551.751	195
551.964	207
552.177	179
552.39	180
552.603	189
552.816	187
553.029	175
553.242	165
553.455	181
553.667	212
553.88	197
554.093	188
554.306	168
554.519	159
554.732	154
554.944	168
555.157	173
555.37	168
555.583	162
555.795	178
556.008	170
556.221	168
556.433	166
556.646	172
556.859	162
557.071	184
557.284	169
557.496	160
557.709	169
557.921	166
558.134	156
558.346	152
558.559	152
558.771	180
558.984	165
559.196	164
559.409	152
559.621	169
559.833	148
560.046	168
560.258	163
560.47	173
560.683	162
560.895	155
561.107	149
561.32	152
561.532	164
561.744	165
561.956	164
562.168	143
562.381	162
562.593	167
562.805	169
563.017	154
563.229	153
563.441	165
563.653	147
563.865	172
564.077	144
564.289	163
564.501	172
564.713	178
564.925	175
565.137	163
565.349	186
565.561	162
565.773	154
565.985	163
566.197	174
566.408	180
566.62	200
566.832	187
567.044	190
567.255	192
567.467	220
567.679	181
567.891	187
568.102	189
568.314	198
568.526	189
568.737	188
568.949	194
569.161	165
569.372	160
569.584	167
569.795	160
570.007	148
570.218	167
570.43	178
570.641	163
570.853	165
571.064	160
571.276	162
571.487	158
571.698	176
571.91	162
572.121	146
572.333	158
572.544	153
572.755	131
572.966	141
573.178	158
573.389	165
573.6	162
573.811	161
574.023	133
574.234	147
574.445	153
574.656	144
574.867	144
575.078	143
575.289	143
575.501	163
575.712	151
575.923	150
576.134	145
576.345	146
576.556	153
576.767	130
576.978	133
577.188	138
577.399	134
577.61	150
577.821	120
578.032	130
578.243	138
578.454	149
578.665	152
578.875	154
579.086	148
579.297	147
579.508	139
579.718	146
579.929	140
580.14	143
580.35	138
580.561	122
580.772	138
580.982	136
581.193	141
581.403	132
581.614	133
581.825	136
582.035	122
582.246	130
582.456	136
582.667	123
582.877	133
583.087	137
583.298	123
583.508	134
583.719	134
583.929	129
584.139	125
584.35	134
584.56	122
584.77	138
584.981	123
585.191	136
585.401	107
585.611	134
585.821	138
586.032	126
586.242	138
586.452	151
586.662	124
586.872	130
587.082	143
587.292	141
587.502	144
587.713	142
587.923	135
588.133	140
588.343	127
588.553	133
588.762	126
588.972	139
589.182	138
589.392	128
589.602	134
589.812	135
590.022	149
590.232	140
590.441	132
590.651	126
590.861	122
591.071	122
591.281	125
591.49	136
591.7	120
591.91	137
592.119	132
592.329	135
592.539	152
592.748	144
592.958	131
593.167	145
593.377	157
593.587	151
593.796	133
594.006	135
594.215	122
594.424	132
594.634	140
594.843	136
595.053	137
595.262	130
595.472	137
595.681	128
595.89	134
596.1	126
596.309	138
596.518	132
596.727	127
596.937	117
597.146	130
597.355	123
597.564	134
597.774	130
597.983	126
598.192	145
598.401	116
598.61	119
598.819	125
599.028	126
599.237	119
599.446	126
599.655	130
599.864	120
600.073	125
600.282	119
600.491	127
600.7	123
600.909	130
601.118	127
601.327	106
601.536	129
601.745	139
601.953	137
602.162	105
602.371	112
602.58	124
602.789	132
602.997	111
603.206	112
603.415	121
603.623	116
603.832	126
604.041	114
604.249	110
604.458	111
604.666	118
604.875	126
605.084	119
605.292	112
605.501	124
605.709	126
605.918	121
606.126	122
606.334	114
606.543	133
606.751	121
606.96	109
607.168	120
607.376	135
607.585	104
607.793	116
608.001	119
608.21	107
608.418	106
608.626	122
608.834	106
609.043	114
609.251	104
609.459	100
609.667	125
609.875	122
610.083	119
610.291	113
610.499	117
610.707	103
610.916	108
611.124	122
611.332	126
611.54	115
611.748	115
611.955	114
612.163	124
612.371	102
612.579	122
612.787	128
612.995	117
613.203	140
613.411	109
613.618	112
613.826	112
614.034	126
614.242	122
614.449	103
614.657	121
614.865	125
615.072	127
615.28	118
615.488	116
615.695	125
615.903	96
616.111	112
616.318	93
616.526	122
616.733	111
616.941	120
617.148	122
617.356	111
617.563	106
617.771	98
617.978	108
618.185	116
618.393	117
618.6	108
618.807	124
619.015	122
619.222	124
619.429	108
619.637	108
619.844	118
620.051	117
620.258	107
620.466	103
620.673	105
620.88	106
621.087	116
621.294	114
621.501	102
621.708	120
621.915	100
622.122	108
622.329	114
622.536	113
622.743	111
622.95	117
623.157	109
623.364	118
623.571	105
623.778	124
623.985	119
624.192	108
624.399	116
624.606	116
624.812	122
625.019	116
625.226	114
625.433	106
625.639	111
625.846	105
626.053	111
626.259	113
626.466	114
626.673	116
626.879	113
627.086	110
627.293	103
627.499	100
627.706	118
627.912	101
628.119	106
628.325	118
628.532	103
628.738	111
628.945	103
629.151	118
629.357	115
629.564	102
629.77	88
629.976	89
630.183	118
630.389	118
630.595	104
630.802	114
631.008	98
631.214	96
631.42	113
631.627	110
631.833	95
632.039	115
632.245	103
632.451	106
632.657	119
632.863	100
633.069	100
633.275	109
633.481	109
633.688	115
633.893	111
634.099	92
634.305	110
634.511	92
634.717	111
634.923	109
635.129	100
635.335	109
635.541	109
635.747	98
635.952	94
636.158	101
636.364	105
636.57	105
636.775	108
636.981	101
637.187	111
637.392	108
637.598	94
637.804	98
638.009	114
638.215	104
638.421	115
638.626	107
638.832	105
639.037	91
639.243	93
639.448	94
639.654	103
639.859	94
640.065	98
640.27	109
640.475	107
640.681	99
640.886	97
641.091	100
641.297	95
641.502	96
641.707	103
641.913	92
642.118	98
642.323	111
642.528	105
642.733	111
642.939	108
643.144	96
643.349	108
643.554	104
643.759	97
643.964	93
644.169	105
644.374	98
644.579	112
644.784	89
644.989	93
645.194	115
645.399	104
645.604	114
645.809	94
646.014	107
646.219	101
646.423	90
646.628	107
646.833	95
647.038	107
647.243	110
647.447	108
647.652	104
647.857	106
648.062	121
648.266	93
648.471	95
648.676	98
648.88	101
649.085	105
649.289	93
649.494	96
649.698	102
649.903	103
650.107	103
650.312	89
650.516	99
650.721	97
650.925	114
651.13	101
651.334	103
651.539	92
651.743	94
651.947	100
652.152	112
652.356	96
652.56	100
652.764	97
652.969	102
653.173	91
653.377	91
653.581	99
653.785	92
653.99	88
654.194	90
654.398	100
654.602	101
654.806	90
655.01	85
655.214	86
655.418	86
655.622	86
655.826	90
656.03	82
656.234	96
656.438	100
656.642	98
656.846	87
657.049	90
657.253	92
657.457	95
657.661	99
657.865	81
658.068	79
658.272	84
658.476	79
658.68	102
658.883	92
659.087	80
659.291	70
659.494	88
659.698	100
659.901	90
660.105	82
660.309	82
660.512	87
660.716	76
660.919	100
661.123	91
661.326	93
661.53	90
661.733	84
661.936	85
662.14	84
662.343	69
662.546	92
662.75	90
662.953	77
663.156	102
663.36	98
663.563	90
663.766	86
663.969	88
664.173	78
664.376	86
664.579	93
664.782	91
664.985	90
665.188	86
665.391	74
665.594	85
665.797	87
666	91
666.203	105
666.406	83
666.609	89
666.812	78
667.015	70
667.218	67
667.421	93
667.624	82
667.827	79
668.03	79
668.232	78
668.435	64
668.638	89
668.841	84
669.043	73
669.246	72
669.449	77
669.651	80
669.854	88
670.057	94
670.259	81
670.462	95
670.665	79
670.867	67
671.07	84
671.272	101
671.475	92
671.677	88
671.88	87
672.082	80
672.284	72
672.487	87
672.689	80
672.892	86
