Data from NickelSpatula_HRD10591_16-34-53-125.txt Node
Date: Mon Jul 22 16:34:53 EDT 2019
User: cochatt
Spectrometer: HR+D1059
Trigger mode: 1
Integration Time (sec): 1.000000E-1
Scans to average: 1
Electric dark correction enabled: true
Nonlinearity correction enabled: false
Boxcar width: 0
XAxis mode: Wavelengths
Number of Pixels in Spectrum: 2048
>>>>>Begin Spectral Data<<<<<
223.165	-20.69
223.4	-20.69
223.635	-20.69
223.869	-22.69
224.104	-18.69
224.338	-10.69
224.573	-21.69
224.808	-3.69
225.042	-8.69
225.277	-10.69
225.511	7.31
225.746	13.31
225.98	0.31
226.215	1.31
226.449	12.31
226.683	21.31
226.918	22.31
227.152	39.31
227.387	31.31
227.621	45.31
227.856	45.31
228.09	54.31
228.324	49.31
228.559	59.31
228.793	53.31
229.027	72.31
229.262	79.31
229.496	90.31
229.73	68.31
229.964	77.31
230.199	91.31
230.433	98.31
230.667	81.31
230.901	91.31
231.136	94.31
231.37	88.31
231.604	91.31
231.838	114.31
232.072	101.31
232.306	105.31
232.541	109.31
232.775	100.31
233.009	109.31
233.243	110.31
233.477	125.31
233.711	129.31
233.945	121.31
234.179	126.31
234.413	131.31
234.647	117.31
234.881	141.31
235.115	140.31
235.349	131.31
235.583	102.31
235.817	117.31
236.051	121.31
236.285	125.31
236.519	130.31
236.753	138.31
236.987	122.31
237.221	128.31
237.455	133.31
237.689	138.31
237.922	135.31
238.156	129.31
238.39	132.31
238.624	173.31
238.858	155.31
239.091	150.31
239.325	156.31
239.559	149.31
239.793	133.31
240.027	166.31
240.26	156.31
240.494	137.31
240.728	154.31
240.961	166.31
241.195	175.31
241.429	160.31
241.662	153.31
241.896	153.31
242.13	133.31
242.363	149.31
242.597	132.31
242.83	156.31
243.064	149.31
243.298	171.31
243.531	179.31
243.765	174.31
243.998	166.31
244.232	170.31
244.465	152.31
244.699	153.31
244.932	162.31
245.166	159.31
245.399	161.31
245.633	149.31
245.866	159.31
246.099	163.31
246.333	181.31
246.566	193.31
246.8	178.31
247.033	187.31
247.266	169.31
247.5	179.31
247.733	200.31
247.966	179.31
248.2	155.31
248.433	168.31
248.666	187.31
248.899	200.31
249.133	185.31
249.366	227.31
249.599	234.31
249.832	210.31
250.066	201.31
250.299	207.31
250.532	202.31
250.765	203.31
250.998	181.31
251.231	172.31
251.465	182.31
251.698	197.31
251.931	198.31
252.164	204.31
252.397	229.31
252.63	243.31
252.863	264.31
253.096	255.31
253.329	249.31
253.562	248.31
253.795	273.31
254.028	299.31
254.261	288.31
254.494	263.31
254.727	255.31
254.96	256.31
255.193	269.31
255.426	245.31
255.659	194.31
255.892	195.31
256.124	195.31
256.357	233.31
256.59	267.31
256.823	255.31
257.056	214.31
257.289	224.31
257.521	230.31
257.754	255.31
257.987	281.31
258.22	251.31
258.452	233.31
258.685	240.31
258.918	272.31
259.151	264.31
259.383	282.31
259.616	314.31
259.849	319.31
260.081	331.31
260.314	357.31
260.547	300.31
260.779	299.31
261.012	338.31
261.244	335.31
261.477	318.31
261.71	318.31
261.942	286.31
262.175	295.31
262.407	282.31
262.64	279.31
262.872	305.31
263.105	332.31
263.337	347.31
263.57	314.31
263.802	229.31
264.035	205.31
264.267	217.31
264.499	190.31
264.732	182.31
264.964	172.31
265.197	174.31
265.429	186.31
265.661	196.31
265.894	200.31
266.126	215.31
266.358	229.31
266.591	265.31
266.823	314.31
267.055	292.31
267.287	286.31
267.52	279.31
267.752	284.31
267.984	319.31
268.216	312.31
268.448	274.31
268.681	253.31
268.913	274.31
269.145	275.31
269.377	298.31
269.609	281.31
269.841	273.31
270.073	293.31
270.306	312.31
270.538	318.31
270.77	311.31
271.002	322.31
271.234	319.31
271.466	299.31
271.698	302.31
271.93	289.31
272.162	293.31
272.394	278.31
272.626	285.31
272.858	294.31
273.09	299.31
273.322	273.31
273.553	270.31
273.785	292.31
274.017	329.31
274.249	433.31
274.481	443.31
274.713	479.31
274.945	549.31
275.176	552.31
275.408	522.31
275.64	483.31
275.872	475.31
276.104	428.31
276.335	380.31
276.567	380.31
276.799	383.31
277.031	407.31
277.262	340.31
277.494	269.31
277.726	244.31
277.957	270.31
278.189	313.31
278.421	291.31
278.652	297.31
278.884	291.31
279.115	279.31
279.347	261.31
279.579	271.31
279.81	285.31
280.042	271.31
280.273	281.31
280.505	260.31
280.736	234.31
280.968	234.31
281.199	229.31
281.431	277.31
281.662	262.31
281.894	256.31
282.125	266.31
282.356	291.31
282.588	295.31
282.819	277.31
283.051	286.31
283.282	351.31
283.513	383.31
283.745	421.31
283.976	422.31
284.207	381.31
284.439	413.31
284.67	399.31
284.901	351.31
285.132	372.31
285.364	419.31
285.595	374.31
285.826	391.31
286.057	398.31
286.288	389.31
286.52	408.31
286.751	426.31
286.982	421.31
287.213	353.31
287.444	352.31
287.675	365.31
287.906	371.31
288.138	323.31
288.369	276.31
288.6	269.31
288.831	290.31
289.062	337.31
289.293	371.31
289.524	339.31
289.755	334.31
289.986	344.31
290.217	290.31
290.448	247.31
290.679	223.31
290.91	193.31
291.141	203.31
291.371	208.31
291.602	219.31
291.833	205.31
292.064	234.31
292.295	266.31
292.526	281.31
292.757	313.31
292.987	321.31
293.218	327.31
293.449	330.31
293.68	357.31
293.91	333.31
294.141	355.31
294.372	338.31
294.603	289.31
294.833	314.31
295.064	354.31
295.295	355.31
295.525	273.31
295.756	241.31
295.987	222.31
296.217	205.31
296.448	228.31
296.679	230.31
296.909	246.31
297.14	266.31
297.37	293.31
297.601	289.31
297.831	253.31
298.062	257.31
298.292	287.31
298.523	309.31
298.753	329.31
298.984	329.31
299.214	268.31
299.445	227.31
299.675	217.31
299.905	220.31
300.136	230.31
300.366	234.31
300.597	228.31
300.827	210.31
301.057	216.31
301.288	211.31
301.518	230.31
301.748	260.31
301.979	266.31
302.209	281.31
302.439	274.31
302.669	259.31
302.9	266.31
303.13	242.31
303.36	244.31
303.59	226.31
303.82	236.31
304.051	256.31
304.281	273.31
304.511	270.31
304.741	261.31
304.971	245.31
305.201	264.31
305.431	258.31
305.661	251.31
305.891	238.31
306.121	205.31
306.352	198.31
306.582	184.31
306.812	190.31
307.042	188.31
307.272	187.31
307.502	168.31
307.731	197.31
307.961	193.31
308.191	177.31
308.421	183.31
308.651	191.31
308.881	179.31
309.111	190.31
309.341	174.31
309.571	198.31
309.8	185.31
310.03	184.31
310.26	213.31
310.49	200.31
310.72	175.31
310.949	190.31
311.179	199.31
311.409	204.31
311.639	222.31
311.868	278.31
312.098	357.31
312.328	383.31
312.557	362.31
312.787	363.31
313.017	332.31
313.246	362.31
313.476	368.31
313.706	321.31
313.935	255.31
314.165	225.31
314.394	218.31
314.624	198.31
314.853	213.31
315.083	243.31
315.312	219.31
315.542	203.31
315.771	198.31
316.001	170.31
316.23	174.31
316.46	186.31
316.689	185.31
316.919	185.31
317.148	177.31
317.377	204.31
317.607	185.31
317.836	207.31
318.065	197.31
318.295	242.31
318.524	231.31
318.753	213.31
318.983	211.31
319.212	208.31
319.441	204.31
319.67	222.31
319.9	226.31
320.129	226.31
320.358	196.31
320.587	195.31
320.816	228.31
321.046	229.31
321.275	267.31
321.504	245.31
321.733	250.31
321.962	237.31
322.191	220.31
322.42	219.31
322.649	222.31
322.878	250.31
323.108	250.31
323.337	229.31
323.566	228.31
323.795	244.31
324.024	218.31
324.253	204.31
324.482	219.31
324.71	225.31
324.939	232.31
325.168	233.31
325.397	203.31
325.626	193.31
325.855	203.31
326.084	191.31
326.313	189.31
326.542	169.31
326.77	201.31
326.999	190.31
327.228	202.31
327.457	213.31
327.686	200.31
327.914	200.31
328.143	170.31
328.372	184.31
328.6	177.31
328.829	190.31
329.058	197.31
329.287	182.31
329.515	186.31
329.744	204.31
329.972	175.31
330.201	153.31
330.43	189.31
330.658	199.31
330.887	207.31
331.115	227.31
331.344	197.31
331.572	210.31
331.801	193.31
332.03	169.31
332.258	195.31
332.486	193.31
332.715	203.31
332.943	181.31
333.172	195.31
333.4	198.31
333.629	211.31
333.857	247.31
334.085	231.31
334.314	219.31
334.542	210.31
334.771	199.31
334.999	193.31
335.227	204.31
335.455	182.31
335.684	200.31
335.912	223.31
336.14	259.31
336.369	269.31
336.597	250.31
336.825	278.31
337.053	289.31
337.281	237.31
337.51	209.31
337.738	203.31
337.966	214.31
338.194	243.31
338.422	216.31
338.65	207.31
338.878	171.31
339.106	181.31
339.334	206.31
339.562	219.31
339.79	204.31
340.018	189.31
340.246	205.31
340.474	242.31
340.702	259.31
340.93	258.31
341.158	259.31
341.386	218.31
341.614	201.31
341.842	210.31
342.07	227.31
342.298	247.31
342.526	275.31
342.754	224.31
342.981	219.31
343.209	197.31
343.437	219.31
343.665	233.31
343.893	247.31
344.12	275.31
344.348	309.31
344.576	278.31
344.804	257.31
345.031	211.31
345.259	197.31
345.487	190.31
345.714	197.31
345.942	210.31
346.17	239.31
346.397	231.31
346.625	207.31
346.853	196.31
347.08	204.31
347.308	212.31
347.535	226.31
347.763	233.31
347.99	212.31
348.218	194.31
348.445	187.31
348.673	186.31
348.9	191.31
349.128	210.31
349.355	198.31
349.583	197.31
349.81	198.31
350.037	199.31
350.265	182.31
350.492	169.31
350.72	170.31
350.947	167.31
351.174	184.31
351.402	191.31
351.629	192.31
351.856	183.31
352.083	171.31
352.311	190.31
352.538	199.31
352.765	228.31
352.992	200.31
353.22	207.31
353.447	220.31
353.674	222.31
353.901	193.31
354.128	214.31
354.355	200.31
354.583	207.31
354.81	212.31
355.037	234.31
355.264	210.31
355.491	214.31
355.718	233.31
355.945	217.31
356.172	203.31
356.399	218.31
356.626	243.31
356.853	304.31
357.08	338.31
357.307	332.31
357.534	265.31
357.761	274.31
357.988	308.31
358.215	345.31
358.441	338.31
358.668	325.31
358.895	281.31
359.122	241.31
359.349	223.31
359.576	260.31
359.802	227.31
360.029	204.31
360.256	220.31
360.483	205.31
360.709	298.31
360.936	319.31
361.163	255.31
361.39	210.31
361.616	211.31
361.843	238.31
362.07	259.31
362.296	255.31
362.523	213.31
362.749	182.31
362.976	197.31
363.203	218.31
363.429	248.31
363.656	224.31
363.882	195.31
364.109	205.31
364.335	203.31
364.562	189.31
364.788	221.31
365.015	244.31
365.241	234.31
365.468	191.31
365.694	199.31
365.92	177.31
366.147	173.31
366.373	174.31
366.599	174.31
366.826	169.31
367.052	168.31
367.278	175.31
367.505	169.31
367.731	190.31
367.957	199.31
368.184	216.31
368.41	190.31
368.636	207.31
368.862	226.31
369.089	206.31
369.315	193.31
369.541	186.31
369.767	189.31
369.993	164.31
370.219	197.31
370.445	185.31
370.672	197.31
370.898	206.31
371.124	223.31
371.35	182.31
371.576	184.31
371.802	193.31
372.028	231.31
372.254	246.31
372.48	216.31
372.706	181.31
372.932	211.31
373.158	201.31
373.384	229.31
373.61	299.31
373.835	309.31
374.061	244.31
374.287	198.31
374.513	249.31
374.739	285.31
374.965	308.31
375.191	289.31
375.416	225.31
375.642	205.31
375.868	215.31
376.094	237.31
376.319	211.31
376.545	237.31
376.771	250.31
376.997	211.31
377.222	181.31
377.448	167.31
377.674	174.31
377.899	181.31
378.125	149.31
378.35	180.31
378.576	179.31
378.802	165.31
379.027	188.31
379.253	199.31
379.478	199.31
379.704	214.31
379.929	228.31
380.155	219.31
380.38	202.31
380.606	180.31
380.831	227.31
381.057	205.31
381.282	197.31
381.507	228.31
381.733	253.31
381.958	284.31
382.184	282.31
382.409	284.31
382.634	300.31
382.86	308.31
383.085	273.31
383.31	227.31
383.535	243.31
383.761	234.31
383.986	225.31
384.211	263.31
384.436	281.31
384.662	219.31
384.887	197.31
385.112	211.31
385.337	215.31
385.562	199.31
385.787	217.31
386.013	246.31
386.238	243.31
386.463	218.31
386.688	202.31
386.913	199.31
387.138	179.31
387.363	205.31
387.588	173.31
387.813	195.31
388.038	220.31
388.263	204.31
388.488	201.31
388.713	231.31
388.938	220.31
389.163	230.31
389.387	187.31
389.612	199.31
389.837	186.31
390.062	187.31
390.287	210.31
390.512	202.31
390.736	191.31
390.961	174.31
391.186	179.31
391.411	179.31
391.636	192.31
391.86	212.31
392.085	219.31
392.31	203.31
392.534	218.31
392.759	193.31
392.984	203.31
393.208	230.31
393.433	204.31
393.658	185.31
393.882	173.31
394.107	180.31
394.331	172.31
394.556	163.31
394.78	171.31
395.005	152.31
395.229	181.31
395.454	192.31
395.678	176.31
395.903	191.31
396.127	200.31
396.352	198.31
396.576	207.31
396.801	211.31
397.025	238.31
397.249	235.31
397.474	186.31
397.698	190.31
397.922	204.31
398.147	190.31
398.371	195.31
398.595	216.31
398.82	204.31
399.044	202.31
399.268	214.31
399.492	228.31
399.717	238.31
399.941	203.31
400.165	217.31
400.389	205.31
400.613	216.31
400.837	208.31
401.062	201.31
401.286	191.31
401.51	193.31
401.734	194.31
401.958	194.31
402.182	191.31
402.406	181.31
402.63	193.31
402.854	187.31
403.078	221.31
403.302	293.31
403.526	314.31
403.75	298.31
403.974	229.31
404.198	226.31
404.422	275.31
404.645	269.31
404.869	289.31
405.093	244.31
405.317	203.31
405.541	207.31
405.765	212.31
405.988	227.31
406.212	222.31
406.436	256.31
406.66	267.31
406.883	234.31
407.107	210.31
407.331	260.31
407.555	262.31
407.778	240.31
408.002	234.31
408.226	233.31
408.449	233.31
408.673	232.31
408.896	210.31
409.12	198.31
409.344	197.31
409.567	182.31
409.791	203.31
410.014	198.31
410.238	190.31
410.461	185.31
410.685	188.31
410.908	193.31
411.132	183.31
411.355	219.31
411.578	208.31
411.802	206.31
412.025	189.31
412.249	209.31
412.472	197.31
412.695	198.31
412.919	190.31
413.142	196.31
413.365	211.31
413.589	221.31
413.812	195.31
414.035	195.31
414.258	206.31
414.482	212.31
414.705	218.31
414.928	186.31
415.151	187.31
415.374	206.31
415.597	185.31
415.821	202.31
416.044	167.31
416.267	175.31
416.49	178.31
416.713	189.31
416.936	164.31
417.159	188.31
417.382	193.31
417.605	182.31
417.828	202.31
418.051	195.31
418.274	191.31
418.497	209.31
418.72	190.31
418.943	207.31
419.166	210.31
419.389	211.31
419.611	206.31
419.834	237.31
420.057	238.31
420.28	237.31
420.503	213.31
420.726	192.31
420.948	178.31
421.171	201.31
421.394	201.31
421.617	183.31
421.839	180.31
422.062	193.31
422.285	193.31
422.507	181.31
422.73	209.31
422.953	213.31
423.175	196.31
423.398	218.31
423.621	216.31
423.843	225.31
424.066	214.31
424.288	214.31
424.511	201.31
424.733	182.31
424.956	193.31
425.178	221.31
425.401	239.31
425.623	299.31
425.846	252.31
426.068	222.31
426.291	242.31
426.513	216.31
426.735	193.31
426.958	204.31
427.18	222.31
427.402	289.31
427.625	312.31
427.847	249.31
428.069	199.31
428.292	215.31
428.514	198.31
428.736	175.31
428.958	197.31
429.181	248.31
429.403	204.31
429.625	201.31
429.847	182.31
430.069	194.31
430.292	191.31
430.514	178.31
430.736	192.31
430.958	233.31
431.18	222.31
431.402	185.31
431.624	185.31
431.846	183.31
432.068	187.31
432.29	178.31
432.512	183.31
432.734	228.31
432.956	210.31
433.178	190.31
433.4	185.31
433.622	180.31
433.844	203.31
434.066	205.31
434.287	197.31
434.509	202.31
434.731	197.31
434.953	184.31
435.175	202.31
435.397	229.31
435.618	181.31
435.84	180.31
436.062	183.31
436.284	193.31
436.505	188.31
436.727	185.31
436.949	165.31
437.17	185.31
437.392	185.31
437.614	188.31
437.835	174.31
438.057	169.31
438.278	196.31
438.5	273.31
438.721	262.31
438.943	185.31
439.165	170.31
439.386	177.31
439.608	181.31
439.829	164.31
440.05	166.31
440.272	182.31
440.493	213.31
440.715	244.31
440.936	212.31
441.158	191.31
441.379	191.31
441.6	215.31
441.822	216.31
442.043	195.31
442.264	167.31
442.486	197.31
442.707	192.31
442.928	197.31
443.149	183.31
443.371	187.31
443.592	181.31
443.813	196.31
444.034	195.31
444.255	194.31
444.476	225.31
444.698	203.31
444.919	193.31
445.14	329.31
445.361	290.31
445.582	221.31
445.803	206.31
446.024	222.31
446.245	213.31
446.466	210.31
446.687	201.31
446.908	179.31
447.129	185.31
447.35	176.31
447.571	169.31
447.792	171.31
448.013	172.31
448.234	157.31
448.455	180.31
448.675	180.31
448.896	182.31
449.117	169.31
449.338	177.31
449.559	189.31
449.779	205.31
450	200.31
450.221	182.31
450.442	185.31
450.662	194.31
450.883	203.31
451.104	166.31
451.324	169.31
451.545	185.31
451.766	185.31
451.986	177.31
452.207	171.31
452.428	167.31
452.648	166.31
452.869	182.31
453.089	198.31
453.31	188.31
453.53	173.31
453.751	172.31
453.971	167.31
454.192	176.31
454.412	190.31
454.633	168.31
454.853	189.31
455.073	162.31
455.294	162.31
455.514	178.31
455.734	181.31
455.955	174.31
456.175	190.31
456.395	169.31
456.616	163.31
456.836	157.31
457.056	171.31
457.276	155.31
457.497	159.31
457.717	172.31
457.937	172.31
458.157	161.31
458.377	159.31
458.598	180.31
458.818	170.31
459.038	173.31
459.258	183.31
459.478	188.31
459.698	191.31
459.918	197.31
460.138	199.31
460.358	201.31
460.578	178.31
460.798	187.31
461.018	188.31
461.238	201.31
461.458	198.31
461.678	201.31
461.898	216.31
462.118	192.31
462.338	207.31
462.558	226.31
462.777	200.31
462.997	218.31
463.217	221.31
463.437	219.31
463.657	216.31
463.876	217.31
464.096	213.31
464.316	205.31
464.536	216.31
464.755	235.31
464.975	224.31
465.195	207.31
465.414	222.31
465.634	201.31
465.854	204.31
466.073	195.31
466.293	205.31
466.512	200.31
466.732	225.31
466.951	235.31
467.171	198.31
467.391	186.31
467.61	180.31
467.829	204.31
468.049	198.31
468.268	188.31
468.488	187.31
468.707	187.31
468.927	220.31
469.146	231.31
469.365	207.31
469.585	210.31
469.804	199.31
470.023	218.31
470.243	206.31
470.462	195.31
470.681	204.31
470.901	199.31
471.12	212.31
471.339	195.31
471.558	209.31
471.777	191.31
471.997	204.31
472.216	212.31
472.435	214.31
472.654	202.31
472.873	205.31
473.092	221.31
473.311	223.31
473.53	203.31
473.749	210.31
473.968	206.31
474.187	215.31
474.406	181.31
474.625	184.31
474.844	205.31
475.063	214.31
475.282	214.31
475.501	214.31
475.72	264.31
475.939	241.31
476.158	226.31
476.377	263.31
476.596	300.31
476.814	303.31
477.033	261.31
477.252	209.31
477.471	207.31
477.69	211.31
477.908	204.31
478.127	228.31
478.346	219.31
478.564	267.31
478.783	236.31
479.002	225.31
479.22	259.31
479.439	277.31
479.658	237.31
479.876	217.31
480.095	234.31
480.313	245.31
480.532	221.31
480.751	219.31
480.969	228.31
481.188	261.31
481.406	267.31
481.624	247.31
481.843	232.31
482.061	221.31
482.28	241.31
482.498	325.31
482.717	302.31
482.935	257.31
483.153	218.31
483.372	215.31
483.59	212.31
483.808	196.31
484.027	213.31
484.245	204.31
484.463	203.31
484.681	198.31
484.9	218.31
485.118	216.31
485.336	222.31
485.554	227.31
485.772	214.31
485.99	222.31
486.209	246.31
486.427	233.31
486.645	234.31
486.863	251.31
487.081	267.31
487.299	274.31
487.517	268.31
487.735	228.31
487.953	238.31
488.171	262.31
488.389	235.31
488.607	233.31
488.825	232.31
489.043	245.31
489.261	289.31
489.479	302.31
489.696	262.31
489.914	224.31
490.132	228.31
490.35	218.31
490.568	227.31
490.786	198.31
491.003	212.31
491.221	214.31
491.439	229.31
491.657	213.31
491.874	237.31
492.092	284.31
492.31	340.31
492.527	330.31
492.745	275.31
492.963	237.31
493.18	251.31
493.398	253.31
493.615	253.31
493.833	257.31
494.05	250.31
494.268	242.31
494.485	231.31
494.703	248.31
494.92	232.31
495.138	239.31
495.355	229.31
495.573	242.31
495.79	269.31
496.008	363.31
496.225	297.31
496.442	268.31
496.66	239.31
496.877	262.31
497.094	271.31
497.312	257.31
497.529	246.31
497.746	238.31
497.963	250.31
498.181	273.31
498.398	299.31
498.615	309.31
498.832	319.31
499.049	322.31
499.267	292.31
499.484	313.31
499.701	330.31
499.918	343.31
500.135	396.31
500.352	393.31
500.569	399.31
500.786	412.31
501.003	397.31
501.22	364.31
501.437	344.31
501.654	322.31
501.871	283.31
502.088	308.31
502.305	313.31
502.522	279.31
502.739	287.31
502.956	271.31
503.172	255.31
503.389	248.31
503.606	255.31
503.823	254.31
504.04	264.31
504.256	265.31
504.473	247.31
504.69	263.31
504.907	282.31
505.123	278.31
505.34	301.31
505.557	268.31
505.773	250.31
505.99	265.31
506.207	261.31
506.423	266.31
506.64	226.31
506.856	247.31
507.073	271.31
507.289	273.31
507.506	258.31
507.722	277.31
507.939	271.31
508.155	282.31
508.372	244.31
508.588	242.31
508.805	220.31
509.021	245.31
509.238	249.31
509.454	237.31
509.67	219.31
509.887	232.31
510.103	260.31
510.319	275.31
510.536	253.31
510.752	218.31
510.968	217.31
511.184	199.31
511.401	228.31
511.617	203.31
511.833	211.31
512.049	219.31
512.265	220.31
512.481	226.31
512.698	230.31
512.914	270.31
513.13	237.31
513.346	212.31
513.562	217.31
513.778	226.31
513.994	232.31
514.21	241.31
514.426	244.31
514.642	236.31
514.858	223.31
515.074	255.31
515.29	235.31
515.506	278.31
515.721	260.31
515.937	255.31
516.153	218.31
516.369	220.31
516.585	234.31
516.801	265.31
517.016	309.31
517.232	296.31
517.448	288.31
517.664	278.31
517.879	256.31
518.095	263.31
518.311	261.31
518.527	284.31
518.742	267.31
518.958	291.31
519.173	296.31
519.389	282.31
519.605	277.31
519.82	284.31
520.036	307.31
520.251	311.31
520.467	333.31
520.682	521.31
520.898	613.31
521.113	582.31
521.329	358.31
521.544	301.31
521.76	277.31
521.975	270.31
522.19	262.31
522.406	259.31
522.621	276.31
522.836	310.31
523.052	315.31
523.267	261.31
523.482	264.31
523.698	268.31
523.913	253.31
524.128	250.31
524.343	217.31
524.559	227.31
524.774	245.31
524.989	234.31
525.204	227.31
525.419	229.31
525.634	241.31
525.849	251.31
526.064	257.31
526.28	265.31
526.495	280.31
526.71	331.31
526.925	315.31
527.14	309.31
527.355	295.31
527.57	254.31
527.785	259.31
527.999	259.31
528.214	222.31
528.429	225.31
528.644	228.31
528.859	209.31
529.074	203.31
529.289	199.31
529.503	206.31
529.718	199.31
529.933	277.31
530.148	307.31
530.363	253.31
530.577	213.31
530.792	222.31
531.007	207.31
531.221	199.31
531.436	210.31
531.651	223.31
531.865	214.31
532.08	219.31
532.295	213.31
532.509	213.31
532.724	242.31
532.938	278.31
533.153	318.31
533.367	258.31
533.582	239.31
533.796	227.31
534.011	229.31
534.225	219.31
534.44	222.31
534.654	228.31
534.868	282.31
535.083	249.31
535.297	229.31
535.511	221.31
535.726	234.31
535.94	210.31
536.154	208.31
536.369	199.31
536.583	207.31
536.797	221.31
537.011	223.31
537.225	230.31
537.44	255.31
537.654	207.31
537.868	215.31
538.082	210.31
538.296	219.31
538.51	237.31
538.724	243.31
538.938	219.31
539.153	215.31
539.367	203.31
539.581	212.31
539.795	219.31
540.009	242.31
540.222	215.31
540.436	224.31
540.65	247.31
540.864	265.31
541.078	259.31
541.292	307.31
541.506	232.31
541.72	224.31
541.934	220.31
542.147	217.31
542.361	213.31
542.575	217.31
542.789	204.31
543.002	203.31
543.216	222.31
543.43	199.31
543.644	205.31
543.857	196.31
544.071	195.31
544.285	200.31
544.498	183.31
544.712	193.31
544.925	211.31
545.139	199.31
545.352	212.31
545.566	211.31
545.779	219.31
545.993	180.31
546.206	189.31
546.42	186.31
546.633	180.31
546.847	194.31
547.06	174.31
547.274	198.31
547.487	185.31
547.7	199.31
547.914	213.31
548.127	218.31
548.34	215.31
548.554	217.31
548.767	226.31
548.98	206.31
549.193	210.31
549.407	197.31
549.62	231.31
549.833	231.31
550.046	234.31
550.259	236.31
550.473	232.31
550.686	230.31
550.899	225.31
551.112	213.31
551.325	217.31
551.538	236.31
551.751	223.31
551.964	210.31
552.177	216.31
552.39	180.31
552.603	188.31
552.816	211.31
553.029	201.31
553.242	206.31
553.455	216.31
553.667	219.31
553.88	218.31
554.093	203.31
554.306	164.31
554.519	181.31
554.732	185.31
554.944	181.31
555.157	157.31
555.37	174.31
555.583	180.31
555.795	177.31
556.008	187.31
556.221	204.31
556.433	188.31
556.646	167.31
556.859	179.31
557.071	183.31
557.284	196.31
557.496	195.31
557.709	182.31
557.921	179.31
558.134	172.31
558.346	175.31
558.559	184.31
558.771	165.31
558.984	179.31
559.196	170.31
559.409	187.31
559.621	177.31
559.833	169.31
560.046	179.31
560.258	173.31
560.47	171.31
560.683	171.31
560.895	167.31
561.107	162.31
561.32	163.31
561.532	172.31
561.744	171.31
561.956	201.31
562.168	180.31
562.381	181.31
562.593	183.31
562.805	178.31
563.017	164.31
563.229	162.31
563.441	155.31
563.653	174.31
563.865	164.31
564.077	167.31
564.289	160.31
564.501	166.31
564.713	179.31
564.925	180.31
565.137	176.31
565.349	179.31
565.561	173.31
565.773	165.31
565.985	189.31
566.197	179.31
566.408	185.31
566.62	186.31
566.832	197.31
567.044	208.31
567.255	211.31
567.467	229.31
567.679	212.31
567.891	202.31
568.102	214.31
568.314	212.31
568.526	223.31
568.737	206.31
568.949	203.31
569.161	174.31
569.372	157.31
569.584	164.31
569.795	169.31
570.007	182.31
570.218	197.31
570.43	178.31
570.641	187.31
570.853	161.31
571.064	181.31
571.276	179.31
571.487	176.31
571.698	164.31
571.91	163.31
572.121	157.31
572.333	157.31
572.544	167.31
572.755	154.31
572.966	151.31
573.178	141.31
573.389	146.31
573.6	155.31
573.811	161.31
574.023	142.31
574.234	139.31
574.445	159.31
574.656	151.31
574.867	155.31
575.078	151.31
575.289	153.31
575.501	163.31
575.712	153.31
575.923	150.31
576.134	141.31
576.345	148.31
576.556	157.31
576.767	146.31
576.978	146.31
577.188	149.31
577.399	135.31
577.61	131.31
577.821	149.31
578.032	150.31
578.243	158.31
578.454	149.31
578.665	160.31
578.875	166.31
579.086	154.31
579.297	142.31
579.508	169.31
579.718	167.31
579.929	153.31
580.14	143.31
580.35	154.31
580.561	143.31
580.772	137.31
580.982	135.31
581.193	141.31
581.403	140.31
581.614	140.31
581.825	146.31
582.035	134.31
582.246	135.31
582.456	127.31
582.667	141.31
582.877	145.31
583.087	125.31
583.298	124.31
583.508	149.31
583.719	141.31
583.929	133.31
584.139	130.31
584.35	132.31
584.56	139.31
584.77	132.31
584.981	139.31
585.191	138.31
585.401	137.31
585.611	141.31
585.821	126.31
586.032	148.31
586.242	135.31
586.452	133.31
586.662	132.31
586.872	148.31
587.082	135.31
587.292	148.31
587.502	137.31
587.713	144.31
587.923	145.31
588.133	146.31
588.343	151.31
588.553	140.31
588.762	145.31
588.972	137.31
589.182	146.31
589.392	153.31
589.602	148.31
589.812	157.31
590.022	130.31
590.232	130.31
590.441	130.31
590.651	130.31
590.861	131.31
591.071	132.31
591.281	141.31
591.49	137.31
591.7	131.31
591.91	129.31
592.119	141.31
592.329	134.31
592.539	145.31
592.748	145.31
592.958	147.31
593.167	140.31
593.377	137.31
593.587	154.31
593.796	138.31
594.006	139.31
594.215	140.31
594.424	145.31
594.634	139.31
594.843	153.31
595.053	146.31
595.262	129.31
595.472	127.31
595.681	113.31
595.89	138.31
596.1	127.31
596.309	131.31
596.518	137.31
596.727	138.31
596.937	138.31
597.146	120.31
597.355	131.31
597.564	138.31
597.774	119.31
597.983	137.31
598.192	123.31
598.401	125.31
598.61	130.31
598.819	133.31
599.028	126.31
599.237	120.31
599.446	129.31
599.655	130.31
599.864	122.31
600.073	116.31
600.282	127.31
600.491	123.31
600.7	125.31
600.909	127.31
601.118	125.31
601.327	123.31
601.536	138.31
601.745	131.31
601.953	138.31
602.162	117.31
602.371	135.31
602.58	135.31
602.789	117.31
602.997	124.31
603.206	122.31
603.415	129.31
603.623	121.31
603.832	141.31
604.041	110.31
604.249	101.31
604.458	112.31
604.666	117.31
604.875	118.31
605.084	116.31
605.292	118.31
605.501	124.31
605.709	129.31
605.918	129.31
606.126	124.31
606.334	135.31
606.543	114.31
606.751	114.31
606.96	109.31
607.168	125.31
607.376	113.31
607.585	107.31
607.793	115.31
608.001	129.31
608.21	109.31
608.418	108.31
608.626	124.31
608.834	115.31
609.043	111.31
609.251	131.31
609.459	135.31
609.667	129.31
609.875	122.31
610.083	126.31
610.291	116.31
610.499	116.31
610.707	132.31
610.916	131.31
611.124	129.31
611.332	118.31
611.54	127.31
611.748	110.31
611.955	103.31
612.163	106.31
612.371	120.31
612.579	115.31
612.787	124.31
612.995	115.31
613.203	117.31
613.411	119.31
613.618	98.31
613.826	102.31
614.034	110.31
614.242	122.31
614.449	117.31
614.657	117.31
614.865	106.31
615.072	111.31
615.28	113.31
615.488	124.31
615.695	118.31
615.903	115.31
616.111	122.31
616.318	126.31
616.526	129.31
616.733	130.31
616.941	114.31
617.148	117.31
617.356	112.31
617.563	113.31
617.771	110.31
617.978	105.31
618.185	117.31
618.393	123.31
618.6	115.31
618.807	118.31
619.015	105.31
619.222	109.31
619.429	121.31
619.637	103.31
619.844	121.31
620.051	108.31
620.258	109.31
620.466	118.31
620.673	107.31
620.88	118.31
621.087	99.31
621.294	105.31
621.501	107.31
621.708	114.31
621.915	108.31
622.122	102.31
622.329	104.31
622.536	121.31
622.743	116.31
622.95	109.31
623.157	109.31
623.364	114.31
623.571	101.31
623.778	129.31
623.985	112.31
624.192	111.31
624.399	117.31
624.606	117.31
624.812	118.31
625.019	118.31
625.226	106.31
625.433	110.31
625.639	115.31
625.846	101.31
626.053	117.31
626.259	109.31
626.466	115.31
626.673	129.31
626.879	102.31
627.086	115.31
627.293	108.31
627.499	119.31
627.706	115.31
627.912	115.31
628.119	115.31
628.325	97.31
628.532	82.31
628.738	118.31
628.945	99.31
629.151	107.31
629.357	119.31
629.564	106.31
629.77	108.31
629.976	100.31
630.183	106.31
630.389	109.31
630.595	100.31
630.802	113.31
631.008	99.31
631.214	107.31
631.42	102.31
631.627	117.31
631.833	109.31
632.039	123.31
632.245	105.31
632.451	110.31
632.657	101.31
632.863	106.31
633.069	111.31
633.275	95.31
633.481	87.31
633.688	103.31
633.893	115.31
634.099	95.31
634.305	102.31
634.511	102.31
634.717	100.31
634.923	101.31
635.129	100.31
635.335	110.31
635.541	97.31
635.747	106.31
635.952	95.31
636.158	104.31
636.364	115.31
636.57	94.31
636.775	103.31
636.981	101.31
637.187	116.31
637.392	98.31
637.598	97.31
637.804	86.31
638.009	112.31
638.215	106.31
638.421	101.31
638.626	94.31
638.832	107.31
639.037	108.31
639.243	102.31
639.448	100.31
639.654	109.31
639.859	100.31
640.065	101.31
640.27	117.31
640.475	117.31
640.681	110.31
640.886	103.31
641.091	101.31
641.297	99.31
641.502	93.31
641.707	107.31
641.913	121.31
642.118	101.31
642.323	107.31
642.528	114.31
642.733	104.31
642.939	94.31
643.144	95.31
643.349	106.31
643.554	100.31
643.759	113.31
643.964	93.31
644.169	114.31
644.374	99.31
644.579	102.31
644.784	101.31
644.989	109.31
645.194	98.31
645.399	122.31
645.604	99.31
645.809	106.31
646.014	104.31
646.219	103.31
646.423	96.31
646.628	100.31
646.833	102.31
647.038	113.31
647.243	107.31
647.447	99.31
647.652	88.31
647.857	94.31
648.062	118.31
648.266	101.31
648.471	81.31
648.676	105.31
648.88	95.31
649.085	101.31
649.289	95.31
649.494	90.31
649.698	88.31
649.903	109.31
650.107	90.31
650.312	114.31
650.516	87.31
650.721	101.31
650.925	94.31
651.13	99.31
651.334	97.31
651.539	92.31
651.743	108.31
651.947	98.31
652.152	88.31
652.356	101.31
652.56	95.31
652.764	95.31
652.969	104.31
653.173	91.31
653.377	98.31
653.581	96.31
653.785	96.31
653.99	96.31
654.194	105.31
654.398	90.31
654.602	97.31
654.806	91.31
655.01	91.31
655.214	87.31
655.418	77.31
655.622	98.31
655.826	77.31
656.03	95.31
656.234	88.31
656.438	87.31
656.642	83.31
656.846	76.31
657.049	101.31
657.253	115.31
657.457	85.31
657.661	90.31
657.865	89.31
658.068	82.31
658.272	85.31
658.476	74.31
658.68	99.31
658.883	80.31
659.087	90.31
659.291	76.31
659.494	78.31
659.698	91.31
659.901	88.31
660.105	88.31
660.309	82.31
660.512	93.31
660.716	84.31
660.919	87.31
661.123	78.31
661.326	87.31
661.53	92.31
661.733	96.31
661.936	101.31
662.14	93.31
662.343	86.31
662.546	85.31
662.75	99.31
662.953	85.31
663.156	89.31
663.36	77.31
663.563	92.31
663.766	76.31
663.969	85.31
664.173	91.31
664.376	81.31
664.579	83.31
664.782	78.31
664.985	89.31
665.188	91.31
665.391	80.31
665.594	75.31
665.797	84.31
666	90.31
666.203	87.31
666.406	80.31
666.609	85.31
666.812	75.31
667.015	73.31
667.218	90.31
667.421	84.31
667.624	87.31
667.827	89.31
668.03	86.31
668.232	69.31
668.435	74.31
668.638	79.31
668.841	91.31
669.043	71.31
669.246	70.31
669.449	85.31
669.651	85.31
669.854	77.31
670.057	90.31
670.259	89.31
670.462	82.31
670.665	85.31
670.867	82.31
671.07	86.31
671.272	74.31
671.475	82.31
671.677	87.31
671.88	75.31
672.082	89.31
672.284	85.31
672.487	70.31
672.689	71.31
672.892	83.31
