Data from NickelSpatula_HRD10591_16-35-44-125.txt Node
Date: Mon Jul 22 16:35:44 EDT 2019
User: cochatt
Spectrometer: HR+D1059
Trigger mode: 1
Integration Time (sec): 1.000000E-1
Scans to average: 1
Electric dark correction enabled: true
Nonlinearity correction enabled: false
Boxcar width: 0
XAxis mode: Wavelengths
Number of Pixels in Spectrum: 2048
>>>>>Begin Spectral Data<<<<<
223.165	-15.69
223.4	-15.69
223.635	-15.69
223.869	-0.69
224.104	-25.69
224.338	4.31
224.573	-9.69
224.808	-12.69
225.042	-16.69
225.277	-6.69
225.511	-14.69
225.746	6.31
225.98	10.31
226.215	14.31
226.449	10.31
226.683	19.31
226.918	14.31
227.152	23.31
227.387	38.31
227.621	22.31
227.856	53.31
228.09	49.31
228.324	50.31
228.559	51.31
228.793	54.31
229.027	69.31
229.262	69.31
229.496	72.31
229.73	79.31
229.964	68.31
230.199	86.31
230.433	97.31
230.667	72.31
230.901	87.31
231.136	78.31
231.37	75.31
231.604	88.31
231.838	98.31
232.072	103.31
232.306	106.31
232.541	100.31
232.775	81.31
233.009	104.31
233.243	106.31
233.477	110.31
233.711	102.31
233.945	92.31
234.179	97.31
234.413	114.31
234.647	109.31
234.881	118.31
235.115	119.31
235.349	109.31
235.583	111.31
235.817	106.31
236.051	101.31
236.285	106.31
236.519	125.31
236.753	121.31
236.987	129.31
237.221	112.31
237.455	111.31
237.689	122.31
237.922	114.31
238.156	128.31
238.39	127.31
238.624	139.31
238.858	146.31
239.091	126.31
239.325	120.31
239.559	116.31
239.793	125.31
240.027	140.31
240.26	139.31
240.494	128.31
240.728	115.31
240.961	133.31
241.195	136.31
241.429	142.31
241.662	144.31
241.896	125.31
242.13	118.31
242.363	125.31
242.597	119.31
242.83	133.31
243.064	133.31
243.298	148.31
243.531	136.31
243.765	136.31
243.998	148.31
244.232	134.31
244.465	127.31
244.699	124.31
244.932	137.31
245.166	136.31
245.399	142.31
245.633	142.31
245.866	120.31
246.099	142.31
246.333	158.31
246.566	165.31
246.8	160.31
247.033	164.31
247.266	150.31
247.5	144.31
247.733	142.31
247.966	149.31
248.2	155.31
248.433	163.31
248.666	147.31
248.899	186.31
249.133	167.31
249.366	184.31
249.599	183.31
249.832	193.31
250.066	169.31
250.299	158.31
250.532	166.31
250.765	157.31
250.998	146.31
251.231	154.31
251.465	144.31
251.698	175.31
251.931	152.31
252.164	161.31
252.397	185.31
252.63	190.31
252.863	204.31
253.096	220.31
253.329	210.31
253.562	222.31
253.795	221.31
254.028	229.31
254.261	240.31
254.494	215.31
254.727	232.31
254.96	196.31
255.193	199.31
255.426	207.31
255.659	157.31
255.892	156.31
256.124	160.31
256.357	181.31
256.59	193.31
256.823	199.31
257.056	175.31
257.289	169.31
257.521	192.31
257.754	207.31
257.987	215.31
258.22	203.31
258.452	181.31
258.685	193.31
258.918	201.31
259.151	217.31
259.383	226.31
259.616	261.31
259.849	257.31
260.081	274.31
260.314	271.31
260.547	231.31
260.779	238.31
261.012	282.31
261.244	265.31
261.477	254.31
261.71	255.31
261.942	219.31
262.175	213.31
262.407	207.31
262.64	231.31
262.872	256.31
263.105	262.31
263.337	275.31
263.57	246.31
263.802	190.31
264.035	160.31
264.267	183.31
264.499	148.31
264.732	138.31
264.964	150.31
265.197	146.31
265.429	174.31
265.661	168.31
265.894	167.31
266.126	187.31
266.358	188.31
266.591	212.31
266.823	258.31
267.055	221.31
267.287	226.31
267.52	207.31
267.752	223.31
267.984	247.31
268.216	221.31
268.448	196.31
268.681	196.31
268.913	207.31
269.145	220.31
269.377	248.31
269.609	229.31
269.841	199.31
270.073	206.31
270.306	234.31
270.538	239.31
270.77	223.31
271.002	242.31
271.234	238.31
271.466	252.31
271.698	233.31
271.93	229.31
272.162	243.31
272.394	240.31
272.626	236.31
272.858	235.31
273.09	244.31
273.322	220.31
273.553	203.31
273.785	250.31
274.017	296.31
274.249	348.31
274.481	368.31
274.713	404.31
274.945	420.31
275.176	438.31
275.408	392.31
275.64	372.31
275.872	381.31
276.104	352.31
276.335	292.31
276.567	301.31
276.799	302.31
277.031	316.31
277.262	261.31
277.494	214.31
277.726	204.31
277.957	224.31
278.189	251.31
278.421	232.31
278.652	222.31
278.884	215.31
279.115	190.31
279.347	192.31
279.579	202.31
279.81	214.31
280.042	192.31
280.273	211.31
280.505	198.31
280.736	186.31
280.968	180.31
281.199	213.31
281.431	213.31
281.662	211.31
281.894	202.31
282.125	206.31
282.356	229.31
282.588	223.31
282.819	205.31
283.051	212.31
283.282	255.31
283.513	276.31
283.745	310.31
283.976	321.31
284.207	306.31
284.439	315.31
284.67	310.31
284.901	275.31
285.132	293.31
285.364	318.31
285.595	284.31
285.826	282.31
286.057	300.31
286.288	294.31
286.52	288.31
286.751	301.31
286.982	286.31
287.213	267.31
287.444	266.31
287.675	296.31
287.906	293.31
288.138	236.31
288.369	224.31
288.6	219.31
288.831	210.31
289.062	262.31
289.293	279.31
289.524	256.31
289.755	255.31
289.986	247.31
290.217	240.31
290.448	174.31
290.679	168.31
290.91	164.31
291.141	162.31
291.371	161.31
291.602	180.31
291.833	174.31
292.064	181.31
292.295	202.31
292.526	223.31
292.757	212.31
292.987	257.31
293.218	242.31
293.449	253.31
293.68	260.31
293.91	257.31
294.141	270.31
294.372	258.31
294.603	245.31
294.833	233.31
295.064	283.31
295.295	270.31
295.525	213.31
295.756	191.31
295.987	167.31
296.217	178.31
296.448	163.31
296.679	168.31
296.909	188.31
297.14	200.31
297.37	218.31
297.601	204.31
297.831	200.31
298.062	217.31
298.292	205.31
298.523	239.31
298.753	260.31
298.984	237.31
299.214	191.31
299.445	172.31
299.675	177.31
299.905	163.31
300.136	164.31
300.366	198.31
300.597	187.31
300.827	165.31
301.057	160.31
301.288	147.31
301.518	201.31
301.748	201.31
301.979	189.31
302.209	206.31
302.439	207.31
302.669	198.31
302.9	198.31
303.13	179.31
303.36	180.31
303.59	178.31
303.82	185.31
304.051	201.31
304.281	213.31
304.511	220.31
304.741	175.31
304.971	180.31
305.201	205.31
305.431	183.31
305.661	172.31
305.891	160.31
306.121	176.31
306.352	159.31
306.582	156.31
306.812	153.31
307.042	138.31
307.272	151.31
307.502	162.31
307.731	150.31
307.961	146.31
308.191	156.31
308.421	141.31
308.651	125.31
308.881	143.31
309.111	133.31
309.341	130.31
309.571	135.31
309.8	168.31
310.03	150.31
310.26	176.31
310.49	146.31
310.72	154.31
310.949	137.31
311.179	151.31
311.409	151.31
311.639	184.31
311.868	206.31
312.098	255.31
312.328	286.31
312.557	268.31
312.787	257.31
313.017	248.31
313.246	279.31
313.476	296.31
313.706	236.31
313.935	199.31
314.165	180.31
314.394	160.31
314.624	163.31
314.853	177.31
315.083	177.31
315.312	169.31
315.542	167.31
315.771	153.31
316.001	141.31
316.23	153.31
316.46	133.31
316.689	159.31
316.919	144.31
317.148	146.31
317.377	143.31
317.607	144.31
317.836	168.31
318.065	169.31
318.295	181.31
318.524	184.31
318.753	149.31
318.983	156.31
319.212	145.31
319.441	172.31
319.67	161.31
319.9	192.31
320.129	179.31
320.358	157.31
320.587	151.31
320.816	162.31
321.046	174.31
321.275	185.31
321.504	213.31
321.733	153.31
321.962	183.31
322.191	170.31
322.42	168.31
322.649	157.31
322.878	189.31
323.108	182.31
323.337	176.31
323.566	162.31
323.795	153.31
324.024	150.31
324.253	161.31
324.482	150.31
324.71	148.31
324.939	180.31
325.168	185.31
325.397	142.31
325.626	131.31
325.855	142.31
326.084	166.31
326.313	148.31
326.542	153.31
326.77	147.31
326.999	146.31
327.228	152.31
327.457	154.31
327.686	144.31
327.914	145.31
328.143	153.31
328.372	142.31
328.6	128.31
328.829	132.31
329.058	136.31
329.287	144.31
329.515	159.31
329.744	148.31
329.972	136.31
330.201	130.31
330.43	128.31
330.658	146.31
330.887	173.31
331.115	156.31
331.344	160.31
331.572	161.31
331.801	137.31
332.03	136.31
332.258	130.31
332.486	149.31
332.715	167.31
332.943	144.31
333.172	158.31
333.4	144.31
333.629	159.31
333.857	176.31
334.085	167.31
334.314	173.31
334.542	160.31
334.771	144.31
334.999	160.31
335.227	168.31
335.455	158.31
335.684	166.31
335.912	176.31
336.14	199.31
336.369	190.31
336.597	183.31
336.825	204.31
337.053	221.31
337.281	209.31
337.51	167.31
337.738	161.31
337.966	168.31
338.194	176.31
338.422	173.31
338.65	152.31
338.878	165.31
339.106	152.31
339.334	167.31
339.562	164.31
339.79	165.31
340.018	159.31
340.246	166.31
340.474	178.31
340.702	196.31
340.93	188.31
341.158	169.31
341.386	149.31
341.614	159.31
341.842	174.31
342.07	182.31
342.298	197.31
342.526	198.31
342.754	170.31
342.981	156.31
343.209	169.31
343.437	179.31
343.665	172.31
343.893	188.31
344.12	207.31
344.348	223.31
344.576	206.31
344.804	190.31
345.031	165.31
345.259	156.31
345.487	146.31
345.714	161.31
345.942	167.31
346.17	190.31
346.397	171.31
346.625	157.31
346.853	147.31
347.08	163.31
347.308	145.31
347.535	185.31
347.763	170.31
347.99	151.31
348.218	151.31
348.445	157.31
348.673	167.31
348.9	165.31
349.128	154.31
349.355	155.31
349.583	153.31
349.81	159.31
350.037	164.31
350.265	150.31
350.492	136.31
350.72	133.31
350.947	155.31
351.174	146.31
351.402	154.31
351.629	151.31
351.856	153.31
352.083	136.31
352.311	152.31
352.538	161.31
352.765	188.31
352.992	166.31
353.22	172.31
353.447	167.31
353.674	148.31
353.901	144.31
354.128	144.31
354.355	158.31
354.583	152.31
354.81	164.31
355.037	154.31
355.264	165.31
355.491	168.31
355.718	182.31
355.945	172.31
356.172	177.31
356.399	178.31
356.626	188.31
356.853	231.31
357.08	239.31
357.307	234.31
357.534	202.31
357.761	221.31
357.988	239.31
358.215	274.31
358.441	242.31
358.668	222.31
358.895	217.31
359.122	164.31
359.349	188.31
359.576	195.31
359.802	175.31
360.029	170.31
360.256	155.31
360.483	153.31
360.709	221.31
360.936	226.31
361.163	205.31
361.39	182.31
361.616	164.31
361.843	190.31
362.07	196.31
362.296	192.31
362.523	165.31
362.749	151.31
362.976	146.31
363.203	161.31
363.429	194.31
363.656	160.31
363.882	147.31
364.109	169.31
364.335	159.31
364.562	160.31
364.788	143.31
365.015	200.31
365.241	178.31
365.468	161.31
365.694	144.31
365.92	150.31
366.147	139.31
366.373	137.31
366.599	137.31
366.826	134.31
367.052	151.31
367.278	146.31
367.505	134.31
367.731	142.31
367.957	164.31
368.184	174.31
368.41	157.31
368.636	158.31
368.862	159.31
369.089	157.31
369.315	151.31
369.541	160.31
369.767	149.31
369.993	137.31
370.219	142.31
370.445	152.31
370.672	161.31
370.898	175.31
371.124	165.31
371.35	147.31
371.576	148.31
371.802	166.31
372.028	163.31
372.254	184.31
372.48	171.31
372.706	165.31
372.932	172.31
373.158	164.31
373.384	191.31
373.61	235.31
373.835	240.31
374.061	208.31
374.287	172.31
374.513	195.31
374.739	209.31
374.965	210.31
375.191	225.31
375.416	182.31
375.642	168.31
375.868	180.31
376.094	213.31
376.319	172.31
376.545	184.31
376.771	196.31
376.997	185.31
377.222	140.31
377.448	138.31
377.674	136.31
377.899	144.31
378.125	143.31
378.35	129.31
378.576	128.31
378.802	151.31
379.027	145.31
379.253	144.31
379.478	148.31
379.704	175.31
379.929	169.31
380.155	160.31
380.38	162.31
380.606	151.31
380.831	172.31
381.057	176.31
381.282	142.31
381.507	184.31
381.733	217.31
381.958	209.31
382.184	222.31
382.409	214.31
382.634	231.31
382.86	238.31
383.085	202.31
383.31	170.31
383.535	179.31
383.761	200.31
383.986	178.31
384.211	207.31
384.436	200.31
384.662	169.31
384.887	160.31
385.112	177.31
385.337	163.31
385.562	170.31
385.787	161.31
386.013	199.31
386.238	186.31
386.463	168.31
386.688	146.31
386.913	159.31
387.138	154.31
387.363	155.31
387.588	156.31
387.813	165.31
388.038	201.31
388.263	166.31
388.488	161.31
388.713	173.31
388.938	193.31
389.163	174.31
389.387	144.31
389.612	150.31
389.837	168.31
390.062	174.31
390.287	168.31
390.512	172.31
390.736	156.31
390.961	143.31
391.186	157.31
391.411	139.31
391.636	151.31
391.86	157.31
392.085	181.31
392.31	173.31
392.534	155.31
392.759	165.31
392.984	175.31
393.208	173.31
393.433	152.31
393.658	134.31
393.882	136.31
394.107	150.31
394.331	133.31
394.556	142.31
394.78	133.31
395.005	132.31
395.229	131.31
395.454	156.31
395.678	150.31
395.903	151.31
396.127	152.31
396.352	149.31
396.576	161.31
396.801	160.31
397.025	176.31
397.249	189.31
397.474	156.31
397.698	151.31
397.922	164.31
398.147	162.31
398.371	164.31
398.595	161.31
398.82	151.31
399.044	166.31
399.268	167.31
399.492	159.31
399.717	161.31
399.941	173.31
400.165	177.31
400.389	175.31
400.613	182.31
400.837	177.31
401.062	155.31
401.286	156.31
401.51	149.31
401.734	156.31
401.958	169.31
402.182	162.31
402.406	137.31
402.63	160.31
402.854	161.31
403.078	179.31
403.302	214.31
403.526	231.31
403.75	201.31
403.974	179.31
404.198	173.31
404.422	193.31
404.645	191.31
404.869	237.31
405.093	198.31
405.317	154.31
405.541	161.31
405.765	170.31
405.988	177.31
406.212	167.31
406.436	187.31
406.66	199.31
406.883	166.31
407.107	170.31
407.331	198.31
407.555	204.31
407.778	179.31
408.002	166.31
408.226	155.31
408.449	168.31
408.673	173.31
408.896	150.31
409.12	156.31
409.344	142.31
409.567	163.31
409.791	146.31
410.014	141.31
410.238	141.31
410.461	149.31
410.685	168.31
410.908	159.31
411.132	170.31
411.355	157.31
411.578	148.31
411.802	148.31
412.025	159.31
412.249	152.31
412.472	145.31
412.695	169.31
412.919	156.31
413.142	152.31
413.365	173.31
413.589	160.31
413.812	149.31
414.035	152.31
414.258	160.31
414.482	169.31
414.705	156.31
414.928	147.31
415.151	150.31
415.374	141.31
415.597	144.31
415.821	165.31
416.044	155.31
416.267	159.31
416.49	143.31
416.713	137.31
416.936	146.31
417.159	161.31
417.382	154.31
417.605	150.31
417.828	161.31
418.051	154.31
418.274	163.31
418.497	154.31
418.72	157.31
418.943	175.31
419.166	179.31
419.389	169.31
419.611	163.31
419.834	165.31
420.057	173.31
420.28	183.31
420.503	169.31
420.726	164.31
420.948	143.31
421.171	137.31
421.394	149.31
421.617	152.31
421.839	145.31
422.062	159.31
422.285	153.31
422.507	152.31
422.73	148.31
422.953	154.31
423.175	172.31
423.398	164.31
423.621	180.31
423.843	183.31
424.066	152.31
424.288	148.31
424.511	157.31
424.733	170.31
424.956	182.31
425.178	198.31
425.401	199.31
425.623	210.31
425.846	189.31
426.068	170.31
426.291	181.31
426.513	171.31
426.735	178.31
426.958	194.31
427.18	182.31
427.402	243.31
427.625	226.31
427.847	201.31
428.069	143.31
428.292	154.31
428.514	166.31
428.736	160.31
428.958	170.31
429.181	185.31
429.403	184.31
429.625	150.31
429.847	144.31
430.069	167.31
430.292	163.31
430.514	161.31
430.736	170.31
430.958	188.31
431.18	176.31
431.402	139.31
431.624	142.31
431.846	154.31
432.068	140.31
432.29	146.31
432.512	167.31
432.734	193.31
432.956	181.31
433.178	150.31
433.4	136.31
433.622	151.31
433.844	153.31
434.066	168.31
434.287	160.31
434.509	152.31
434.731	174.31
434.953	166.31
435.175	156.31
435.397	187.31
435.618	169.31
435.84	146.31
436.062	149.31
436.284	145.31
436.505	141.31
436.727	138.31
436.949	130.31
437.17	154.31
437.392	141.31
437.614	145.31
437.835	145.31
438.057	138.31
438.278	181.31
438.5	201.31
438.721	201.31
438.943	156.31
439.165	148.31
439.386	127.31
439.608	141.31
439.829	144.31
440.05	156.31
440.272	161.31
440.493	169.31
440.715	190.31
440.936	180.31
441.158	143.31
441.379	150.31
441.6	156.31
441.822	172.31
442.043	156.31
442.264	151.31
442.486	158.31
442.707	154.31
442.928	160.31
443.149	138.31
443.371	152.31
443.592	148.31
443.813	141.31
444.034	151.31
444.255	161.31
444.476	159.31
444.698	160.31
444.919	169.31
445.14	306.31
445.361	231.31
445.582	167.31
445.803	163.31
446.024	182.31
446.245	183.31
446.466	162.31
446.687	164.31
446.908	165.31
447.129	157.31
447.35	138.31
447.571	143.31
447.792	142.31
448.013	129.31
448.234	134.31
448.455	139.31
448.675	146.31
448.896	144.31
449.117	152.31
449.338	141.31
449.559	145.31
449.779	170.31
450	161.31
450.221	158.31
450.442	153.31
450.662	169.31
450.883	156.31
451.104	149.31
451.324	141.31
451.545	149.31
451.766	150.31
451.986	156.31
452.207	142.31
452.428	149.31
452.648	153.31
452.869	154.31
453.089	165.31
453.31	152.31
453.53	135.31
453.751	135.31
453.971	137.31
454.192	155.31
454.412	153.31
454.633	141.31
454.853	135.31
455.073	144.31
455.294	135.31
455.514	144.31
455.734	137.31
455.955	158.31
456.175	155.31
456.395	147.31
456.616	145.31
456.836	136.31
457.056	121.31
457.276	136.31
457.497	123.31
457.717	134.31
457.937	140.31
458.157	134.31
458.377	155.31
458.598	139.31
458.818	139.31
459.038	141.31
459.258	144.31
459.478	146.31
459.698	181.31
459.918	158.31
460.138	156.31
460.358	159.31
460.578	150.31
460.798	150.31
461.018	161.31
461.238	160.31
461.458	150.31
461.678	168.31
461.898	180.31
462.118	174.31
462.338	172.31
462.558	166.31
462.777	176.31
462.997	178.31
463.217	178.31
463.437	169.31
463.657	173.31
463.876	168.31
464.096	160.31
464.316	168.31
464.536	161.31
464.755	170.31
464.975	169.31
465.195	156.31
465.414	183.31
465.634	180.31
465.854	179.31
466.073	158.31
466.293	150.31
466.512	171.31
466.732	185.31
466.951	189.31
467.171	165.31
467.391	157.31
467.61	152.31
467.829	150.31
468.049	173.31
468.268	138.31
468.488	161.31
468.707	169.31
468.927	178.31
469.146	176.31
469.365	181.31
469.585	163.31
469.804	177.31
470.023	197.31
470.243	159.31
470.462	156.31
470.681	159.31
470.901	163.31
471.12	172.31
471.339	176.31
471.558	164.31
471.777	169.31
471.997	173.31
472.216	194.31
472.435	183.31
472.654	172.31
472.873	167.31
473.092	172.31
473.311	166.31
473.53	165.31
473.749	158.31
473.968	174.31
474.187	172.31
474.406	164.31
474.625	170.31
474.844	170.31
475.063	165.31
475.282	159.31
475.501	188.31
475.72	201.31
475.939	193.31
476.158	189.31
476.377	206.31
476.596	239.31
476.814	264.31
477.033	228.31
477.252	185.31
477.471	175.31
477.69	170.31
477.908	179.31
478.127	186.31
478.346	191.31
478.564	204.31
478.783	194.31
479.002	180.31
479.22	197.31
479.439	212.31
479.658	190.31
479.876	191.31
480.095	194.31
480.313	193.31
480.532	178.31
480.751	176.31
480.969	189.31
481.188	209.31
481.406	203.31
481.624	210.31
481.843	192.31
482.061	167.31
482.28	204.31
482.498	232.31
482.717	246.31
482.935	191.31
483.153	200.31
483.372	164.31
483.59	176.31
483.808	169.31
484.027	178.31
484.245	178.31
484.463	180.31
484.681	167.31
484.9	204.31
485.118	202.31
485.336	197.31
485.554	174.31
485.772	172.31
485.99	186.31
486.209	191.31
486.427	190.31
486.645	183.31
486.863	182.31
487.081	196.31
487.299	212.31
487.517	208.31
487.735	193.31
487.953	192.31
488.171	190.31
488.389	190.31
488.607	192.31
488.825	167.31
489.043	193.31
489.261	241.31
489.479	242.31
489.696	214.31
489.914	191.31
490.132	166.31
490.35	181.31
490.568	161.31
490.786	169.31
491.003	169.31
491.221	192.31
491.439	180.31
491.657	185.31
491.874	192.31
492.092	231.31
492.31	273.31
492.527	262.31
492.745	219.31
492.963	207.31
493.18	214.31
493.398	200.31
493.615	203.31
493.833	196.31
494.05	195.31
494.268	201.31
494.485	188.31
494.703	196.31
494.92	188.31
495.138	201.31
495.355	187.31
495.573	191.31
495.79	226.31
496.008	286.31
496.225	225.31
496.442	194.31
496.66	197.31
496.877	231.31
497.094	223.31
497.312	193.31
497.529	201.31
497.746	203.31
497.963	200.31
498.181	215.31
498.398	248.31
498.615	247.31
498.832	257.31
499.049	262.31
499.267	222.31
499.484	245.31
499.701	241.31
499.918	250.31
500.135	285.31
500.352	279.31
500.569	291.31
500.786	316.31
501.003	275.31
501.22	295.31
501.437	251.31
501.654	245.31
501.871	262.31
502.088	254.31
502.305	238.31
502.522	221.31
502.739	241.31
502.956	207.31
503.172	214.31
503.389	216.31
503.606	193.31
503.823	194.31
504.04	215.31
504.256	198.31
504.473	202.31
504.69	222.31
504.907	226.31
505.123	208.31
505.34	227.31
505.557	223.31
505.773	204.31
505.99	203.31
506.207	215.31
506.423	208.31
506.64	179.31
506.856	185.31
507.073	225.31
507.289	226.31
507.506	223.31
507.722	232.31
507.939	213.31
508.155	219.31
508.372	214.31
508.588	198.31
508.805	200.31
509.021	199.31
509.238	194.31
509.454	179.31
509.67	192.31
509.887	198.31
510.103	205.31
510.319	216.31
510.536	187.31
510.752	192.31
510.968	181.31
511.184	176.31
511.401	176.31
511.617	177.31
511.833	182.31
512.049	187.31
512.265	170.31
512.481	182.31
512.698	212.31
512.914	214.31
513.13	194.31
513.346	190.31
513.562	191.31
513.778	187.31
513.994	193.31
514.21	206.31
514.426	198.31
514.642	193.31
514.858	172.31
515.074	213.31
515.29	220.31
515.506	216.31
515.721	218.31
515.937	222.31
516.153	184.31
516.369	199.31
516.585	198.31
516.801	223.31
517.016	282.31
517.232	245.31
517.448	234.31
517.664	221.31
517.879	209.31
518.095	200.31
518.311	223.31
518.527	213.31
518.742	228.31
518.958	225.31
519.173	225.31
519.389	203.31
519.605	207.31
519.82	233.31
520.036	275.31
520.251	260.31
520.467	266.31
520.682	380.31
520.898	461.31
521.113	432.31
521.329	263.31
521.544	239.31
521.76	231.31
521.975	226.31
522.19	196.31
522.406	232.31
522.621	221.31
522.836	252.31
523.052	251.31
523.267	205.31
523.482	214.31
523.698	202.31
523.913	227.31
524.128	213.31
524.343	209.31
524.559	197.31
524.774	192.31
524.989	201.31
525.204	208.31
525.419	211.31
525.634	215.31
525.849	212.31
526.064	202.31
526.28	209.31
526.495	221.31
526.71	251.31
526.925	214.31
527.14	232.31
527.355	220.31
527.57	211.31
527.785	224.31
527.999	199.31
528.214	181.31
528.429	198.31
528.644	185.31
528.859	176.31
529.074	174.31
529.289	172.31
529.503	162.31
529.718	167.31
529.933	205.31
530.148	229.31
530.363	196.31
530.577	178.31
530.792	170.31
531.007	182.31
531.221	153.31
531.436	174.31
531.651	180.31
531.865	164.31
532.08	168.31
532.295	175.31
532.509	164.31
532.724	202.31
532.938	207.31
533.153	265.31
533.367	210.31
533.582	199.31
533.796	184.31
534.011	185.31
534.225	168.31
534.44	174.31
534.654	197.31
534.868	217.31
535.083	185.31
535.297	165.31
535.511	172.31
535.726	195.31
535.94	197.31
536.154	186.31
536.369	174.31
536.583	183.31
536.797	172.31
537.011	179.31
537.225	208.31
537.44	194.31
537.654	165.31
537.868	177.31
538.082	190.31
538.296	185.31
538.51	178.31
538.724	169.31
538.938	188.31
539.153	172.31
539.367	163.31
539.581	167.31
539.795	183.31
540.009	201.31
540.222	173.31
540.436	201.31
540.65	215.31
540.864	200.31
541.078	190.31
541.292	233.31
541.506	188.31
541.72	201.31
541.934	167.31
542.147	175.31
542.361	169.31
542.575	170.31
542.789	159.31
543.002	174.31
543.216	197.31
543.43	169.31
543.644	166.31
543.857	162.31
544.071	159.31
544.285	172.31
544.498	159.31
544.712	168.31
544.925	190.31
545.139	176.31
545.352	164.31
545.566	173.31
545.779	179.31
545.993	162.31
546.206	158.31
546.42	163.31
546.633	165.31
546.847	184.31
547.06	150.31
547.274	165.31
547.487	161.31
547.7	170.31
547.914	165.31
548.127	198.31
548.34	189.31
548.554	188.31
548.767	172.31
548.98	202.31
549.193	172.31
549.407	174.31
549.62	179.31
549.833	181.31
550.046	205.31
550.259	214.31
550.473	189.31
550.686	188.31
550.899	174.31
551.112	176.31
551.325	190.31
551.538	182.31
551.751	178.31
551.964	173.31
552.177	177.31
552.39	181.31
552.603	176.31
552.816	185.31
553.029	162.31
553.242	166.31
553.455	170.31
553.667	186.31
553.88	167.31
554.093	158.31
554.306	169.31
554.519	136.31
554.732	156.31
554.944	136.31
555.157	148.31
555.37	152.31
555.583	135.31
555.795	160.31
556.008	160.31
556.221	144.31
556.433	157.31
556.646	153.31
556.859	149.31
557.071	166.31
557.284	164.31
557.496	174.31
557.709	164.31
557.921	154.31
558.134	163.31
558.346	146.31
558.559	151.31
558.771	153.31
558.984	162.31
559.196	156.31
559.409	143.31
559.621	142.31
559.833	148.31
560.046	148.31
560.258	145.31
560.47	158.31
560.683	156.31
560.895	132.31
561.107	130.31
561.32	141.31
561.532	137.31
561.744	147.31
561.956	154.31
562.168	135.31
562.381	134.31
562.593	145.31
562.805	151.31
563.017	122.31
563.229	137.31
563.441	136.31
563.653	148.31
563.865	149.31
564.077	138.31
564.289	131.31
564.501	153.31
564.713	150.31
564.925	139.31
565.137	138.31
565.349	135.31
565.561	139.31
565.773	151.31
565.985	154.31
566.197	164.31
566.408	165.31
566.62	179.31
566.832	161.31
567.044	140.31
567.255	178.31
567.467	184.31
567.679	174.31
567.891	171.31
568.102	186.31
568.314	164.31
568.526	169.31
568.737	158.31
568.949	154.31
569.161	154.31
569.372	160.31
569.584	141.31
569.795	136.31
570.007	146.31
570.218	150.31
570.43	147.31
570.641	138.31
570.853	144.31
571.064	138.31
571.276	134.31
571.487	155.31
571.698	142.31
571.91	137.31
572.121	145.31
572.333	131.31
572.544	132.31
572.755	140.31
572.966	144.31
573.178	136.31
573.389	149.31
573.6	135.31
573.811	138.31
574.023	130.31
574.234	139.31
574.445	139.31
574.656	140.31
574.867	136.31
575.078	126.31
575.289	133.31
575.501	157.31
575.712	124.31
575.923	126.31
576.134	119.31
576.345	132.31
576.556	128.31
576.767	145.31
576.978	124.31
577.188	128.31
577.399	121.31
577.61	129.31
577.821	117.31
578.032	118.31
578.243	132.31
578.454	152.31
578.665	142.31
578.875	145.31
579.086	146.31
579.297	139.31
579.508	152.31
579.718	144.31
579.929	126.31
580.14	119.31
580.35	125.31
580.561	125.31
580.772	115.31
580.982	123.31
581.193	114.31
581.403	125.31
581.614	125.31
581.825	128.31
582.035	132.31
582.246	122.31
582.456	121.31
582.667	126.31
582.877	122.31
583.087	125.31
583.298	128.31
583.508	118.31
583.719	117.31
583.929	124.31
584.139	122.31
584.35	109.31
584.56	124.31
584.77	128.31
584.981	133.31
585.191	128.31
585.401	113.31
585.611	118.31
585.821	121.31
586.032	120.31
586.242	134.31
586.452	125.31
586.662	117.31
586.872	136.31
587.082	121.31
587.292	127.31
587.502	117.31
587.713	126.31
587.923	122.31
588.133	121.31
588.343	123.31
588.553	122.31
588.762	117.31
588.972	122.31
589.182	132.31
589.392	137.31
589.602	118.31
589.812	130.31
590.022	135.31
590.232	137.31
590.441	100.31
590.651	126.31
590.861	124.31
591.071	122.31
591.281	111.31
591.49	129.31
591.7	122.31
591.91	128.31
592.119	122.31
592.329	119.31
592.539	124.31
592.748	121.31
592.958	131.31
593.167	133.31
593.377	122.31
593.587	125.31
593.796	130.31
594.006	114.31
594.215	118.31
594.424	135.31
594.634	130.31
594.843	132.31
595.053	120.31
595.262	133.31
595.472	116.31
595.681	120.31
595.89	115.31
596.1	126.31
596.309	118.31
596.518	119.31
596.727	130.31
596.937	112.31
597.146	120.31
597.355	131.31
597.564	114.31
597.774	118.31
597.983	110.31
598.192	111.31
598.401	109.31
598.61	101.31
598.819	122.31
599.028	126.31
599.237	104.31
599.446	116.31
599.655	102.31
599.864	112.31
600.073	122.31
600.282	114.31
600.491	115.31
600.7	124.31
600.909	116.31
601.118	113.31
601.327	116.31
601.536	110.31
601.745	136.31
601.953	113.31
602.162	105.31
602.371	133.31
602.58	118.31
602.789	121.31
602.997	120.31
603.206	120.31
603.415	107.31
603.623	108.31
603.832	103.31
604.041	112.31
604.249	114.31
604.458	112.31
604.666	114.31
604.875	111.31
605.084	108.31
605.292	110.31
605.501	104.31
605.709	116.31
605.918	118.31
606.126	113.31
606.334	104.31
606.543	93.31
606.751	121.31
606.96	116.31
607.168	100.31
607.376	103.31
607.585	94.31
607.793	111.31
608.001	110.31
608.21	124.31
608.418	104.31
608.626	100.31
608.834	99.31
609.043	96.31
609.251	118.31
609.459	112.31
609.667	108.31
609.875	100.31
610.083	99.31
610.291	103.31
610.499	122.31
610.707	118.31
610.916	115.31
611.124	98.31
611.332	96.31
611.54	101.31
611.748	119.31
611.955	108.31
612.163	101.31
612.371	112.31
612.579	108.31
612.787	101.31
612.995	95.31
613.203	111.31
613.411	97.31
613.618	110.31
613.826	101.31
614.034	113.31
614.242	115.31
614.449	104.31
614.657	117.31
614.865	104.31
615.072	92.31
615.28	92.31
615.488	100.31
615.695	100.31
615.903	104.31
616.111	92.31
616.318	116.31
616.526	97.31
616.733	104.31
616.941	101.31
617.148	103.31
617.356	115.31
617.563	100.31
617.771	108.31
617.978	94.31
618.185	118.31
618.393	100.31
618.6	115.31
618.807	103.31
619.015	93.31
619.222	106.31
619.429	101.31
619.637	116.31
619.844	110.31
620.051	101.31
620.258	114.31
620.466	114.31
620.673	93.31
620.88	100.31
621.087	109.31
621.294	109.31
621.501	121.31
621.708	108.31
621.915	91.31
622.122	102.31
622.329	101.31
622.536	95.31
622.743	110.31
622.95	93.31
623.157	103.31
623.364	109.31
623.571	110.31
623.778	118.31
623.985	105.31
624.192	105.31
624.399	113.31
624.606	109.31
624.812	118.31
625.019	111.31
625.226	89.31
625.433	103.31
625.639	108.31
625.846	92.31
626.053	91.31
626.259	97.31
626.466	100.31
626.673	92.31
626.879	101.31
627.086	104.31
627.293	104.31
627.499	111.31
627.706	91.31
627.912	92.31
628.119	108.31
628.325	95.31
628.532	105.31
628.738	97.31
628.945	99.31
629.151	103.31
629.357	93.31
629.564	105.31
629.77	113.31
629.976	93.31
630.183	98.31
630.389	91.31
630.595	87.31
630.802	98.31
631.008	105.31
631.214	97.31
631.42	95.31
631.627	100.31
631.833	94.31
632.039	88.31
632.245	103.31
632.451	99.31
632.657	93.31
632.863	104.31
633.069	94.31
633.275	101.31
633.481	97.31
633.688	99.31
633.893	96.31
634.099	90.31
634.305	72.31
634.511	86.31
634.717	108.31
634.923	103.31
635.129	92.31
635.335	85.31
635.541	91.31
635.747	87.31
635.952	89.31
636.158	97.31
636.364	93.31
636.57	95.31
636.775	106.31
636.981	104.31
637.187	101.31
637.392	88.31
637.598	95.31
637.804	105.31
638.009	101.31
638.215	102.31
638.421	96.31
638.626	98.31
638.832	99.31
639.037	92.31
639.243	95.31
639.448	103.31
639.654	87.31
639.859	98.31
640.065	92.31
640.27	93.31
640.475	89.31
640.681	94.31
640.886	87.31
641.091	84.31
641.297	94.31
641.502	90.31
641.707	100.31
641.913	96.31
642.118	105.31
642.323	108.31
642.528	98.31
642.733	84.31
642.939	90.31
643.144	80.31
643.349	93.31
643.554	101.31
643.759	99.31
643.964	88.31
644.169	91.31
644.374	85.31
644.579	94.31
644.784	101.31
644.989	101.31
645.194	102.31
645.399	103.31
645.604	99.31
645.809	100.31
646.014	101.31
646.219	98.31
646.423	78.31
646.628	101.31
646.833	74.31
647.038	89.31
647.243	93.31
647.447	87.31
647.652	85.31
647.857	93.31
648.062	108.31
648.266	102.31
648.471	96.31
648.676	101.31
648.88	85.31
649.085	99.31
649.289	95.31
649.494	97.31
649.698	85.31
649.903	112.31
650.107	81.31
650.312	89.31
650.516	68.31
650.721	91.31
650.925	93.31
651.13	97.31
651.334	79.31
651.539	87.31
651.743	84.31
651.947	89.31
652.152	111.31
652.356	97.31
652.56	90.31
652.764	86.31
652.969	95.31
653.173	86.31
653.377	81.31
653.581	75.31
653.785	81.31
653.99	104.31
654.194	84.31
654.398	93.31
654.602	89.31
654.806	80.31
655.01	105.31
655.214	97.31
655.418	92.31
655.622	81.31
655.826	96.31
656.03	97.31
656.234	72.31
656.438	72.31
656.642	90.31
656.846	95.31
657.049	81.31
657.253	98.31
657.457	90.31
657.661	96.31
657.865	102.31
658.068	90.31
658.272	86.31
658.476	96.31
658.68	86.31
658.883	80.31
659.087	79.31
659.291	80.31
659.494	90.31
659.698	74.31
659.901	77.31
660.105	73.31
660.309	79.31
660.512	79.31
660.716	88.31
660.919	90.31
661.123	80.31
661.326	92.31
661.53	77.31
661.733	92.31
661.936	76.31
662.14	84.31
662.343	71.31
662.546	79.31
662.75	79.31
662.953	88.31
663.156	62.31
663.36	82.31
663.563	75.31
663.766	74.31
663.969	82.31
664.173	86.31
664.376	78.31
664.579	71.31
664.782	74.31
664.985	85.31
665.188	82.31
665.391	78.31
665.594	84.31
665.797	75.31
666	86.31
666.203	77.31
666.406	67.31
666.609	63.31
666.812	72.31
667.015	78.31
667.218	75.31
667.421	87.31
667.624	84.31
667.827	88.31
668.03	69.31
668.232	81.31
668.435	74.31
668.638	80.31
668.841	73.31
669.043	71.31
669.246	95.31
669.449	82.31
669.651	86.31
669.854	73.31
670.057	76.31
670.259	86.31
670.462	85.31
670.665	81.31
670.867	71.31
671.07	72.31
671.272	85.31
671.475	85.31
671.677	86.31
671.88	83.31
672.082	95.31
672.284	81.31
672.487	93.31
672.689	88.31
672.892	78.31
