Data from NickelSpatula.Lamp.E10.P2_HRD10591_11-59-35-525.txt Node
Date: Tue Jul 23 11:59:35 EDT 2019
User: cochatt
Spectrometer: HR+D1059
Trigger mode: 1
Integration Time (sec): 1.000000E-1
Scans to average: 1
Electric dark correction enabled: true
Nonlinearity correction enabled: false
Boxcar width: 0
XAxis mode: Wavelengths
Number of Pixels in Spectrum: 2048
>>>>>Begin Spectral Data<<<<<
223.165	-22
223.4	-22
223.635	-22
223.869	-23
224.104	-17
224.338	-15
224.573	0
224.808	-13
225.042	-2
225.277	1
225.511	4
225.746	9
225.98	7
226.215	8
226.449	6
226.683	16
226.918	19
227.152	22
227.387	31
227.621	28
227.856	38
228.09	47
228.324	47
228.559	60
228.793	84
229.027	146
229.262	145
229.496	159
229.73	181
229.964	203
230.199	219
230.433	234
230.667	204
230.901	207
231.136	210
231.37	203
231.604	209
231.838	246
232.072	242
232.306	253
232.541	239
232.775	227
233.009	267
233.243	289
233.477	306
233.711	335
233.945	324
234.179	333
234.413	342
234.647	395
234.881	459
235.115	414
235.349	408
235.583	358
235.817	337
236.051	403
236.285	430
236.519	465
236.753	409
236.987	424
237.221	399
237.455	402
237.689	425
237.922	463
238.156	503
238.39	567
238.624	670
238.858	599
239.091	479
239.325	516
239.559	477
239.793	545
240.027	666
240.26	604
240.494	590
240.728	577
240.961	682
241.195	653
241.429	668
241.662	649
241.896	533
242.13	471
242.363	478
242.597	489
242.83	553
243.064	550
243.298	601
243.531	603
243.765	645
243.998	651
244.232	606
244.465	596
244.699	590
244.932	667
245.166	645
245.399	567
245.633	545
245.866	585
246.099	617
246.333	729
246.566	763
246.8	777
247.033	758
247.266	702
247.5	690
247.733	673
247.966	655
248.2	687
248.433	786
248.666	869
248.899	864
249.133	887
249.366	1043
249.599	1057
249.832	965
250.066	783
250.299	853
250.532	826
250.765	815
250.998	741
251.231	736
251.465	817
251.698	842
251.931	821
252.164	872
252.397	947
252.63	1075
252.863	1195
253.096	1229
253.329	1153
253.562	1111
253.795	1254
254.028	1370
254.261	1413
254.494	1251
254.727	1155
254.96	1143
255.193	1233
255.426	1181
255.659	897
255.892	815
256.124	849
256.357	1023
256.59	1239
256.823	1157
257.056	989
257.289	921
257.521	984
257.754	1124
257.987	1300
258.22	1111
258.452	1021
258.685	1166
258.918	1287
259.151	1268
259.383	1344
259.616	1477
259.849	1529
260.081	1689
260.314	1944
260.547	1474
260.779	1537
261.012	1724
261.244	1646
261.477	1640
261.71	1530
261.942	1318
262.175	1295
262.407	1246
262.64	1320
262.872	1535
263.105	1663
263.337	1787
263.57	1560
263.802	1025
264.035	927
264.267	890
264.499	786
264.732	725
264.964	705
265.197	736
265.429	786
265.661	833
265.894	840
266.126	932
266.358	1074
266.591	1286
266.823	1478
267.055	1421
267.287	1243
267.52	1220
267.752	1307
267.984	1453
268.216	1383
268.448	1135
268.681	1101
268.913	1224
269.145	1310
269.377	1295
269.609	1325
269.841	1224
270.073	1323
270.306	1411
270.538	1402
270.77	1426
271.002	1456
271.234	1444
271.466	1546
271.698	1486
271.93	1425
272.162	1444
272.394	1456
272.626	1425
272.858	1469
273.09	1477
273.322	1344
273.553	1266
273.785	1530
274.017	2026
274.249	2497
274.481	2536
274.713	2837
274.945	3186
275.176	3301
275.408	2893
275.64	2665
275.872	2669
276.104	2272
276.335	1958
276.567	1920
276.799	1982
277.031	2093
277.262	1639
277.494	1258
277.726	1226
277.957	1315
278.189	1457
278.421	1489
278.652	1457
278.884	1394
279.115	1297
279.347	1246
279.579	1206
279.81	1207
280.042	1245
280.273	1291
280.505	1177
280.736	1053
280.968	1030
281.199	1096
281.431	1239
281.662	1233
281.894	1154
282.125	1237
282.356	1349
282.588	1405
282.819	1269
283.051	1362
283.282	1682
283.513	1942
283.745	2216
283.976	2195
284.207	2014
284.439	2149
284.67	2051
284.901	1808
285.132	1941
285.364	2058
285.595	1905
285.826	2003
286.057	2099
286.288	1987
286.52	2022
286.751	2117
286.982	2127
287.213	1799
287.444	1787
287.675	1883
287.906	1854
288.138	1547
288.369	1389
288.6	1305
288.831	1351
289.062	1579
289.293	1711
289.524	1610
289.755	1613
289.986	1651
290.217	1463
290.448	1118
290.679	976
290.91	910
291.141	953
291.371	1009
291.602	1005
291.833	980
292.064	1085
292.295	1234
292.526	1461
292.757	1463
292.987	1558
293.218	1578
293.449	1577
293.68	1694
293.91	1637
294.141	1659
294.372	1535
294.603	1422
294.833	1562
295.064	1856
295.295	1745
295.525	1354
295.756	1206
295.987	1028
296.217	1007
296.448	1065
296.679	1138
296.909	1265
297.14	1325
297.37	1463
297.601	1376
297.831	1190
298.062	1282
298.292	1474
298.523	1581
298.753	1853
298.984	1624
299.214	1311
299.445	1105
299.675	1041
299.905	1040
300.136	1108
300.366	1248
300.597	1218
300.827	1043
301.057	1031
301.288	1054
301.518	1141
301.748	1288
301.979	1417
302.209	1539
302.439	1511
302.669	1289
302.9	1292
303.13	1185
303.36	1112
303.59	1090
303.82	1141
304.051	1295
304.281	1390
304.511	1339
304.741	1151
304.971	1240
305.201	1305
305.431	1205
305.661	1072
305.891	1093
306.121	1133
306.352	1017
306.582	921
306.812	869
307.042	883
307.272	827
307.502	849
307.731	896
307.961	941
308.191	866
308.421	848
308.651	826
308.881	759
309.111	774
309.341	844
309.571	933
309.8	927
310.03	938
310.26	1029
310.49	992
310.72	896
310.949	863
311.179	887
311.409	961
311.639	1139
311.868	1390
312.098	1787
312.328	1991
312.557	1884
312.787	1893
313.017	1687
313.246	1842
313.476	1969
313.706	1639
313.935	1282
314.165	1061
314.394	992
314.624	973
314.853	1049
315.083	1085
315.312	1036
315.542	1023
315.771	991
316.001	883
316.23	868
316.46	873
316.689	861
316.919	927
317.148	898
317.377	890
317.607	914
317.836	998
318.065	1167
318.295	1301
318.524	1185
318.753	1002
318.983	962
319.212	921
319.441	1013
319.67	1130
319.9	1281
320.129	1156
320.358	1032
320.587	971
320.816	998
321.046	1209
321.275	1359
321.504	1405
321.733	1320
321.962	1264
322.191	1194
322.42	1139
322.649	1171
322.878	1243
323.108	1256
323.337	1148
323.566	1134
323.795	1096
324.024	1087
324.253	1020
324.482	1018
324.71	1126
324.939	1265
325.168	1143
325.397	992
325.626	958
325.855	943
326.084	962
326.313	897
326.542	853
326.77	889
326.999	929
327.228	976
327.457	1035
327.686	1043
327.914	881
328.143	852
328.372	844
328.6	853
328.829	908
329.058	897
329.287	911
329.515	901
329.744	875
329.972	849
330.201	831
330.43	877
330.658	999
330.887	1127
331.115	1071
331.344	1023
331.572	974
331.801	890
332.03	862
332.258	894
332.486	985
332.715	995
332.943	935
333.172	898
333.4	925
333.629	1056
333.857	1129
334.085	1121
334.314	1138
334.542	1051
334.771	990
334.999	921
335.227	925
335.455	942
335.684	1047
335.912	1192
336.14	1358
336.369	1292
336.597	1220
336.825	1385
337.053	1543
337.281	1266
337.51	990
337.738	971
337.966	1065
338.194	1212
338.422	1161
338.65	939
338.878	898
339.106	928
339.334	1032
339.562	1135
339.79	1001
340.018	969
340.246	1064
340.474	1205
340.702	1329
340.93	1358
341.158	1353
341.386	1113
341.614	1140
341.842	1160
342.07	1163
342.298	1331
342.526	1439
342.754	1201
342.981	1147
343.209	1070
343.437	1158
343.665	1258
343.893	1237
344.12	1439
344.348	1671
344.576	1471
344.804	1216
345.031	1076
345.259	993
345.487	989
345.714	1015
345.942	1117
346.17	1245
346.397	1144
346.625	1039
346.853	985
347.08	986
347.308	994
347.535	1143
347.763	1181
347.99	1021
348.218	940
348.445	985
348.673	1003
348.9	994
349.128	1098
349.355	1126
349.583	1098
349.81	1043
350.037	935
350.265	862
350.492	813
350.72	799
350.947	859
351.174	920
351.402	967
351.629	1016
351.856	975
352.083	933
352.311	1037
352.538	1139
352.765	1204
352.992	1064
353.22	1021
353.447	1037
353.674	992
353.901	990
354.128	1026
354.355	1048
354.583	1030
354.81	1015
355.037	1055
355.264	1064
355.491	1155
355.718	1222
355.945	1199
356.172	1128
356.399	1152
356.626	1382
356.853	1713
357.08	1842
357.307	1866
357.534	1437
357.761	1472
357.988	1869
358.215	2185
358.441	2038
358.668	1702
358.895	1593
359.122	1277
359.349	1249
359.576	1413
359.802	1129
360.029	979
360.256	1089
360.483	1343
360.709	1726
360.936	1757
361.163	1513
361.39	1192
361.616	1081
361.843	1275
362.07	1613
362.296	1457
362.523	1092
362.749	952
362.976	1041
363.203	1266
363.429	1440
363.656	1139
363.882	1024
364.109	1002
364.335	1067
364.562	1043
364.788	1163
365.015	1360
365.241	1235
365.468	992
365.694	858
365.92	815
366.147	815
366.373	782
366.599	810
366.826	810
367.052	846
367.278	864
367.505	859
367.731	951
367.957	1059
368.184	1083
368.41	1055
368.636	1080
368.862	1106
369.089	1059
369.315	936
369.541	936
369.767	906
369.993	888
370.219	885
370.445	918
370.672	1045
370.898	1125
371.124	1134
371.35	989
371.576	919
371.802	1034
372.028	1224
372.254	1403
372.48	1195
372.706	1083
372.932	1151
373.158	1188
373.384	1435
373.61	1896
373.835	1928
374.061	1465
374.287	1219
374.513	1512
374.739	1793
374.965	1806
375.191	1748
375.416	1202
375.642	1053
375.868	1241
376.094	1390
376.319	1208
376.545	1383
376.771	1417
376.997	1217
377.222	893
377.448	766
377.674	767
377.899	772
378.125	749
378.35	749
378.576	806
378.802	880
379.027	953
379.253	945
379.478	949
379.704	1060
379.929	1147
380.155	1157
380.38	976
380.606	1033
380.831	1148
381.057	1066
381.282	1029
381.507	1210
381.733	1479
381.958	1629
382.184	1724
382.409	1814
382.634	1762
382.86	1879
383.085	1512
383.31	1183
383.535	1302
383.761	1266
383.986	1231
384.211	1508
384.436	1433
384.662	1081
384.887	1063
385.112	1092
385.337	1120
385.562	1019
385.787	1128
386.013	1309
386.238	1312
386.463	1027
386.688	1013
386.913	953
387.138	928
387.363	997
387.588	1015
387.813	1011
388.038	1147
388.263	1011
388.488	976
388.713	1168
388.938	1293
389.163	1065
389.387	934
389.612	930
389.837	981
390.062	995
390.287	1058
390.512	1070
390.736	947
390.961	926
391.186	881
391.411	846
391.636	863
391.86	971
392.085	1045
392.31	1029
392.534	965
392.759	952
392.984	999
393.208	998
393.433	857
393.658	836
393.882	819
394.107	797
394.331	827
394.556	826
394.78	823
395.005	859
395.229	877
395.454	883
395.678	907
395.903	964
396.127	885
396.352	919
396.576	1003
396.801	1046
397.025	1175
397.249	1156
397.474	945
397.698	919
397.922	1007
398.147	944
398.371	953
398.595	996
398.82	938
399.044	959
399.268	1033
399.492	1072
399.717	1070
399.941	1120
400.165	1069
400.389	1047
400.613	1073
400.837	1066
401.062	940
401.286	934
401.51	937
401.734	902
401.958	937
402.182	926
402.406	908
402.63	951
402.854	980
403.078	1103
403.302	1398
403.526	1367
403.75	1216
403.974	1058
404.198	1113
404.422	1229
404.645	1493
404.869	1641
405.093	1183
405.317	1024
405.541	1001
405.765	1050
405.988	1056
406.212	1126
406.436	1367
406.66	1498
406.883	1174
407.107	1182
407.331	1437
407.555	1329
407.778	1135
408.002	1101
408.226	1090
408.449	1081
408.673	1081
408.896	956
409.12	899
409.344	922
409.567	885
409.791	900
410.014	887
410.238	912
410.461	897
410.685	905
410.908	931
411.132	967
411.355	944
411.578	953
411.802	950
412.025	1001
412.249	1044
412.472	971
412.695	958
412.919	957
413.142	992
413.365	1098
413.589	1098
413.812	970
414.035	954
414.258	952
414.482	1090
414.705	1077
414.928	938
415.151	882
415.374	898
415.597	961
415.821	966
416.044	900
416.267	896
416.49	894
416.713	874
416.936	849
417.159	887
417.382	886
417.605	910
417.828	937
418.051	951
418.274	964
418.497	969
418.72	961
418.943	1019
419.166	1015
419.389	1069
419.611	995
419.834	1060
420.057	1173
420.28	1175
420.503	1064
420.726	955
420.948	904
421.171	906
421.394	900
421.617	881
421.839	917
422.062	970
422.285	941
422.507	921
422.73	999
422.953	1027
423.175	945
423.398	962
423.621	1022
423.843	1077
424.066	1017
424.288	968
424.511	931
424.733	901
424.956	989
425.178	1127
425.401	1283
425.623	1449
425.846	1238
426.068	1041
426.291	1149
426.513	1052
426.735	967
426.958	1007
427.18	1197
427.402	1589
427.625	1545
427.847	1245
428.069	923
428.292	941
428.514	946
428.736	893
428.958	972
429.181	1188
429.403	1005
429.625	933
429.847	881
430.069	912
430.292	933
430.514	881
430.736	981
430.958	1270
431.18	1133
431.402	874
431.624	847
431.846	843
432.068	806
432.29	837
432.512	953
432.734	1304
432.956	1181
433.178	903
433.4	823
433.622	861
433.844	911
434.066	951
434.287	948
434.509	923
434.731	935
434.953	868
435.175	925
435.397	1042
435.618	951
435.84	869
436.062	824
436.284	858
436.505	823
436.727	811
436.949	807
437.17	861
437.392	869
437.614	868
437.835	868
438.057	883
438.278	991
438.5	1437
438.721	1419
438.943	945
439.165	832
439.386	803
439.608	782
439.829	794
440.05	801
440.272	881
440.493	1049
440.715	1302
440.936	970
441.158	879
441.379	897
441.6	1018
441.822	1033
442.043	893
442.264	874
442.486	894
442.707	888
442.928	894
443.149	906
443.371	937
443.592	934
443.813	923
444.034	919
444.255	899
444.476	971
444.698	918
444.919	955
445.14	1064
445.361	1024
445.582	995
445.803	937
446.024	931
446.245	974
446.466	920
446.687	917
446.908	915
447.129	865
447.35	809
447.571	824
447.792	801
448.013	821
448.234	789
448.455	799
448.675	803
448.896	803
449.117	817
449.338	846
449.559	838
449.779	887
450	890
450.221	851
450.442	840
450.662	798
450.883	798
451.104	829
451.324	823
451.545	827
451.766	808
451.986	797
452.207	770
452.428	787
452.648	767
452.869	857
453.089	856
453.31	858
453.53	755
453.751	756
453.971	767
454.192	785
454.412	802
454.633	765
454.853	760
455.073	756
455.294	752
455.514	734
455.734	782
455.955	839
456.175	831
456.395	733
456.616	735
456.836	736
457.056	712
457.276	737
457.497	704
457.717	703
457.937	701
458.157	752
458.377	749
458.598	741
458.818	746
459.038	797
459.258	846
459.478	869
459.698	901
459.918	897
460.138	899
460.358	893
460.578	869
460.798	858
461.018	891
461.238	878
461.458	880
461.678	928
461.898	962
462.118	913
462.338	959
462.558	962
462.777	1007
462.997	1047
463.217	1047
463.437	1063
463.657	1002
463.876	961
464.096	978
464.316	968
464.536	977
464.755	1019
464.975	1075
465.195	954
465.414	1031
465.634	983
465.854	959
466.073	884
466.293	869
466.512	937
466.732	1033
466.951	1078
467.171	936
467.391	875
467.61	891
467.829	945
468.049	949
468.268	906
468.488	873
468.707	943
468.927	1061
469.146	1170
469.365	1079
469.585	981
469.804	1043
470.023	1126
470.243	984
470.462	897
470.681	917
470.901	975
471.12	997
471.339	998
471.558	945
471.777	932
471.997	1057
472.216	1135
472.435	1104
472.654	1029
472.873	984
473.092	1047
473.311	1060
473.53	967
473.749	964
473.968	1036
474.187	986
474.406	938
474.625	950
474.844	966
475.063	1027
475.282	1049
475.501	1089
475.72	1187
475.939	1126
476.158	1123
476.377	1281
476.596	1459
476.814	1554
477.033	1279
477.252	1085
477.471	1009
477.69	1034
477.908	1103
478.127	1166
478.346	1054
478.564	1155
478.783	1133
479.002	1127
479.22	1310
479.439	1433
479.658	1235
479.876	1139
480.095	1226
480.313	1287
480.532	1154
480.751	1085
480.969	1131
481.188	1301
481.406	1317
481.624	1246
481.843	1117
482.061	1085
482.28	1214
482.498	1472
482.717	1414
482.935	1229
483.153	1155
483.372	1055
483.59	1061
483.808	1061
484.027	1051
484.245	1011
484.463	1006
484.681	1027
484.9	1124
485.118	1195
485.336	1154
485.554	1074
485.772	1096
485.99	1183
486.209	1280
486.427	1240
486.645	1203
486.863	1263
487.081	1249
487.299	1431
487.517	1395
487.735	1218
487.953	1240
488.171	1289
488.389	1213
488.607	1131
488.825	1197
489.043	1310
489.261	1481
489.479	1642
489.696	1333
489.914	1195
490.132	1142
490.35	1141
490.568	1134
490.786	1146
491.003	1153
491.221	1174
491.439	1155
491.657	1209
491.874	1243
492.092	1541
492.31	1888
492.527	1854
492.745	1547
492.963	1343
493.18	1313
493.398	1297
493.615	1301
493.833	1292
494.05	1230
494.268	1274
494.485	1254
494.703	1222
494.92	1250
495.138	1287
495.355	1270
495.573	1259
495.79	1459
496.008	1948
496.225	1617
496.442	1405
496.66	1386
496.877	1465
497.094	1432
497.312	1375
497.529	1327
497.746	1303
497.963	1397
498.181	1510
498.398	1650
498.615	1717
498.832	1725
499.049	1663
499.267	1557
499.484	1553
499.701	1653
499.918	1758
500.135	1919
500.352	1978
500.569	2027
500.786	2052
501.003	2035
501.22	1850
501.437	1765
501.654	1697
501.871	1640
502.088	1679
502.305	1544
502.522	1538
502.739	1550
502.956	1411
503.172	1360
503.389	1342
503.606	1282
503.823	1347
504.04	1313
504.256	1378
504.473	1344
504.69	1394
504.907	1422
505.123	1365
505.34	1473
505.557	1439
505.773	1388
505.99	1287
506.207	1417
506.423	1282
506.64	1214
506.856	1248
507.073	1380
507.289	1364
507.506	1356
507.722	1423
507.939	1447
508.155	1462
508.372	1346
508.588	1287
508.805	1275
509.021	1239
509.238	1199
509.454	1228
509.67	1169
509.887	1205
510.103	1366
510.319	1335
510.536	1189
510.752	1126
510.968	1097
511.184	1035
511.401	1066
511.617	1053
511.833	1048
512.049	1082
512.265	1107
512.481	1144
512.698	1285
512.914	1375
513.13	1288
513.346	1133
513.562	1185
513.778	1204
513.994	1183
514.21	1290
514.426	1206
514.642	1179
514.858	1151
515.074	1193
515.29	1306
515.506	1472
515.721	1381
515.937	1240
516.153	1200
516.369	1188
516.585	1241
516.801	1449
517.016	1655
517.232	1614
517.448	1555
517.664	1411
517.879	1275
518.095	1296
518.311	1280
518.527	1297
518.742	1401
518.958	1465
519.173	1392
519.389	1410
519.605	1461
519.82	1503
520.036	1753
520.251	1751
520.467	1649
520.682	2537
520.898	3140
521.113	2950
521.329	1778
521.544	1537
521.76	1548
521.975	1403
522.19	1304
522.406	1365
522.621	1468
522.836	1551
523.052	1599
523.267	1311
523.482	1365
523.698	1432
523.913	1402
524.128	1255
524.343	1175
524.559	1206
524.774	1151
524.989	1174
525.204	1218
525.419	1359
525.634	1237
525.849	1242
526.064	1279
526.28	1255
526.495	1518
526.71	1593
526.925	1396
527.14	1498
527.355	1431
527.57	1154
527.785	1251
527.999	1158
528.214	1079
528.429	1066
528.644	1109
528.859	1055
529.074	1026
529.289	1015
529.503	1006
529.718	1012
529.933	1235
530.148	1261
530.363	1091
530.577	1021
530.792	1018
531.007	1013
531.221	994
531.436	985
531.651	1019
531.865	1016
532.08	1026
532.295	1013
532.509	1044
532.724	1194
532.938	1360
533.153	1581
533.367	1267
533.582	1206
533.796	1093
534.011	1067
534.225	1066
534.44	1093
534.654	1110
534.868	1281
535.083	1152
535.297	1030
535.511	1043
535.726	1161
535.94	1069
536.154	1029
536.369	995
536.583	1006
536.797	1070
537.011	1088
537.225	1147
537.44	1233
537.654	1035
537.868	1029
538.082	1037
538.296	1035
538.51	1105
538.724	1146
538.938	1077
539.153	989
539.367	992
539.581	1009
539.795	1059
540.009	1175
540.222	1089
540.436	1087
540.65	1168
540.864	1219
541.078	1255
541.292	1404
541.506	1141
541.72	1088
541.934	1035
542.147	1058
542.361	1055
542.575	1107
542.789	1054
543.002	984
543.216	1106
543.43	963
543.644	972
543.857	958
544.071	966
544.285	959
544.498	959
544.712	943
544.925	1017
545.139	964
545.352	914
545.566	932
545.779	1101
545.993	998
546.206	873
546.42	919
546.633	937
546.847	879
547.06	868
547.274	863
547.487	920
547.7	978
547.914	1028
548.127	1129
548.34	1098
548.554	1000
548.767	1011
548.98	1069
549.193	989
549.407	1022
549.62	1193
549.833	1093
550.046	1163
550.259	1149
550.473	1015
550.686	982
550.899	1025
551.112	993
551.325	1057
551.538	1107
551.751	955
551.964	910
552.177	929
552.39	912
552.603	885
552.816	957
553.029	882
553.242	865
553.455	953
553.667	1017
553.88	974
554.093	907
554.306	855
554.519	815
554.732	791
554.944	804
555.157	761
555.37	782
555.583	778
555.795	818
556.008	817
556.221	801
556.433	801
556.646	795
556.859	809
557.071	811
557.284	883
557.496	840
557.709	822
557.921	802
558.134	785
558.346	727
558.559	735
558.771	769
558.984	853
559.196	787
559.409	735
559.621	730
559.833	722
560.046	721
560.258	731
560.47	770
560.683	730
560.895	687
561.107	706
561.32	682
561.532	691
561.744	772
561.956	813
562.168	733
562.381	704
562.593	734
562.805	773
563.017	705
563.229	707
563.441	667
563.653	709
563.865	704
564.077	704
564.289	681
564.501	681
564.713	765
564.925	731
565.137	728
565.349	699
565.561	739
565.773	715
565.985	746
566.197	800
566.408	866
566.62	846
566.832	868
567.044	861
567.255	926
567.467	985
567.679	883
567.891	874
568.102	909
568.314	909
568.526	851
568.737	840
568.949	887
569.161	763
569.372	741
569.584	717
569.795	704
570.007	713
570.218	775
570.43	720
570.641	703
570.853	672
571.064	661
571.276	719
571.487	715
571.698	668
571.91	650
572.121	668
572.333	650
572.544	638
572.755	651
572.966	637
573.178	623
573.389	652
573.6	648
573.811	636
574.023	594
574.234	571
574.445	601
574.656	573
574.867	581
575.078	607
575.289	598
575.501	639
575.712	580
575.923	567
576.134	550
576.345	549
576.556	570
576.767	561
576.978	541
577.188	526
577.399	538
577.61	506
577.821	521
578.032	547
578.243	569
578.454	591
578.665	598
578.875	577
579.086	545
579.297	577
579.508	582
579.718	575
579.929	545
580.14	541
580.35	535
580.561	517
580.772	499
580.982	496
581.193	499
581.403	469
581.614	484
581.825	474
582.035	472
582.246	460
582.456	473
582.667	466
582.877	485
583.087	462
583.298	493
583.508	468
583.719	453
583.929	450
584.139	464
584.35	445
584.56	471
584.77	470
584.981	474
585.191	471
585.401	472
585.611	498
585.821	537
586.032	497
586.242	493
586.452	474
586.662	483
586.872	522
587.082	486
587.292	469
587.502	478
587.713	501
587.923	495
588.133	504
588.343	477
588.553	443
588.762	463
588.972	433
589.182	456
589.392	437
589.602	479
589.812	475
590.022	523
590.232	504
590.441	487
590.651	467
590.861	456
591.071	486
591.281	467
591.49	462
591.7	455
591.91	449
592.119	467
592.329	451
592.539	463
592.748	480
592.958	478
593.167	478
593.377	521
593.587	495
593.796	490
594.006	459
594.215	498
594.424	499
594.634	480
594.843	473
595.053	480
595.262	471
595.472	451
595.681	418
595.89	422
596.1	441
596.309	473
596.518	442
596.727	424
596.937	431
597.146	446
597.355	469
597.564	442
597.774	407
597.983	405
598.192	425
598.401	412
598.61	409
598.819	394
599.028	401
599.237	398
599.446	411
599.655	387
599.864	371
600.073	372
600.282	403
600.491	397
600.7	401
600.909	393
601.118	363
601.327	391
601.536	396
601.745	387
601.953	416
602.162	417
602.371	415
602.58	399
602.789	401
602.997	377
603.206	403
603.415	383
603.623	359
603.832	364
604.041	375
604.249	391
604.458	413
604.666	377
604.875	350
605.084	327
605.292	369
605.501	362
605.709	391
605.918	367
606.126	362
606.334	361
606.543	358
606.751	375
606.96	356
607.168	343
607.376	344
607.585	343
607.793	352
608.001	373
608.21	354
608.418	367
608.626	373
608.834	353
609.043	349
609.251	355
609.459	334
609.667	333
609.875	350
610.083	347
610.291	379
610.499	344
610.707	348
610.916	337
611.124	340
611.332	334
611.54	344
611.748	329
611.955	343
612.163	360
612.371	323
612.579	323
612.787	346
612.995	331
613.203	355
613.411	327
613.618	333
613.826	349
614.034	360
614.242	331
614.449	322
614.657	320
614.865	316
615.072	324
615.28	327
615.488	346
615.695	331
615.903	330
616.111	345
616.318	327
616.526	319
616.733	340
616.941	325
617.148	340
617.356	314
617.563	313
617.771	311
617.978	310
618.185	321
618.393	321
618.6	312
618.807	326
619.015	326
619.222	311
619.429	327
619.637	334
619.844	319
620.051	299
620.258	311
620.466	297
620.673	282
620.88	299
621.087	318
621.294	298
621.501	298
621.708	312
621.915	306
622.122	316
622.329	294
622.536	290
622.743	313
622.95	294
623.157	309
623.364	306
623.571	294
623.778	285
623.985	322
624.192	298
624.399	321
624.606	291
624.812	312
625.019	298
625.226	310
625.433	314
625.639	281
625.846	288
626.053	291
626.259	278
626.466	296
626.673	314
626.879	290
627.086	292
627.293	299
627.499	280
627.706	272
627.912	268
628.119	285
628.325	266
628.532	261
628.738	278
628.945	261
629.151	261
629.357	280
629.564	256
629.77	252
629.976	270
630.183	267
630.389	275
630.595	280
630.802	271
631.008	264
631.214	275
631.42	266
631.627	258
631.833	250
632.039	266
632.245	242
632.451	249
632.657	243
632.863	241
633.069	244
633.275	239
633.481	221
633.688	234
633.893	246
634.099	244
634.305	262
634.511	253
634.717	259
634.923	222
635.129	223
635.335	227
635.541	228
635.747	244
635.952	239
636.158	242
636.364	232
636.57	230
636.775	231
636.981	241
637.187	242
637.392	218
637.598	229
637.804	242
638.009	234
638.215	235
638.421	239
638.626	229
638.832	219
639.037	241
639.243	223
639.448	251
639.654	250
639.859	254
640.065	230
640.27	233
640.475	225
640.681	216
640.886	215
641.091	211
641.297	244
641.502	261
641.707	225
641.913	220
642.118	227
642.323	224
642.528	231
642.733	235
642.939	221
643.144	210
643.349	211
643.554	221
643.759	209
643.964	228
644.169	206
644.374	204
644.579	222
644.784	210
644.989	193
645.194	206
645.399	199
645.604	213
645.809	224
646.014	214
646.219	194
646.423	210
646.628	209
646.833	218
647.038	208
647.243	209
647.447	201
647.652	204
647.857	219
648.062	235
648.266	219
648.471	222
648.676	201
648.88	214
649.085	203
649.289	211
649.494	214
649.698	224
649.903	211
650.107	206
650.312	196
650.516	197
650.721	183
650.925	182
651.13	186
651.334	180
651.539	193
651.743	196
651.947	184
652.152	173
652.356	183
652.56	177
652.764	171
652.969	161
653.173	182
653.377	187
653.581	175
653.785	167
653.99	167
654.194	162
654.398	171
654.602	157
654.806	147
655.01	150
655.214	156
655.418	161
655.622	175
655.826	168
656.03	163
656.234	176
656.438	177
656.642	149
656.846	155
657.049	153
657.253	158
657.457	143
657.661	142
657.865	125
658.068	127
658.272	124
658.476	138
658.68	125
658.883	115
659.087	114
659.291	112
659.494	122
659.698	101
659.901	109
660.105	121
660.309	112
660.512	102
660.716	115
660.919	103
661.123	112
661.326	95
661.53	94
661.733	104
661.936	83
662.14	80
662.343	88
662.546	90
662.75	98
662.953	95
663.156	84
663.36	81
663.563	93
663.766	102
663.969	89
664.173	86
664.376	93
664.579	83
664.782	87
664.985	70
665.188	92
665.391	92
665.594	78
665.797	89
666	100
666.203	90
666.406	92
666.609	99
666.812	82
667.015	84
667.218	83
667.421	80
667.624	88
667.827	78
668.03	84
668.232	85
668.435	73
668.638	81
668.841	80
669.043	81
669.246	83
669.449	98
669.651	90
669.854	95
670.057	99
670.259	84
670.462	89
670.665	81
670.867	63
671.07	74
671.272	89
671.475	86
671.677	89
671.88	85
672.082	97
672.284	92
672.487	76
672.689	75
672.892	84
