Data from NickelSpatula_HRD10591_16-33-26-126.txt Node
Date: Mon Jul 22 16:33:26 EDT 2019
User: cochatt
Spectrometer: HR+D1059
Trigger mode: 1
Integration Time (sec): 1.000000E-1
Scans to average: 1
Electric dark correction enabled: true
Nonlinearity correction enabled: false
Boxcar width: 0
XAxis mode: Wavelengths
Number of Pixels in Spectrum: 2048
>>>>>Begin Spectral Data<<<<<
223.165	-6
223.4	-6
223.635	-6
223.869	-26
224.104	-20
224.338	-19
224.573	-25
224.808	-1
225.042	7
225.277	0
225.511	3
225.746	17
225.98	6
226.215	-6
226.449	5
226.683	21
226.918	6
227.152	38
227.387	34
227.621	29
227.856	46
228.09	50
228.324	52
228.559	62
228.793	70
229.027	81
229.262	74
229.496	75
229.73	83
229.964	106
230.199	92
230.433	97
230.667	100
230.901	102
231.136	98
231.37	84
231.604	99
231.838	102
232.072	95
232.306	97
232.541	102
232.775	92
233.009	93
233.243	105
233.477	127
233.711	122
233.945	122
234.179	108
234.413	110
234.647	133
234.881	136
235.115	131
235.349	137
235.583	129
235.817	123
236.051	114
236.285	124
236.519	144
236.753	123
236.987	136
237.221	143
237.455	121
237.689	148
237.922	133
238.156	143
238.39	148
238.624	177
238.858	154
239.091	138
239.325	154
239.559	141
239.793	123
240.027	180
240.26	147
240.494	166
240.728	152
240.961	168
241.195	163
241.429	166
241.662	163
241.896	146
242.13	147
242.363	138
242.597	137
242.83	165
243.064	157
243.298	169
243.531	167
243.765	165
243.998	178
244.232	161
244.465	148
244.699	147
244.932	178
245.166	166
245.399	162
245.633	150
245.866	156
246.099	170
246.333	184
246.566	186
246.8	196
247.033	178
247.266	153
247.5	177
247.733	167
247.966	179
248.2	168
248.433	181
248.666	185
248.899	194
249.133	193
249.366	222
249.599	231
249.832	216
250.066	205
250.299	218
250.532	209
250.765	206
250.998	189
251.231	179
251.465	178
251.698	202
251.931	182
252.164	207
252.397	208
252.63	235
252.863	261
253.096	245
253.329	250
253.562	253
253.795	279
254.028	297
254.261	296
254.494	275
254.727	247
254.96	261
255.193	257
255.426	260
255.659	191
255.892	185
256.124	224
256.357	243
256.59	262
256.823	260
257.056	228
257.289	221
257.521	236
257.754	259
257.987	293
258.22	255
258.452	230
258.685	238
258.918	272
259.151	275
259.383	280
259.616	326
259.849	334
260.081	319
260.314	364
260.547	299
260.779	307
261.012	355
261.244	338
261.477	340
261.71	315
261.942	278
262.175	288
262.407	283
262.64	279
262.872	305
263.105	314
263.337	352
263.57	334
263.802	230
264.035	226
264.267	220
264.499	204
264.732	178
264.964	200
265.197	174
265.429	197
265.661	206
265.894	207
266.126	227
266.358	228
266.591	280
266.823	315
267.055	310
267.287	290
267.52	278
267.752	282
267.984	326
268.216	316
268.448	269
268.681	252
268.913	269
269.145	293
269.377	298
269.609	292
269.841	287
270.073	300
270.306	330
270.538	319
270.77	325
271.002	302
271.234	339
271.466	330
271.698	320
271.93	285
272.162	313
272.394	289
272.626	296
272.858	314
273.09	317
273.322	292
273.553	257
273.785	294
274.017	377
274.249	451
274.481	461
274.713	519
274.945	568
275.176	583
275.408	545
275.64	490
275.872	536
276.104	443
276.335	401
276.567	397
276.799	387
277.031	422
277.262	339
277.494	263
277.726	268
277.957	267
278.189	314
278.421	314
278.652	307
278.884	295
279.115	285
279.347	259
279.579	277
279.81	265
280.042	260
280.273	293
280.505	263
280.736	220
280.968	236
281.199	230
281.431	271
281.662	291
281.894	263
282.125	270
282.356	289
282.588	307
282.819	266
283.051	279
283.282	351
283.513	398
283.745	401
283.976	425
284.207	429
284.439	405
284.67	414
284.901	371
285.132	374
285.364	405
285.595	378
285.826	400
286.057	402
286.288	396
286.52	395
286.751	437
286.982	456
287.213	387
287.444	367
287.675	395
287.906	382
288.138	337
288.369	300
288.6	281
288.831	292
289.062	340
289.293	359
289.524	332
289.755	338
289.986	339
290.217	329
290.448	259
290.679	235
290.91	230
291.141	222
291.371	216
291.602	225
291.833	219
292.064	217
292.295	270
292.526	294
292.757	319
292.987	336
293.218	333
293.449	340
293.68	372
293.91	353
294.141	360
294.372	358
294.603	313
294.833	337
295.064	397
295.295	391
295.525	306
295.756	265
295.987	230
296.217	226
296.448	242
296.679	241
296.909	247
297.14	281
297.37	281
297.601	286
297.831	241
298.062	254
298.292	294
298.523	316
298.753	360
298.984	334
299.214	287
299.445	243
299.675	226
299.905	208
300.136	229
300.366	227
300.597	244
300.827	215
301.057	220
301.288	238
301.518	243
301.748	269
301.979	278
302.209	285
302.439	285
302.669	260
302.9	263
303.13	249
303.36	235
303.59	229
303.82	250
304.051	283
304.281	293
304.511	279
304.741	243
304.971	271
305.201	284
305.431	275
305.661	237
305.891	246
306.121	229
306.352	226
306.582	201
306.812	182
307.042	205
307.272	174
307.502	177
307.731	218
307.961	206
308.191	206
308.421	179
308.651	174
308.881	177
309.111	183
309.341	202
309.571	194
309.8	219
310.03	208
310.26	211
310.49	220
310.72	197
310.949	189
311.179	198
311.409	199
311.639	231
311.868	286
312.098	365
312.328	395
312.557	393
312.787	362
313.017	311
313.246	365
313.476	395
313.706	343
313.935	273
314.165	235
314.394	200
314.624	212
314.853	213
315.083	237
315.312	215
315.542	223
315.771	229
316.001	197
316.23	182
316.46	183
316.689	190
316.919	190
317.148	188
317.377	194
317.607	217
317.836	213
318.065	234
318.295	275
318.524	245
318.753	221
318.983	219
319.212	193
319.441	222
319.67	246
319.9	261
320.129	260
320.358	214
320.587	206
320.816	225
321.046	249
321.275	283
321.504	281
321.733	271
321.962	261
322.191	254
322.42	224
322.649	233
322.878	237
323.108	246
323.337	232
323.566	241
323.795	218
324.024	228
324.253	216
324.482	210
324.71	235
324.939	237
325.168	234
325.397	196
325.626	199
325.855	202
326.084	219
326.313	214
326.542	181
326.77	202
326.999	213
327.228	229
327.457	205
327.686	217
327.914	198
328.143	191
328.372	191
328.6	186
328.829	189
329.058	204
329.287	198
329.515	192
329.744	194
329.972	193
330.201	185
330.43	189
330.658	210
330.887	230
331.115	230
331.344	222
331.572	204
331.801	219
332.03	194
332.258	193
332.486	205
332.715	219
332.943	191
333.172	210
333.4	217
333.629	226
333.857	238
334.085	246
334.314	247
334.542	237
334.771	217
334.999	215
335.227	210
335.455	209
335.684	228
335.912	247
336.14	289
336.369	268
336.597	233
336.825	289
337.053	309
337.281	277
337.51	228
337.738	215
337.966	231
338.194	253
338.422	245
338.65	219
338.878	205
339.106	207
339.334	225
339.562	231
339.79	202
340.018	203
340.246	234
340.474	251
340.702	238
340.93	247
341.158	276
341.386	245
341.614	228
341.842	221
342.07	224
342.298	269
342.526	275
342.754	255
342.981	225
343.209	211
343.437	215
343.665	261
343.893	240
344.12	300
344.348	339
344.576	297
344.804	230
345.031	223
345.259	221
345.487	210
345.714	222
345.942	228
346.17	270
346.397	246
346.625	193
346.853	191
347.08	211
347.308	219
347.535	233
347.763	248
347.99	233
348.218	217
348.445	213
348.673	219
348.9	192
349.128	225
349.355	232
349.583	227
349.81	223
350.037	196
350.265	205
350.492	182
350.72	169
350.947	181
351.174	194
351.402	207
351.629	214
351.856	189
352.083	193
352.311	203
352.538	223
352.765	240
352.992	221
353.22	226
353.447	216
353.674	211
353.901	187
354.128	203
354.355	217
354.583	220
354.81	216
355.037	232
355.264	216
355.491	224
355.718	246
355.945	241
356.172	226
356.399	211
356.626	261
356.853	308
357.08	343
357.307	370
357.534	281
357.761	260
357.988	321
358.215	358
358.441	350
358.668	327
358.895	323
359.122	248
359.349	235
359.576	253
359.802	229
360.029	207
360.256	223
360.483	254
360.709	302
360.936	325
361.163	293
361.39	239
361.616	225
361.843	241
362.07	294
362.296	255
362.523	215
362.749	179
362.976	206
363.203	252
363.429	267
363.656	239
363.882	223
364.109	214
364.335	223
364.562	206
364.788	214
365.015	265
365.241	234
365.468	212
365.694	185
365.92	197
366.147	181
366.373	194
366.599	182
366.826	191
367.052	185
367.278	192
367.505	188
367.731	193
367.957	207
368.184	212
368.41	214
368.636	222
368.862	236
369.089	201
369.315	215
369.541	196
369.767	197
369.993	193
370.219	193
370.445	201
370.672	218
370.898	244
371.124	226
371.35	212
371.576	198
371.802	202
372.028	217
372.254	259
372.48	224
372.706	203
372.932	221
373.158	250
373.384	273
373.61	321
373.835	336
374.061	260
374.287	218
374.513	265
374.739	307
374.965	325
375.191	293
375.416	243
375.642	220
375.868	221
376.094	261
376.319	231
376.545	252
376.771	267
376.997	233
377.222	195
377.448	171
377.674	155
377.899	167
378.125	177
378.35	183
378.576	185
378.802	195
379.027	193
379.253	214
379.478	202
379.704	217
379.929	226
380.155	227
380.38	207
380.606	202
380.831	249
381.057	226
381.282	202
381.507	248
381.733	281
381.958	289
382.184	310
382.409	327
382.634	338
382.86	325
383.085	288
383.31	221
383.535	255
383.761	285
383.986	235
384.211	288
384.436	286
384.662	217
384.887	230
385.112	228
385.337	245
385.562	228
385.787	232
386.013	263
386.238	266
386.463	223
386.688	222
386.913	203
387.138	187
387.363	206
387.588	226
387.813	217
388.038	241
388.263	218
388.488	201
388.713	236
388.938	261
389.163	221
389.387	176
389.612	205
389.837	197
390.062	214
390.287	222
390.512	220
390.736	206
390.961	195
391.186	185
391.411	196
391.636	211
391.86	217
392.085	228
392.31	221
392.534	199
392.759	221
392.984	224
393.208	206
393.433	219
393.658	204
393.882	179
394.107	165
394.331	191
394.556	201
394.78	170
395.005	187
395.229	196
395.454	204
395.678	198
395.903	190
396.127	201
396.352	200
396.576	209
396.801	231
397.025	266
397.249	244
397.474	215
397.698	211
397.922	218
398.147	211
398.371	193
398.595	208
398.82	214
399.044	212
399.268	236
399.492	238
399.717	243
399.941	265
400.165	228
400.389	220
400.613	220
400.837	235
401.062	204
401.286	206
401.51	201
401.734	201
401.958	203
402.182	214
402.406	201
402.63	184
402.854	216
403.078	237
403.302	325
403.526	319
403.75	288
403.974	263
404.198	245
404.422	284
404.645	295
404.869	314
405.093	266
405.317	226
405.541	226
405.765	224
405.988	248
406.212	232
406.436	257
406.66	289
406.883	251
407.107	249
407.331	273
407.555	281
407.778	250
408.002	234
408.226	246
408.449	257
408.673	242
408.896	207
409.12	212
409.344	216
409.567	199
409.791	223
410.014	203
410.238	212
410.461	213
410.685	213
410.908	196
411.132	224
411.355	214
411.578	217
411.802	206
412.025	227
412.249	232
412.472	212
412.695	211
412.919	205
413.142	219
413.365	233
413.589	225
413.812	222
414.035	211
414.258	209
414.482	234
414.705	209
414.928	211
415.151	202
415.374	206
415.597	203
415.821	213
416.044	217
416.267	201
416.49	194
416.713	195
416.936	187
417.159	222
417.382	205
417.605	220
417.828	219
418.051	206
418.274	202
418.497	207
418.72	220
418.943	212
419.166	228
419.389	239
419.611	241
419.834	228
420.057	248
420.28	232
420.503	219
420.726	217
420.948	208
421.171	209
421.394	205
421.617	206
421.839	191
422.062	211
422.285	197
422.507	237
422.73	214
422.953	217
423.175	217
423.398	224
423.621	231
423.843	251
424.066	229
424.288	196
424.511	216
424.733	208
424.956	204
425.178	244
425.401	276
425.623	291
425.846	249
426.068	233
426.291	259
426.513	211
426.735	203
426.958	226
427.18	243
427.402	320
427.625	308
427.847	273
428.069	199
428.292	220
428.514	209
428.736	195
428.958	213
429.181	258
429.403	221
429.625	189
429.847	192
430.069	221
430.292	215
430.514	188
430.736	211
430.958	269
431.18	238
431.402	217
431.624	197
431.846	194
432.068	187
432.29	189
432.512	220
432.734	255
432.956	261
433.178	193
433.4	202
433.622	202
433.844	202
434.066	245
434.287	204
434.509	189
434.731	217
434.953	189
435.175	207
435.397	228
435.618	217
435.84	181
436.062	199
436.284	194
436.505	195
436.727	185
436.949	181
437.17	201
437.392	190
437.614	205
437.835	199
438.057	200
438.278	206
438.5	285
438.721	270
438.943	205
439.165	185
439.386	209
439.608	181
439.829	162
440.05	182
440.272	194
440.493	217
440.715	269
440.936	210
441.158	207
441.379	206
441.6	219
441.822	253
442.043	202
442.264	187
442.486	201
442.707	201
442.928	198
443.149	211
443.371	206
443.592	221
443.813	210
444.034	218
444.255	207
444.476	211
444.698	218
444.919	219
445.14	287
445.361	268
445.582	239
445.803	217
446.024	210
446.245	234
446.466	214
446.687	220
446.908	202
447.129	203
447.35	190
447.571	179
447.792	183
448.013	200
448.234	177
448.455	169
448.675	180
448.896	181
449.117	184
449.338	191
449.559	189
449.779	204
450	203
450.221	201
450.442	191
450.662	169
450.883	174
451.104	189
451.324	173
451.545	180
451.766	197
451.986	168
452.207	171
452.428	185
452.648	181
452.869	195
453.089	195
453.31	201
453.53	188
453.751	167
453.971	183
454.192	197
454.412	187
454.633	181
454.853	206
455.073	165
455.294	185
455.514	179
455.734	200
455.955	192
456.175	196
456.395	170
456.616	167
456.836	175
457.056	165
457.276	158
457.497	155
457.717	169
457.937	155
458.157	182
458.377	173
458.598	171
458.818	173
459.038	185
459.258	206
459.478	210
459.698	198
459.918	196
460.138	204
460.358	208
460.578	207
460.798	197
461.018	230
461.238	210
461.458	217
461.678	216
461.898	236
462.118	211
462.338	215
462.558	227
462.777	230
462.997	242
463.217	258
463.437	251
463.657	238
463.876	220
464.096	228
464.316	205
464.536	232
464.755	243
464.975	231
465.195	249
465.414	249
465.634	219
465.854	218
466.073	198
466.293	193
466.512	199
466.732	213
466.951	216
467.171	205
467.391	187
467.61	196
467.829	197
468.049	215
468.268	182
468.488	192
468.707	196
468.927	214
469.146	231
469.365	247
469.585	205
469.804	212
470.023	244
470.243	225
470.462	194
470.681	202
470.901	212
471.12	231
471.339	207
471.558	202
471.777	204
471.997	207
472.216	238
472.435	233
472.654	209
472.873	226
473.092	233
473.311	233
473.53	191
473.749	200
473.968	208
474.187	196
474.406	208
474.625	210
474.844	210
475.063	224
475.282	206
475.501	233
475.72	254
475.939	239
476.158	236
476.377	259
476.596	314
476.814	315
477.033	280
477.252	235
477.471	219
477.69	202
477.908	232
478.127	239
478.346	248
478.564	283
478.783	236
479.002	239
479.22	282
479.439	286
479.658	237
479.876	231
480.095	271
480.313	265
480.532	227
480.751	248
480.969	226
481.188	251
481.406	265
481.624	248
481.843	230
482.061	225
482.28	238
482.498	290
482.717	315
482.935	241
483.153	241
483.372	225
483.59	214
483.808	233
484.027	220
484.245	197
484.463	223
484.681	212
484.9	219
485.118	246
485.336	234
485.554	212
485.772	222
485.99	248
486.209	252
486.427	264
486.645	246
486.863	261
487.081	265
487.299	287
487.517	278
487.735	259
487.953	259
488.171	246
488.389	241
488.607	219
488.825	247
489.043	263
489.261	291
489.479	327
489.696	262
489.914	221
490.132	232
490.35	227
490.568	219
490.786	234
491.003	226
491.221	243
491.439	238
491.657	238
491.874	275
492.092	312
492.31	369
492.527	325
492.745	301
492.963	269
493.18	250
493.398	279
493.615	256
493.833	230
494.05	264
494.268	259
494.485	271
494.703	248
494.92	241
495.138	234
495.355	246
495.573	261
495.79	297
496.008	385
496.225	318
496.442	281
496.66	259
496.877	293
497.094	272
497.312	271
497.529	275
497.746	272
497.963	278
498.181	306
498.398	317
498.615	343
498.832	342
499.049	333
499.267	320
499.484	341
499.701	342
499.918	360
500.135	399
500.352	430
500.569	477
500.786	462
501.003	447
501.22	397
501.437	392
501.654	372
501.871	331
502.088	331
502.305	313
502.522	307
502.739	325
502.956	304
503.172	297
503.389	266
503.606	262
503.823	266
504.04	274
504.256	277
504.473	270
504.69	275
504.907	264
505.123	275
505.34	288
505.557	292
505.773	263
505.99	267
506.207	291
506.423	268
506.64	234
506.856	265
507.073	270
507.289	271
507.506	267
507.722	300
507.939	296
508.155	286
508.372	273
508.588	261
508.805	241
509.021	255
509.238	242
509.454	243
509.67	246
509.887	242
510.103	270
510.319	278
510.536	244
510.752	241
510.968	217
511.184	222
511.401	238
511.617	223
511.833	229
512.049	233
512.265	222
512.481	221
512.698	246
512.914	260
513.13	259
513.346	243
513.562	261
513.778	255
513.994	249
514.21	269
514.426	233
514.642	238
514.858	241
515.074	241
515.29	279
515.506	291
515.721	276
515.937	275
516.153	247
516.369	230
516.585	261
516.801	289
517.016	348
517.232	318
517.448	326
517.664	285
517.879	274
518.095	281
518.311	267
518.527	271
518.742	284
518.958	295
519.173	290
519.389	288
519.605	317
519.82	305
520.036	335
520.251	306
520.467	321
520.682	528
520.898	626
521.113	573
521.329	375
521.544	315
521.76	319
521.975	275
522.19	278
522.406	281
522.621	295
522.836	304
523.052	318
523.267	275
523.482	259
523.698	281
523.913	276
524.128	250
524.343	236
524.559	245
524.774	232
524.989	250
525.204	252
525.419	278
525.634	254
525.849	269
526.064	263
526.28	259
526.495	298
526.71	341
526.925	311
527.14	327
527.355	307
527.57	257
527.785	263
527.999	249
528.214	245
528.429	231
528.644	216
528.859	223
529.074	229
529.289	206
529.503	209
529.718	223
529.933	296
530.148	280
530.363	251
530.577	213
530.792	213
531.007	210
531.221	219
531.436	215
531.651	245
531.865	225
532.08	227
532.295	221
532.509	212
532.724	269
532.938	283
533.153	363
533.367	291
533.582	263
533.796	233
534.011	228
534.225	241
534.44	242
534.654	248
534.868	303
535.083	282
535.297	226
535.511	225
535.726	234
535.94	236
536.154	223
536.369	231
536.583	218
536.797	226
537.011	222
537.225	263
537.44	247
537.654	245
537.868	205
538.082	222
538.296	228
538.51	227
538.724	241
538.938	243
539.153	213
539.367	228
539.581	228
539.795	232
540.009	264
540.222	248
540.436	245
540.65	260
540.864	262
541.078	249
541.292	299
541.506	264
541.72	241
541.934	232
542.147	234
542.361	247
542.575	246
542.789	226
543.002	216
543.216	238
543.43	213
543.644	202
543.857	208
544.071	221
544.285	209
544.498	202
544.712	203
544.925	230
545.139	224
545.352	205
545.566	193
545.779	248
545.993	249
546.206	198
546.42	185
546.633	197
546.847	201
547.06	211
547.274	193
547.487	204
547.7	199
547.914	217
548.127	243
548.34	246
548.554	232
548.767	232
548.98	237
549.193	227
549.407	228
549.62	237
549.833	250
550.046	224
550.259	246
550.473	226
550.686	217
550.899	221
551.112	215
551.325	217
551.538	229
551.751	226
551.964	205
552.177	207
552.39	213
552.603	208
552.816	237
553.029	211
553.242	207
553.455	213
553.667	231
553.88	228
554.093	207
554.306	182
554.519	187
554.732	188
554.944	186
555.157	187
555.37	182
555.583	184
555.795	193
556.008	187
556.221	198
556.433	179
556.646	179
556.859	187
557.071	205
557.284	202
557.496	198
557.709	184
557.921	186
558.134	180
558.346	197
558.559	179
558.771	198
558.984	193
559.196	177
559.409	177
559.621	172
559.833	181
560.046	182
560.258	177
560.47	180
560.683	175
560.895	167
561.107	178
561.32	165
561.532	151
561.744	197
561.956	210
562.168	165
562.381	168
562.593	185
562.805	185
563.017	180
563.229	182
563.441	182
563.653	172
563.865	179
564.077	180
564.289	181
564.501	186
564.713	195
564.925	187
565.137	176
565.349	157
565.561	171
565.773	169
565.985	178
566.197	197
566.408	211
566.62	209
566.832	205
567.044	208
567.255	231
567.467	227
567.679	242
567.891	225
568.102	241
568.314	234
568.526	203
568.737	219
568.949	229
569.161	190
569.372	173
569.584	181
569.795	196
570.007	179
570.218	177
570.43	175
570.641	177
570.853	171
571.064	168
571.276	183
571.487	197
571.698	198
571.91	184
572.121	177
572.333	169
572.544	161
572.755	165
572.966	142
573.178	150
573.389	172
573.6	165
573.811	175
574.023	140
574.234	157
574.445	144
574.656	160
574.867	166
575.078	142
575.289	148
575.501	190
575.712	147
575.923	150
576.134	155
576.345	182
576.556	147
576.767	156
576.978	153
577.188	135
577.399	141
577.61	142
577.821	146
578.032	171
578.243	174
578.454	174
578.665	162
578.875	166
579.086	163
579.297	162
579.508	154
579.718	158
579.929	161
580.14	145
580.35	132
580.561	149
580.772	135
580.982	149
581.193	141
581.403	149
581.614	150
581.825	138
582.035	127
582.246	134
582.456	158
582.667	150
582.877	140
583.087	131
583.298	145
583.508	151
583.719	145
583.929	144
584.139	131
584.35	134
584.56	139
584.77	130
584.981	126
585.191	127
585.401	150
585.611	147
585.821	152
586.032	147
586.242	152
586.452	125
586.662	134
586.872	166
587.082	153
587.292	126
587.502	138
587.713	137
587.923	151
588.133	162
588.343	159
588.553	143
588.762	145
588.972	138
589.182	141
589.392	136
589.602	143
589.812	145
590.022	155
590.232	161
590.441	132
590.651	135
590.861	133
591.071	141
591.281	130
591.49	147
591.7	145
591.91	144
592.119	139
592.329	156
592.539	149
592.748	153
592.958	151
593.167	150
593.377	163
593.587	172
593.796	142
594.006	142
594.215	163
594.424	164
594.634	145
594.843	152
595.053	145
595.262	120
595.472	149
595.681	129
595.89	135
596.1	134
596.309	162
596.518	156
596.727	135
596.937	124
597.146	134
597.355	141
597.564	147
597.774	136
597.983	129
598.192	127
598.401	127
598.61	135
598.819	130
599.028	130
599.237	130
599.446	134
599.655	125
599.864	125
600.073	139
600.282	120
600.491	122
600.7	125
600.909	122
601.118	115
601.327	125
601.536	136
601.745	125
601.953	135
602.162	152
602.371	124
602.58	122
602.789	103
602.997	123
603.206	125
603.415	126
603.623	114
603.832	125
604.041	122
604.249	113
604.458	120
604.666	124
604.875	103
605.084	124
605.292	114
605.501	121
605.709	126
605.918	129
606.126	119
606.334	129
606.543	128
606.751	120
606.96	131
607.168	124
607.376	118
607.585	104
607.793	139
608.001	129
608.21	123
608.418	130
608.626	117
608.834	133
609.043	127
609.251	131
609.459	120
609.667	125
609.875	121
610.083	125
610.291	138
610.499	115
610.707	118
610.916	127
611.124	125
611.332	116
611.54	124
611.748	99
611.955	125
612.163	123
612.371	136
612.579	115
612.787	119
612.995	135
613.203	121
613.411	125
613.618	119
613.826	126
614.034	105
614.242	121
614.449	119
614.657	123
614.865	113
615.072	108
615.28	129
615.488	105
615.695	123
615.903	133
616.111	107
616.318	109
616.526	125
616.733	127
616.941	129
617.148	123
617.356	123
617.563	130
617.771	121
617.978	113
618.185	114
618.393	117
618.6	102
618.807	115
619.015	127
619.222	122
619.429	110
619.637	127
619.844	128
620.051	124
620.258	109
620.466	120
620.673	121
620.88	114
621.087	98
621.294	107
621.501	113
621.708	112
621.915	110
622.122	124
622.329	107
622.536	101
622.743	113
622.95	99
623.157	121
623.364	121
623.571	88
623.778	99
623.985	115
624.192	107
624.399	126
624.606	121
624.812	106
625.019	121
625.226	117
625.433	122
625.639	121
625.846	117
626.053	111
626.259	101
626.466	111
626.673	125
626.879	119
627.086	110
627.293	122
627.499	111
627.706	115
627.912	103
628.119	109
628.325	119
628.532	116
628.738	125
628.945	110
629.151	97
629.357	107
629.564	108
629.77	110
629.976	105
630.183	115
630.389	111
630.595	108
630.802	106
631.008	114
631.214	104
631.42	105
631.627	130
631.833	118
632.039	121
632.245	88
632.451	99
632.657	85
632.863	95
633.069	109
633.275	103
633.481	101
633.688	106
633.893	97
634.099	106
634.305	97
634.511	107
634.717	97
634.923	109
635.129	105
635.335	94
635.541	101
635.747	99
635.952	104
636.158	90
636.364	94
636.57	92
636.775	118
636.981	102
637.187	107
637.392	96
637.598	108
637.804	107
638.009	100
638.215	98
638.421	88
638.626	101
638.832	101
639.037	105
639.243	115
639.448	100
639.654	108
639.859	114
640.065	102
640.27	97
640.475	100
640.681	106
640.886	106
641.091	110
641.297	105
641.502	102
641.707	99
641.913	99
642.118	92
642.323	102
642.528	98
642.733	108
642.939	94
643.144	104
643.349	105
643.554	93
643.759	109
643.964	105
644.169	106
644.374	108
644.579	119
644.784	101
644.989	107
645.194	90
645.399	103
645.604	101
645.809	105
646.014	106
646.219	104
646.423	116
646.628	113
646.833	106
647.038	95
647.243	102
647.447	102
647.652	116
647.857	99
648.062	105
648.266	108
648.471	106
648.676	80
648.88	102
649.085	93
649.289	119
649.494	113
649.698	91
649.903	105
650.107	113
650.312	101
650.516	112
650.721	97
650.925	86
651.13	88
651.334	85
651.539	109
651.743	105
651.947	95
652.152	90
652.356	108
652.56	94
652.764	90
652.969	97
653.173	92
653.377	87
653.581	81
653.785	95
653.99	112
654.194	107
654.398	79
654.602	110
654.806	88
655.01	99
655.214	103
655.418	87
655.622	94
655.826	90
656.03	83
656.234	99
656.438	97
656.642	97
656.846	98
657.049	88
657.253	89
657.457	78
657.661	89
657.865	87
658.068	94
658.272	80
658.476	89
658.68	94
658.883	85
659.087	81
659.291	92
659.494	89
659.698	73
659.901	90
660.105	85
660.309	86
660.512	92
660.716	85
660.919	86
661.123	83
661.326	85
661.53	74
661.733	104
661.936	91
662.14	80
662.343	83
662.546	90
662.75	86
662.953	86
663.156	84
663.36	69
663.563	74
663.766	80
663.969	89
664.173	83
664.376	98
664.579	86
664.782	101
664.985	83
665.188	84
665.391	89
665.594	75
665.797	82
666	79
666.203	79
666.406	93
666.609	92
666.812	83
667.015	82
667.218	78
667.421	80
667.624	72
667.827	97
668.03	81
668.232	94
668.435	95
668.638	82
668.841	78
669.043	87
669.246	76
669.449	71
669.651	86
669.854	80
670.057	75
670.259	74
670.462	91
670.665	83
670.867	98
671.07	84
671.272	89
671.475	87
671.677	79
671.88	82
672.082	74
672.284	87
672.487	73
672.689	85
672.892	97
