Data from NickelSpatula_HRD10591_16-35-01-126.txt Node
Date: Mon Jul 22 16:35:01 EDT 2019
User: cochatt
Spectrometer: HR+D1059
Trigger mode: 1
Integration Time (sec): 1.000000E-1
Scans to average: 1
Electric dark correction enabled: true
Nonlinearity correction enabled: false
Boxcar width: 0
XAxis mode: Wavelengths
Number of Pixels in Spectrum: 2048
>>>>>Begin Spectral Data<<<<<
223.165	-16.69
223.4	-16.69
223.635	-16.69
223.869	-8.69
224.104	-28.69
224.338	-8.69
224.573	-23.69
224.808	-8.69
225.042	-12.69
225.277	17.31
225.511	7.31
225.746	-4.69
225.98	-2.69
226.215	8.31
226.449	11.31
226.683	18.31
226.918	11.31
227.152	41.31
227.387	35.31
227.621	38.31
227.856	42.31
228.09	48.31
228.324	49.31
228.559	54.31
228.793	58.31
229.027	70.31
229.262	82.31
229.496	62.31
229.73	82.31
229.964	73.31
230.199	96.31
230.433	93.31
230.667	106.31
230.901	101.31
231.136	99.31
231.37	93.31
231.604	83.31
231.838	101.31
232.072	98.31
232.306	120.31
232.541	105.31
232.775	101.31
233.009	104.31
233.243	110.31
233.477	128.31
233.711	127.31
233.945	119.31
234.179	115.31
234.413	122.31
234.647	115.31
234.881	127.31
235.115	137.31
235.349	135.31
235.583	128.31
235.817	117.31
236.051	127.31
236.285	143.31
236.519	142.31
236.753	131.31
236.987	135.31
237.221	136.31
237.455	119.31
237.689	125.31
237.922	151.31
238.156	127.31
238.39	148.31
238.624	161.31
238.858	155.31
239.091	152.31
239.325	139.31
239.559	145.31
239.793	159.31
240.027	171.31
240.26	156.31
240.494	151.31
240.728	147.31
240.961	179.31
241.195	157.31
241.429	160.31
241.662	166.31
241.896	139.31
242.13	145.31
242.363	133.31
242.597	135.31
242.83	155.31
243.064	161.31
243.298	172.31
243.531	179.31
243.765	161.31
243.998	173.31
244.232	154.31
244.465	162.31
244.699	154.31
244.932	175.31
245.166	157.31
245.399	156.31
245.633	158.31
245.866	149.31
246.099	166.31
246.333	189.31
246.566	192.31
246.8	191.31
247.033	194.31
247.266	181.31
247.5	177.31
247.733	187.31
247.966	179.31
248.2	179.31
248.433	189.31
248.666	178.31
248.899	196.31
249.133	198.31
249.366	232.31
249.599	226.31
249.832	215.31
250.066	210.31
250.299	213.31
250.532	209.31
250.765	204.31
250.998	179.31
251.231	187.31
251.465	205.31
251.698	199.31
251.931	196.31
252.164	205.31
252.397	226.31
252.63	231.31
252.863	268.31
253.096	257.31
253.329	262.31
253.562	268.31
253.795	267.31
254.028	300.31
254.261	307.31
254.494	283.31
254.727	266.31
254.96	262.31
255.193	264.31
255.426	260.31
255.659	198.31
255.892	196.31
256.124	203.31
256.357	229.31
256.59	260.31
256.823	265.31
257.056	227.31
257.289	200.31
257.521	232.31
257.754	259.31
257.987	283.31
258.22	247.31
258.452	223.31
258.685	259.31
258.918	270.31
259.151	274.31
259.383	293.31
259.616	309.31
259.849	318.31
260.081	331.31
260.314	351.31
260.547	309.31
260.779	320.31
261.012	335.31
261.244	340.31
261.477	370.31
261.71	337.31
261.942	295.31
262.175	293.31
262.407	272.31
262.64	281.31
262.872	313.31
263.105	336.31
263.337	373.31
263.57	319.31
263.802	236.31
264.035	215.31
264.267	207.31
264.499	194.31
264.732	170.31
264.964	187.31
265.197	187.31
265.429	202.31
265.661	200.31
265.894	203.31
266.126	204.31
266.358	220.31
266.591	270.31
266.823	314.31
267.055	301.31
267.287	278.31
267.52	281.31
267.752	293.31
267.984	317.31
268.216	332.31
268.448	259.31
268.681	247.31
268.913	270.31
269.145	285.31
269.377	294.31
269.609	307.31
269.841	278.31
270.073	296.31
270.306	301.31
270.538	299.31
270.77	322.31
271.002	300.31
271.234	308.31
271.466	329.31
271.698	305.31
271.93	322.31
272.162	298.31
272.394	273.31
272.626	292.31
272.858	312.31
273.09	299.31
273.322	273.31
273.553	267.31
273.785	316.31
274.017	373.31
274.249	459.31
274.481	472.31
274.713	476.31
274.945	572.31
275.176	571.31
275.408	529.31
275.64	491.31
275.872	487.31
276.104	455.31
276.335	386.31
276.567	395.31
276.799	402.31
277.031	390.31
277.262	350.31
277.494	250.31
277.726	259.31
277.957	275.31
278.189	308.31
278.421	326.31
278.652	309.31
278.884	267.31
279.115	252.31
279.347	275.31
279.579	245.31
279.81	255.31
280.042	267.31
280.273	274.31
280.505	250.31
280.736	236.31
280.968	219.31
281.199	232.31
281.431	271.31
281.662	249.31
281.894	236.31
282.125	273.31
282.356	273.31
282.588	293.31
282.819	258.31
283.051	275.31
283.282	321.31
283.513	373.31
283.745	406.31
283.976	433.31
284.207	394.31
284.439	391.31
284.67	396.31
284.901	354.31
285.132	378.31
285.364	417.31
285.595	373.31
285.826	404.31
286.057	403.31
286.288	384.31
286.52	377.31
286.751	405.31
286.982	403.31
287.213	360.31
287.444	353.31
287.675	370.31
287.906	362.31
288.138	329.31
288.369	294.31
288.6	269.31
288.831	285.31
289.062	318.31
289.293	355.31
289.524	332.31
289.755	321.31
289.986	358.31
290.217	310.31
290.448	243.31
290.679	219.31
290.91	213.31
291.141	206.31
291.371	200.31
291.602	210.31
291.833	225.31
292.064	233.31
292.295	267.31
292.526	294.31
292.757	274.31
292.987	293.31
293.218	304.31
293.449	319.31
293.68	342.31
293.91	319.31
294.141	317.31
294.372	321.31
294.603	295.31
294.833	320.31
295.064	356.31
295.295	370.31
295.525	273.31
295.756	247.31
295.987	212.31
296.217	218.31
296.448	230.31
296.679	237.31
296.909	241.31
297.14	281.31
297.37	287.31
297.601	265.31
297.831	232.31
298.062	251.31
298.292	279.31
298.523	316.31
298.753	345.31
298.984	328.31
299.214	258.31
299.445	229.31
299.675	213.31
299.905	226.31
300.136	226.31
300.366	229.31
300.597	217.31
300.827	205.31
301.057	205.31
301.288	213.31
301.518	218.31
301.748	255.31
301.979	248.31
302.209	282.31
302.439	267.31
302.669	254.31
302.9	246.31
303.13	234.31
303.36	221.31
303.59	219.31
303.82	218.31
304.051	248.31
304.281	275.31
304.511	262.31
304.741	228.31
304.971	241.31
305.201	243.31
305.431	233.31
305.661	239.31
305.891	214.31
306.121	199.31
306.352	213.31
306.582	198.31
306.812	200.31
307.042	185.31
307.272	181.31
307.502	169.31
307.731	196.31
307.961	207.31
308.191	192.31
308.421	177.31
308.651	171.31
308.881	172.31
309.111	180.31
309.341	176.31
309.571	170.31
309.8	172.31
310.03	197.31
310.26	198.31
310.49	216.31
310.72	190.31
310.949	199.31
311.179	187.31
311.409	198.31
311.639	209.31
311.868	278.31
312.098	339.31
312.328	394.31
312.557	343.31
312.787	364.31
313.017	315.31
313.246	351.31
313.476	375.31
313.706	303.31
313.935	261.31
314.165	211.31
314.394	205.31
314.624	190.31
314.853	218.31
315.083	222.31
315.312	223.31
315.542	228.31
315.771	191.31
316.001	175.31
316.23	164.31
316.46	179.31
316.689	172.31
316.919	186.31
317.148	180.31
317.377	177.31
317.607	183.31
317.836	186.31
318.065	222.31
318.295	226.31
318.524	235.31
318.753	180.31
318.983	204.31
319.212	180.31
319.441	201.31
319.67	213.31
319.9	239.31
320.129	235.31
320.358	187.31
320.587	215.31
320.816	196.31
321.046	219.31
321.275	251.31
321.504	240.31
321.733	235.31
321.962	224.31
322.191	217.31
322.42	201.31
322.649	220.31
322.878	228.31
323.108	261.31
323.337	222.31
323.566	216.31
323.795	214.31
324.024	212.31
324.253	215.31
324.482	187.31
324.71	212.31
324.939	220.31
325.168	221.31
325.397	199.31
325.626	163.31
325.855	184.31
326.084	187.31
326.313	180.31
326.542	182.31
326.77	191.31
326.999	195.31
327.228	201.31
327.457	203.31
327.686	194.31
327.914	174.31
328.143	177.31
328.372	173.31
328.6	177.31
328.829	177.31
329.058	169.31
329.287	185.31
329.515	175.31
329.744	182.31
329.972	165.31
330.201	169.31
330.43	183.31
330.658	192.31
330.887	209.31
331.115	193.31
331.344	212.31
331.572	200.31
331.801	185.31
332.03	163.31
332.258	188.31
332.486	199.31
332.715	187.31
332.943	186.31
333.172	199.31
333.4	192.31
333.629	204.31
333.857	221.31
334.085	213.31
334.314	246.31
334.542	227.31
334.771	195.31
334.999	209.31
335.227	203.31
335.455	193.31
335.684	195.31
335.912	224.31
336.14	242.31
336.369	242.31
336.597	213.31
336.825	256.31
337.053	283.31
337.281	253.31
337.51	195.31
337.738	196.31
337.966	193.31
338.194	227.31
338.422	213.31
338.65	185.31
338.878	176.31
339.106	169.31
339.334	199.31
339.562	217.31
339.79	188.31
340.018	194.31
340.246	221.31
340.474	233.31
340.702	233.31
340.93	244.31
341.158	249.31
341.386	218.31
341.614	215.31
341.842	237.31
342.07	218.31
342.298	254.31
342.526	247.31
342.754	233.31
342.981	223.31
343.209	208.31
343.437	222.31
343.665	220.31
343.893	218.31
344.12	252.31
344.348	316.31
344.576	286.31
344.804	218.31
345.031	201.31
345.259	189.31
345.487	200.31
345.714	201.31
345.942	206.31
346.17	224.31
346.397	213.31
346.625	170.31
346.853	188.31
347.08	167.31
347.308	201.31
347.535	216.31
347.763	245.31
347.99	203.31
348.218	191.31
348.445	211.31
348.673	201.31
348.9	188.31
349.128	201.31
349.355	201.31
349.583	200.31
349.81	186.31
350.037	199.31
350.265	184.31
350.492	183.31
350.72	176.31
350.947	193.31
351.174	181.31
351.402	191.31
351.629	184.31
351.856	168.31
352.083	171.31
352.311	184.31
352.538	188.31
352.765	218.31
352.992	211.31
353.22	194.31
353.447	206.31
353.674	202.31
353.901	192.31
354.128	196.31
354.355	197.31
354.583	202.31
354.81	201.31
355.037	217.31
355.264	216.31
355.491	213.31
355.718	219.31
355.945	219.31
356.172	218.31
356.399	199.31
356.626	234.31
356.853	289.31
357.08	293.31
357.307	289.31
357.534	267.31
357.761	251.31
357.988	309.31
358.215	340.31
358.441	307.31
358.668	287.31
358.895	277.31
359.122	234.31
359.349	218.31
359.576	260.31
359.802	222.31
360.029	189.31
360.256	191.31
360.483	226.31
360.709	296.31
360.936	287.31
361.163	279.31
361.39	199.31
361.616	193.31
361.843	217.31
362.07	262.31
362.296	257.31
362.523	211.31
362.749	172.31
362.976	187.31
363.203	221.31
363.429	250.31
363.656	204.31
363.882	204.31
364.109	173.31
364.335	194.31
364.562	192.31
364.788	199.31
365.015	235.31
365.241	200.31
365.468	189.31
365.694	152.31
365.92	175.31
366.147	160.31
366.373	161.31
366.599	159.31
366.826	165.31
367.052	178.31
367.278	162.31
367.505	152.31
367.731	188.31
367.957	202.31
368.184	189.31
368.41	185.31
368.636	190.31
368.862	204.31
369.089	199.31
369.315	185.31
369.541	178.31
369.767	188.31
369.993	166.31
370.219	163.31
370.445	186.31
370.672	191.31
370.898	211.31
371.124	225.31
371.35	188.31
371.576	171.31
371.802	166.31
372.028	217.31
372.254	223.31
372.48	202.31
372.706	190.31
372.932	207.31
373.158	190.31
373.384	244.31
373.61	300.31
373.835	299.31
374.061	236.31
374.287	191.31
374.513	236.31
374.739	274.31
374.965	279.31
375.191	279.31
375.416	217.31
375.642	191.31
375.868	199.31
376.094	241.31
376.319	209.31
376.545	228.31
376.771	235.31
376.997	217.31
377.222	156.31
377.448	156.31
377.674	151.31
377.899	170.31
378.125	156.31
378.35	154.31
378.576	176.31
378.802	172.31
379.027	192.31
379.253	181.31
379.478	178.31
379.704	191.31
379.929	220.31
380.155	205.31
380.38	178.31
380.606	200.31
380.831	219.31
381.057	205.31
381.282	189.31
381.507	225.31
381.733	250.31
381.958	246.31
382.184	269.31
382.409	287.31
382.634	284.31
382.86	304.31
383.085	257.31
383.31	208.31
383.535	217.31
383.761	231.31
383.986	212.31
384.211	259.31
384.436	257.31
384.662	188.31
384.887	191.31
385.112	191.31
385.337	196.31
385.562	185.31
385.787	197.31
386.013	230.31
386.238	227.31
386.463	209.31
386.688	197.31
386.913	194.31
387.138	185.31
387.363	183.31
387.588	183.31
387.813	193.31
388.038	213.31
388.263	200.31
388.488	188.31
388.713	195.31
388.938	243.31
389.163	202.31
389.387	171.31
389.612	186.31
389.837	180.31
390.062	195.31
390.287	202.31
390.512	187.31
390.736	174.31
390.961	181.31
391.186	183.31
391.411	170.31
391.636	178.31
391.86	191.31
392.085	199.31
392.31	200.31
392.534	189.31
392.759	185.31
392.984	198.31
393.208	204.31
393.433	176.31
393.658	160.31
393.882	180.31
394.107	167.31
394.331	167.31
394.556	168.31
394.78	160.31
395.005	180.31
395.229	181.31
395.454	187.31
395.678	175.31
395.903	168.31
396.127	161.31
396.352	186.31
396.576	189.31
396.801	200.31
397.025	224.31
397.249	220.31
397.474	199.31
397.698	181.31
397.922	207.31
398.147	170.31
398.371	176.31
398.595	193.31
398.82	204.31
399.044	207.31
399.268	190.31
399.492	198.31
399.717	201.31
399.941	209.31
400.165	199.31
400.389	195.31
400.613	209.31
400.837	214.31
401.062	183.31
401.286	193.31
401.51	194.31
401.734	171.31
401.958	168.31
402.182	172.31
402.406	192.31
402.63	177.31
402.854	210.31
403.078	223.31
403.302	276.31
403.526	253.31
403.75	248.31
403.974	212.31
404.198	210.31
404.422	240.31
404.645	275.31
404.869	274.31
405.093	223.31
405.317	198.31
405.541	184.31
405.765	207.31
405.988	196.31
406.212	205.31
406.436	237.31
406.66	264.31
406.883	216.31
407.107	208.31
407.331	236.31
407.555	247.31
407.778	210.31
408.002	205.31
408.226	207.31
408.449	202.31
408.673	216.31
408.896	171.31
409.12	189.31
409.344	173.31
409.567	188.31
409.791	192.31
410.014	186.31
410.238	180.31
410.461	176.31
410.685	187.31
410.908	179.31
411.132	197.31
411.355	169.31
411.578	195.31
411.802	195.31
412.025	203.31
412.249	189.31
412.472	199.31
412.695	183.31
412.919	191.31
413.142	191.31
413.365	197.31
413.589	212.31
413.812	199.31
414.035	189.31
414.258	195.31
414.482	212.31
414.705	208.31
414.928	207.31
415.151	188.31
415.374	179.31
415.597	205.31
415.821	187.31
416.044	176.31
416.267	183.31
416.49	188.31
416.713	170.31
416.936	187.31
417.159	171.31
417.382	162.31
417.605	197.31
417.828	182.31
418.051	179.31
418.274	210.31
418.497	181.31
418.72	184.31
418.943	201.31
419.166	203.31
419.389	199.31
419.611	207.31
419.834	187.31
420.057	216.31
420.28	216.31
420.503	208.31
420.726	186.31
420.948	180.31
421.171	182.31
421.394	174.31
421.617	174.31
421.839	192.31
422.062	193.31
422.285	180.31
422.507	176.31
422.73	192.31
422.953	203.31
423.175	192.31
423.398	219.31
423.621	216.31
423.843	200.31
424.066	205.31
424.288	200.31
424.511	181.31
424.733	185.31
424.956	207.31
425.178	200.31
425.401	247.31
425.623	273.31
425.846	237.31
426.068	198.31
426.291	220.31
426.513	196.31
426.735	177.31
426.958	204.31
427.18	227.31
427.402	276.31
427.625	274.31
427.847	212.31
428.069	193.31
428.292	182.31
428.514	183.31
428.736	189.31
428.958	185.31
429.181	223.31
429.403	199.31
429.625	194.31
429.847	186.31
430.069	177.31
430.292	192.31
430.514	175.31
430.736	199.31
430.958	226.31
431.18	217.31
431.402	179.31
431.624	164.31
431.846	156.31
432.068	160.31
432.29	175.31
432.512	197.31
432.734	250.31
432.956	217.31
433.178	185.31
433.4	177.31
433.622	176.31
433.844	180.31
434.066	217.31
434.287	199.31
434.509	183.31
434.731	201.31
434.953	195.31
435.175	190.31
435.397	210.31
435.618	194.31
435.84	180.31
436.062	180.31
436.284	187.31
436.505	155.31
436.727	159.31
436.949	160.31
437.17	168.31
437.392	185.31
437.614	161.31
437.835	178.31
438.057	161.31
438.278	191.31
438.5	269.31
438.721	267.31
438.943	189.31
439.165	165.31
439.386	168.31
439.608	177.31
439.829	175.31
440.05	180.31
440.272	190.31
440.493	196.31
440.715	245.31
440.936	206.31
441.158	171.31
441.379	165.31
441.6	186.31
441.822	204.31
442.043	188.31
442.264	187.31
442.486	179.31
442.707	183.31
442.928	201.31
443.149	198.31
443.371	196.31
443.592	183.31
443.813	191.31
444.034	181.31
444.255	171.31
444.476	199.31
444.698	197.31
444.919	201.31
445.14	311.31
445.361	242.31
445.582	211.31
445.803	204.31
446.024	188.31
446.245	221.31
446.466	178.31
446.687	193.31
446.908	182.31
447.129	176.31
447.35	161.31
447.571	162.31
447.792	163.31
448.013	161.31
448.234	171.31
448.455	168.31
448.675	159.31
448.896	161.31
449.117	158.31
449.338	196.31
449.559	188.31
449.779	179.31
450	195.31
450.221	182.31
450.442	169.31
450.662	170.31
450.883	171.31
451.104	161.31
451.324	171.31
451.545	188.31
451.766	166.31
451.986	171.31
452.207	171.31
452.428	157.31
452.648	163.31
452.869	171.31
453.089	181.31
453.31	171.31
453.53	172.31
453.751	157.31
453.971	181.31
454.192	171.31
454.412	166.31
454.633	164.31
454.853	168.31
455.073	157.31
455.294	147.31
455.514	158.31
455.734	164.31
455.955	170.31
456.175	168.31
456.395	169.31
456.616	150.31
456.836	161.31
457.056	137.31
457.276	141.31
457.497	144.31
457.717	135.31
457.937	155.31
458.157	163.31
458.377	160.31
458.598	154.31
458.818	150.31
459.038	164.31
459.258	175.31
459.478	170.31
459.698	185.31
459.918	192.31
460.138	185.31
460.358	199.31
460.578	179.31
460.798	187.31
461.018	189.31
461.238	159.31
461.458	182.31
461.678	191.31
461.898	195.31
462.118	189.31
462.338	194.31
462.558	206.31
462.777	209.31
462.997	213.31
463.217	205.31
463.437	196.31
463.657	216.31
463.876	189.31
464.096	197.31
464.316	209.31
464.536	213.31
464.755	208.31
464.975	217.31
465.195	193.31
465.414	213.31
465.634	211.31
465.854	211.31
466.073	188.31
466.293	177.31
466.512	184.31
466.732	204.31
466.951	211.31
467.171	203.31
467.391	196.31
467.61	188.31
467.829	187.31
468.049	204.31
468.268	184.31
468.488	186.31
468.707	189.31
468.927	201.31
469.146	215.31
469.365	213.31
469.585	186.31
469.804	203.31
470.023	224.31
470.243	222.31
470.462	194.31
470.681	188.31
470.901	186.31
471.12	198.31
471.339	195.31
471.558	181.31
471.777	176.31
471.997	205.31
472.216	234.31
472.435	230.31
472.654	225.31
472.873	211.31
473.092	206.31
473.311	204.31
473.53	206.31
473.749	207.31
473.968	194.31
474.187	198.31
474.406	192.31
474.625	195.31
474.844	197.31
475.063	199.31
475.282	194.31
475.501	224.31
475.72	274.31
475.939	224.31
476.158	225.31
476.377	257.31
476.596	277.31
476.814	309.31
477.033	261.31
477.252	218.31
477.471	187.31
477.69	207.31
477.908	220.31
478.127	223.31
478.346	216.31
478.564	244.31
478.783	226.31
479.002	220.31
479.22	240.31
479.439	272.31
479.658	224.31
479.876	203.31
480.095	220.31
480.313	242.31
480.532	227.31
480.751	223.31
480.969	221.31
481.188	251.31
481.406	242.31
481.624	248.31
481.843	219.31
482.061	209.31
482.28	235.31
482.498	292.31
482.717	275.31
482.935	233.31
483.153	223.31
483.372	187.31
483.59	214.31
483.808	197.31
484.027	207.31
484.245	192.31
484.463	196.31
484.681	198.31
484.9	201.31
485.118	235.31
485.336	212.31
485.554	201.31
485.772	196.31
485.99	230.31
486.209	256.31
486.427	240.31
486.645	233.31
486.863	233.31
487.081	224.31
487.299	263.31
487.517	267.31
487.735	232.31
487.953	244.31
488.171	233.31
488.389	217.31
488.607	209.31
488.825	221.31
489.043	235.31
489.261	292.31
489.479	291.31
489.696	239.31
489.914	230.31
490.132	196.31
490.35	203.31
490.568	233.31
490.786	217.31
491.003	202.31
491.221	219.31
491.439	215.31
491.657	209.31
491.874	227.31
492.092	278.31
492.31	336.31
492.527	313.31
492.745	264.31
492.963	241.31
493.18	228.31
493.398	249.31
493.615	245.31
493.833	227.31
494.05	242.31
494.268	249.31
494.485	248.31
494.703	210.31
494.92	228.31
495.138	212.31
495.355	248.31
495.573	232.31
495.79	255.31
496.008	355.31
496.225	285.31
496.442	248.31
496.66	258.31
496.877	266.31
497.094	259.31
497.312	234.31
497.529	251.31
497.746	248.31
497.963	246.31
498.181	273.31
498.398	275.31
498.615	301.31
498.832	321.31
499.049	323.31
499.267	290.31
499.484	270.31
499.701	289.31
499.918	313.31
500.135	349.31
500.352	361.31
500.569	380.31
500.786	386.31
501.003	365.31
501.22	324.31
501.437	310.31
501.654	312.31
501.871	291.31
502.088	295.31
502.305	262.31
502.522	275.31
502.739	263.31
502.956	252.31
503.172	264.31
503.389	249.31
503.606	223.31
503.823	259.31
504.04	237.31
504.256	250.31
504.473	251.31
504.69	263.31
504.907	247.31
505.123	261.31
505.34	275.31
505.557	268.31
505.773	252.31
505.99	244.31
506.207	255.31
506.423	244.31
506.64	236.31
506.856	237.31
507.073	273.31
507.289	261.31
507.506	246.31
507.722	261.31
507.939	244.31
508.155	275.31
508.372	259.31
508.588	239.31
508.805	253.31
509.021	236.31
509.238	239.31
509.454	214.31
509.67	233.31
509.887	228.31
510.103	260.31
510.319	249.31
510.536	234.31
510.752	223.31
510.968	200.31
511.184	203.31
511.401	193.31
511.617	205.31
511.833	204.31
512.049	203.31
512.265	211.31
512.481	229.31
512.698	239.31
512.914	274.31
513.13	229.31
513.346	221.31
513.562	238.31
513.778	228.31
513.994	224.31
514.21	265.31
514.426	252.31
514.642	219.31
514.858	230.31
515.074	222.31
515.29	232.31
515.506	275.31
515.721	250.31
515.937	258.31
516.153	232.31
516.369	237.31
516.585	228.31
516.801	269.31
517.016	303.31
517.232	289.31
517.448	281.31
517.664	277.31
517.879	250.31
518.095	265.31
518.311	259.31
518.527	259.31
518.742	266.31
518.958	276.31
519.173	243.31
519.389	260.31
519.605	276.31
519.82	294.31
520.036	318.31
520.251	307.31
520.467	305.31
520.682	475.31
520.898	560.31
521.113	552.31
521.329	345.31
521.544	291.31
521.76	300.31
521.975	268.31
522.19	263.31
522.406	264.31
522.621	280.31
522.836	298.31
523.052	312.31
523.267	251.31
523.482	252.31
523.698	273.31
523.913	259.31
524.128	234.31
524.343	223.31
524.559	233.31
524.774	236.31
524.989	230.31
525.204	235.31
525.419	257.31
525.634	251.31
525.849	243.31
526.064	242.31
526.28	256.31
526.495	284.31
526.71	308.31
526.925	282.31
527.14	287.31
527.355	287.31
527.57	220.31
527.785	253.31
527.999	232.31
528.214	226.31
528.429	195.31
528.644	224.31
528.859	198.31
529.074	196.31
529.289	201.31
529.503	194.31
529.718	217.31
529.933	262.31
530.148	270.31
530.363	215.31
530.577	219.31
530.792	206.31
531.007	191.31
531.221	204.31
531.436	200.31
531.651	194.31
531.865	205.31
532.08	198.31
532.295	220.31
532.509	224.31
532.724	250.31
532.938	263.31
533.153	324.31
533.367	235.31
533.582	245.31
533.796	215.31
534.011	227.31
534.225	215.31
534.44	221.31
534.654	240.31
534.868	277.31
535.083	263.31
535.297	212.31
535.511	211.31
535.726	207.31
535.94	218.31
536.154	211.31
536.369	215.31
536.583	200.31
536.797	208.31
537.011	220.31
537.225	236.31
537.44	237.31
537.654	219.31
537.868	215.31
538.082	200.31
538.296	181.31
538.51	229.31
538.724	219.31
538.938	198.31
539.153	219.31
539.367	197.31
539.581	193.31
539.795	214.31
540.009	235.31
540.222	211.31
540.436	209.31
540.65	224.31
540.864	246.31
541.078	259.31
541.292	284.31
541.506	231.31
541.72	226.31
541.934	209.31
542.147	212.31
542.361	226.31
542.575	219.31
542.789	224.31
543.002	203.31
543.216	237.31
543.43	212.31
543.644	192.31
543.857	202.31
544.071	208.31
544.285	205.31
544.498	185.31
544.712	203.31
544.925	210.31
545.139	198.31
545.352	187.31
545.566	202.31
545.779	229.31
545.993	202.31
546.206	183.31
546.42	189.31
546.633	202.31
546.847	189.31
547.06	174.31
547.274	171.31
547.487	177.31
547.7	184.31
547.914	193.31
548.127	218.31
548.34	222.31
548.554	203.31
548.767	197.31
548.98	228.31
549.193	206.31
549.407	215.31
549.62	239.31
549.833	223.31
550.046	226.31
550.259	227.31
550.473	227.31
550.686	210.31
550.899	208.31
551.112	212.31
551.325	220.31
551.538	205.31
551.751	202.31
551.964	184.31
552.177	189.31
552.39	179.31
552.603	199.31
552.816	207.31
553.029	191.31
553.242	193.31
553.455	189.31
553.667	200.31
553.88	199.31
554.093	194.31
554.306	190.31
554.519	186.31
554.732	184.31
554.944	168.31
555.157	157.31
555.37	170.31
555.583	163.31
555.795	211.31
556.008	169.31
556.221	179.31
556.433	184.31
556.646	168.31
556.859	168.31
557.071	195.31
557.284	191.31
557.496	180.31
557.709	196.31
557.921	166.31
558.134	179.31
558.346	166.31
558.559	161.31
558.771	165.31
558.984	178.31
559.196	165.31
559.409	172.31
559.621	169.31
559.833	164.31
560.046	162.31
560.258	164.31
560.47	184.31
560.683	153.31
560.895	170.31
561.107	159.31
561.32	158.31
561.532	175.31
561.744	161.31
561.956	178.31
562.168	170.31
562.381	165.31
562.593	164.31
562.805	183.31
563.017	161.31
563.229	165.31
563.441	165.31
563.653	160.31
563.865	157.31
564.077	170.31
564.289	167.31
564.501	196.31
564.713	186.31
564.925	154.31
565.137	162.31
565.349	160.31
565.561	163.31
565.773	157.31
565.985	168.31
566.197	169.31
566.408	194.31
566.62	201.31
566.832	208.31
567.044	186.31
567.255	180.31
567.467	204.31
567.679	202.31
567.891	194.31
568.102	218.31
568.314	196.31
568.526	183.31
568.737	179.31
568.949	203.31
569.161	176.31
569.372	150.31
569.584	164.31
569.795	153.31
570.007	169.31
570.218	170.31
570.43	169.31
570.641	171.31
570.853	168.31
571.064	168.31
571.276	161.31
571.487	161.31
571.698	163.31
571.91	171.31
572.121	168.31
572.333	158.31
572.544	146.31
572.755	175.31
572.966	154.31
573.178	151.31
573.389	166.31
573.6	154.31
573.811	148.31
574.023	154.31
574.234	145.31
574.445	155.31
574.656	157.31
574.867	155.31
575.078	152.31
575.289	164.31
575.501	169.31
575.712	156.31
575.923	142.31
576.134	147.31
576.345	147.31
576.556	159.31
576.767	143.31
576.978	151.31
577.188	133.31
577.399	152.31
577.61	122.31
577.821	140.31
578.032	138.31
578.243	161.31
578.454	136.31
578.665	162.31
578.875	161.31
579.086	145.31
579.297	159.31
579.508	154.31
579.718	136.31
579.929	135.31
580.14	147.31
580.35	150.31
580.561	141.31
580.772	149.31
580.982	142.31
581.193	135.31
581.403	140.31
581.614	147.31
581.825	152.31
582.035	140.31
582.246	109.31
582.456	133.31
582.667	147.31
582.877	138.31
583.087	128.31
583.298	142.31
583.508	135.31
583.719	125.31
583.929	136.31
584.139	128.31
584.35	123.31
584.56	134.31
584.77	117.31
584.981	140.31
585.191	121.31
585.401	139.31
585.611	148.31
585.821	157.31
586.032	140.31
586.242	129.31
586.452	131.31
586.662	141.31
586.872	138.31
587.082	142.31
587.292	147.31
587.502	145.31
587.713	142.31
587.923	150.31
588.133	148.31
588.343	151.31
588.553	135.31
588.762	120.31
588.972	128.31
589.182	128.31
589.392	123.31
589.602	135.31
589.812	142.31
590.022	149.31
590.232	147.31
590.441	125.31
590.651	138.31
590.861	130.31
591.071	127.31
591.281	128.31
591.49	140.31
591.7	147.31
591.91	130.31
592.119	139.31
592.329	132.31
592.539	141.31
592.748	138.31
592.958	129.31
593.167	120.31
593.377	134.31
593.587	137.31
593.796	131.31
594.006	150.31
594.215	125.31
594.424	131.31
594.634	140.31
594.843	134.31
595.053	139.31
595.262	147.31
595.472	123.31
595.681	131.31
595.89	142.31
596.1	137.31
596.309	132.31
596.518	124.31
596.727	127.31
596.937	123.31
597.146	127.31
597.355	135.31
597.564	135.31
597.774	121.31
597.983	116.31
598.192	128.31
598.401	130.31
598.61	131.31
598.819	131.31
599.028	131.31
599.237	130.31
599.446	116.31
599.655	132.31
599.864	127.31
600.073	121.31
600.282	139.31
600.491	117.31
600.7	121.31
600.909	118.31
601.118	115.31
601.327	120.31
601.536	124.31
601.745	130.31
601.953	126.31
602.162	125.31
602.371	135.31
602.58	137.31
602.789	127.31
602.997	132.31
603.206	127.31
603.415	109.31
603.623	114.31
603.832	118.31
604.041	115.31
604.249	132.31
604.458	123.31
604.666	125.31
604.875	126.31
605.084	121.31
605.292	107.31
605.501	135.31
605.709	126.31
605.918	118.31
606.126	111.31
606.334	123.31
606.543	121.31
606.751	117.31
606.96	116.31
607.168	103.31
607.376	109.31
607.585	122.31
607.793	111.31
608.001	119.31
608.21	123.31
608.418	121.31
608.626	128.31
608.834	106.31
609.043	111.31
609.251	119.31
609.459	117.31
609.667	131.31
609.875	123.31
610.083	111.31
610.291	124.31
610.499	124.31
610.707	132.31
610.916	125.31
611.124	118.31
611.332	117.31
611.54	111.31
611.748	124.31
611.955	120.31
612.163	106.31
612.371	116.31
612.579	105.31
612.787	122.31
612.995	103.31
613.203	120.31
613.411	107.31
613.618	117.31
613.826	125.31
614.034	102.31
614.242	115.31
614.449	119.31
614.657	122.31
614.865	122.31
615.072	122.31
615.28	102.31
615.488	114.31
615.695	106.31
615.903	121.31
616.111	124.31
616.318	121.31
616.526	108.31
616.733	108.31
616.941	117.31
617.148	108.31
617.356	118.31
617.563	114.31
617.771	113.31
617.978	127.31
618.185	124.31
618.393	115.31
618.6	114.31
618.807	117.31
619.015	113.31
619.222	100.31
619.429	121.31
619.637	103.31
619.844	115.31
620.051	117.31
620.258	108.31
620.466	103.31
620.673	111.31
620.88	99.31
621.087	123.31
621.294	121.31
621.501	112.31
621.708	119.31
621.915	108.31
622.122	107.31
622.329	112.31
622.536	100.31
622.743	100.31
622.95	106.31
623.157	117.31
623.364	115.31
623.571	111.31
623.778	119.31
623.985	118.31
624.192	100.31
624.399	106.31
624.606	114.31
624.812	117.31
625.019	112.31
625.226	125.31
625.433	121.31
625.639	107.31
625.846	109.31
626.053	106.31
626.259	106.31
626.466	107.31
626.673	111.31
626.879	108.31
627.086	115.31
627.293	107.31
627.499	104.31
627.706	101.31
627.912	94.31
628.119	99.31
628.325	106.31
628.532	109.31
628.738	122.31
628.945	109.31
629.151	100.31
629.357	118.31
629.564	96.31
629.77	106.31
629.976	119.31
630.183	108.31
630.389	120.31
630.595	100.31
630.802	90.31
631.008	109.31
631.214	103.31
631.42	98.31
631.627	115.31
631.833	101.31
632.039	113.31
632.245	105.31
632.451	91.31
632.657	98.31
632.863	120.31
633.069	112.31
633.275	107.31
633.481	102.31
633.688	104.31
633.893	105.31
634.099	114.31
634.305	106.31
634.511	103.31
634.717	105.31
634.923	94.31
635.129	91.31
635.335	92.31
635.541	96.31
635.747	119.31
635.952	115.31
636.158	96.31
636.364	99.31
636.57	100.31
636.775	104.31
636.981	101.31
637.187	94.31
637.392	102.31
637.598	104.31
637.804	96.31
638.009	107.31
638.215	102.31
638.421	92.31
638.626	97.31
638.832	83.31
639.037	88.31
639.243	95.31
639.448	93.31
639.654	98.31
639.859	103.31
640.065	105.31
640.27	108.31
640.475	96.31
640.681	98.31
640.886	98.31
641.091	101.31
641.297	97.31
641.502	112.31
641.707	101.31
641.913	96.31
642.118	92.31
642.323	102.31
642.528	103.31
642.733	97.31
642.939	113.31
643.144	91.31
643.349	98.31
643.554	91.31
643.759	101.31
643.964	89.31
644.169	96.31
644.374	100.31
644.579	95.31
644.784	104.31
644.989	81.31
645.194	103.31
645.399	104.31
645.604	107.31
645.809	104.31
646.014	86.31
646.219	98.31
646.423	95.31
646.628	104.31
646.833	102.31
647.038	112.31
647.243	98.31
647.447	102.31
647.652	100.31
647.857	101.31
648.062	93.31
648.266	101.31
648.471	86.31
648.676	102.31
648.88	97.31
649.085	86.31
649.289	87.31
649.494	84.31
649.698	114.31
649.903	107.31
650.107	104.31
650.312	100.31
650.516	108.31
650.721	123.31
650.925	91.31
651.13	93.31
651.334	95.31
651.539	100.31
651.743	90.31
651.947	83.31
652.152	97.31
652.356	103.31
652.56	88.31
652.764	89.31
652.969	103.31
653.173	98.31
653.377	85.31
653.581	82.31
653.785	92.31
653.99	101.31
654.194	92.31
654.398	92.31
654.602	112.31
654.806	97.31
655.01	80.31
655.214	112.31
655.418	115.31
655.622	112.31
655.826	99.31
656.03	102.31
656.234	89.31
656.438	87.31
656.642	96.31
656.846	101.31
657.049	90.31
657.253	92.31
657.457	84.31
657.661	95.31
657.865	102.31
658.068	82.31
658.272	80.31
658.476	97.31
658.68	97.31
658.883	77.31
659.087	82.31
659.291	75.31
659.494	101.31
659.698	71.31
659.901	92.31
660.105	84.31
660.309	80.31
660.512	90.31
660.716	77.31
660.919	88.31
661.123	86.31
661.326	81.31
661.53	82.31
661.733	85.31
661.936	86.31
662.14	72.31
662.343	62.31
662.546	87.31
662.75	88.31
662.953	90.31
663.156	81.31
663.36	85.31
663.563	87.31
663.766	72.31
663.969	86.31
664.173	83.31
664.376	76.31
664.579	67.31
664.782	79.31
664.985	77.31
665.188	77.31
665.391	75.31
665.594	82.31
665.797	75.31
666	71.31
666.203	84.31
666.406	82.31
666.609	80.31
666.812	92.31
667.015	78.31
667.218	79.31
667.421	83.31
667.624	82.31
667.827	87.31
668.03	84.31
668.232	87.31
668.435	87.31
668.638	76.31
668.841	87.31
669.043	81.31
669.246	87.31
669.449	97.31
669.651	80.31
669.854	86.31
670.057	86.31
670.259	77.31
670.462	92.31
670.665	83.31
670.867	74.31
671.07	73.31
671.272	81.31
671.475	92.31
671.677	76.31
671.88	72.31
672.082	77.31
672.284	91.31
672.487	82.31
672.689	86.31
672.892	63.31
