Data from NickelSpatula_HRD10591_16-35-37-126.txt Node
Date: Mon Jul 22 16:35:37 EDT 2019
User: cochatt
Spectrometer: HR+D1059
Trigger mode: 1
Integration Time (sec): 1.000000E-1
Scans to average: 1
Electric dark correction enabled: true
Nonlinearity correction enabled: false
Boxcar width: 0
XAxis mode: Wavelengths
Number of Pixels in Spectrum: 2048
>>>>>Begin Spectral Data<<<<<
223.165	-8.69
223.4	-8.69
223.635	-8.69
223.869	-21.69
224.104	-22.69
224.338	-14.69
224.573	-16.69
224.808	-17.69
225.042	-18.69
225.277	2.31
225.511	0.31
225.746	10.31
225.98	14.31
226.215	1.31
226.449	26.31
226.683	22.31
226.918	13.31
227.152	30.31
227.387	47.31
227.621	39.31
227.856	37.31
228.09	43.31
228.324	61.31
228.559	75.31
228.793	55.31
229.027	80.31
229.262	78.31
229.496	80.31
229.73	77.31
229.964	81.31
230.199	98.31
230.433	89.31
230.667	96.31
230.901	91.31
231.136	89.31
231.37	96.31
231.604	98.31
231.838	108.31
232.072	102.31
232.306	106.31
232.541	111.31
232.775	104.31
233.009	90.31
233.243	105.31
233.477	109.31
233.711	126.31
233.945	129.31
234.179	124.31
234.413	121.31
234.647	124.31
234.881	130.31
235.115	116.31
235.349	136.31
235.583	119.31
235.817	127.31
236.051	112.31
236.285	127.31
236.519	136.31
236.753	139.31
236.987	143.31
237.221	122.31
237.455	129.31
237.689	136.31
237.922	127.31
238.156	125.31
238.39	131.31
238.624	152.31
238.858	145.31
239.091	140.31
239.325	143.31
239.559	135.31
239.793	112.31
240.027	140.31
240.26	146.31
240.494	135.31
240.728	144.31
240.961	152.31
241.195	160.31
241.429	161.31
241.662	147.31
241.896	144.31
242.13	141.31
242.363	140.31
242.597	130.31
242.83	157.31
243.064	145.31
243.298	143.31
243.531	173.31
243.765	146.31
243.998	153.31
244.232	142.31
244.465	145.31
244.699	138.31
244.932	165.31
245.166	148.31
245.399	147.31
245.633	132.31
245.866	139.31
246.099	164.31
246.333	177.31
246.566	175.31
246.8	177.31
247.033	201.31
247.266	162.31
247.5	169.31
247.733	165.31
247.966	156.31
248.2	156.31
248.433	170.31
248.666	172.31
248.899	179.31
249.133	168.31
249.366	180.31
249.599	197.31
249.832	200.31
250.066	183.31
250.299	181.31
250.532	174.31
250.765	169.31
250.998	158.31
251.231	163.31
251.465	172.31
251.698	194.31
251.931	175.31
252.164	189.31
252.397	177.31
252.63	224.31
252.863	217.31
253.096	229.31
253.329	220.31
253.562	210.31
253.795	247.31
254.028	260.31
254.261	281.31
254.494	249.31
254.727	209.31
254.96	217.31
255.193	238.31
255.426	229.31
255.659	177.31
255.892	168.31
256.124	174.31
256.357	217.31
256.59	229.31
256.823	233.31
257.056	199.31
257.289	194.31
257.521	200.31
257.754	220.31
257.987	246.31
258.22	226.31
258.452	204.31
258.685	231.31
258.918	246.31
259.151	233.31
259.383	247.31
259.616	276.31
259.849	259.31
260.081	289.31
260.314	313.31
260.547	269.31
260.779	277.31
261.012	301.31
261.244	286.31
261.477	303.31
261.71	263.31
261.942	230.31
262.175	227.31
262.407	226.31
262.64	227.31
262.872	276.31
263.105	277.31
263.337	294.31
263.57	278.31
263.802	208.31
264.035	194.31
264.267	166.31
264.499	165.31
264.732	166.31
264.964	173.31
265.197	163.31
265.429	177.31
265.661	163.31
265.894	189.31
266.126	192.31
266.358	204.31
266.591	246.31
266.823	287.31
267.055	257.31
267.287	249.31
267.52	248.31
267.752	250.31
267.984	267.31
268.216	244.31
268.448	228.31
268.681	216.31
268.913	239.31
269.145	234.31
269.377	265.31
269.609	253.31
269.841	237.31
270.073	240.31
270.306	255.31
270.538	281.31
270.77	256.31
271.002	264.31
271.234	282.31
271.466	280.31
271.698	260.31
271.93	258.31
272.162	248.31
272.394	258.31
272.626	244.31
272.858	268.31
273.09	260.31
273.322	219.31
273.553	233.31
273.785	274.31
274.017	320.31
274.249	374.31
274.481	386.31
274.713	416.31
274.945	470.31
275.176	496.31
275.408	444.31
275.64	417.31
275.872	415.31
276.104	356.31
276.335	337.31
276.567	338.31
276.799	359.31
277.031	348.31
277.262	274.31
277.494	232.31
277.726	216.31
277.957	243.31
278.189	274.31
278.421	257.31
278.652	264.31
278.884	235.31
279.115	235.31
279.347	220.31
279.579	250.31
279.81	223.31
280.042	222.31
280.273	228.31
280.505	224.31
280.736	206.31
280.968	196.31
281.199	211.31
281.431	226.31
281.662	234.31
281.894	244.31
282.125	253.31
282.356	251.31
282.588	259.31
282.819	219.31
283.051	266.31
283.282	294.31
283.513	328.31
283.745	340.31
283.976	333.31
284.207	333.31
284.439	330.31
284.67	332.31
284.901	285.31
285.132	304.31
285.364	338.31
285.595	310.31
285.826	328.31
286.057	340.31
286.288	322.31
286.52	330.31
286.751	354.31
286.982	352.31
287.213	297.31
287.444	301.31
287.675	301.31
287.906	295.31
288.138	271.31
288.369	248.31
288.6	245.31
288.831	249.31
289.062	280.31
289.293	295.31
289.524	290.31
289.755	280.31
289.986	286.31
290.217	274.31
290.448	207.31
290.679	199.31
290.91	185.31
291.141	176.31
291.371	190.31
291.602	199.31
291.833	174.31
292.064	204.31
292.295	224.31
292.526	258.31
292.757	241.31
292.987	274.31
293.218	271.31
293.449	285.31
293.68	308.31
293.91	293.31
294.141	280.31
294.372	276.31
294.603	257.31
294.833	277.31
295.064	329.31
295.295	281.31
295.525	238.31
295.756	218.31
295.987	201.31
296.217	192.31
296.448	175.31
296.679	185.31
296.909	212.31
297.14	222.31
297.37	244.31
297.601	235.31
297.831	205.31
298.062	234.31
298.292	246.31
298.523	264.31
298.753	303.31
298.984	281.31
299.214	225.31
299.445	189.31
299.675	195.31
299.905	171.31
300.136	203.31
300.366	192.31
300.597	216.31
300.827	182.31
301.057	192.31
301.288	186.31
301.518	194.31
301.748	226.31
301.979	214.31
302.209	236.31
302.439	239.31
302.669	212.31
302.9	222.31
303.13	210.31
303.36	208.31
303.59	195.31
303.82	205.31
304.051	209.31
304.281	229.31
304.511	231.31
304.741	224.31
304.971	225.31
305.201	234.31
305.431	215.31
305.661	189.31
305.891	189.31
306.121	197.31
306.352	194.31
306.582	186.31
306.812	157.31
307.042	156.31
307.272	151.31
307.502	166.31
307.731	167.31
307.961	165.31
308.191	166.31
308.421	152.31
308.651	156.31
308.881	164.31
309.111	178.31
309.341	168.31
309.571	165.31
309.8	186.31
310.03	168.31
310.26	186.31
310.49	180.31
310.72	190.31
310.949	165.31
311.179	171.31
311.409	169.31
311.639	191.31
311.868	221.31
312.098	296.31
312.328	308.31
312.557	312.31
312.787	309.31
313.017	266.31
313.246	283.31
313.476	327.31
313.706	281.31
313.935	229.31
314.165	195.31
314.394	174.31
314.624	189.31
314.853	188.31
315.083	189.31
315.312	179.31
315.542	166.31
315.771	183.31
316.001	161.31
316.23	158.31
316.46	172.31
316.689	165.31
316.919	160.31
317.148	173.31
317.377	158.31
317.607	170.31
317.836	186.31
318.065	201.31
318.295	209.31
318.524	208.31
318.753	187.31
318.983	185.31
319.212	176.31
319.441	185.31
319.67	196.31
319.9	227.31
320.129	199.31
320.358	176.31
320.587	163.31
320.816	170.31
321.046	198.31
321.275	201.31
321.504	210.31
321.733	223.31
321.962	214.31
322.191	193.31
322.42	178.31
322.649	187.31
322.878	206.31
323.108	224.31
323.337	202.31
323.566	190.31
323.795	171.31
324.024	184.31
324.253	190.31
324.482	184.31
324.71	190.31
324.939	185.31
325.168	198.31
325.397	162.31
325.626	169.31
325.855	154.31
326.084	181.31
326.313	173.31
326.542	172.31
326.77	157.31
326.999	159.31
327.228	165.31
327.457	169.31
327.686	172.31
327.914	152.31
328.143	174.31
328.372	165.31
328.6	169.31
328.829	160.31
329.058	159.31
329.287	151.31
329.515	161.31
329.744	180.31
329.972	160.31
330.201	155.31
330.43	161.31
330.658	172.31
330.887	194.31
331.115	176.31
331.344	180.31
331.572	180.31
331.801	160.31
332.03	154.31
332.258	159.31
332.486	165.31
332.715	177.31
332.943	172.31
333.172	175.31
333.4	183.31
333.629	188.31
333.857	198.31
334.085	198.31
334.314	204.31
334.542	201.31
334.771	165.31
334.999	175.31
335.227	165.31
335.455	177.31
335.684	184.31
335.912	228.31
336.14	220.31
336.369	219.31
336.597	216.31
336.825	220.31
337.053	268.31
337.281	208.31
337.51	174.31
337.738	181.31
337.966	184.31
338.194	193.31
338.422	201.31
338.65	180.31
338.878	159.31
339.106	158.31
339.334	197.31
339.562	185.31
339.79	188.31
340.018	169.31
340.246	177.31
340.474	210.31
340.702	216.31
340.93	206.31
341.158	205.31
341.386	191.31
341.614	206.31
341.842	175.31
342.07	194.31
342.298	220.31
342.526	217.31
342.754	201.31
342.981	190.31
343.209	193.31
343.437	197.31
343.665	192.31
343.893	198.31
344.12	216.31
344.348	248.31
344.576	229.31
344.804	205.31
345.031	160.31
345.259	163.31
345.487	166.31
345.714	173.31
345.942	193.31
346.17	205.31
346.397	186.31
346.625	172.31
346.853	178.31
347.08	165.31
347.308	183.31
347.535	210.31
347.763	193.31
347.99	185.31
348.218	169.31
348.445	191.31
348.673	152.31
348.9	192.31
349.128	187.31
349.355	189.31
349.583	185.31
349.81	173.31
350.037	178.31
350.265	152.31
350.492	150.31
350.72	146.31
350.947	158.31
351.174	136.31
351.402	175.31
351.629	170.31
351.856	178.31
352.083	172.31
352.311	188.31
352.538	191.31
352.765	197.31
352.992	190.31
353.22	180.31
353.447	190.31
353.674	162.31
353.901	161.31
354.128	165.31
354.355	178.31
354.583	175.31
354.81	197.31
355.037	192.31
355.264	186.31
355.491	185.31
355.718	199.31
355.945	200.31
356.172	195.31
356.399	186.31
356.626	209.31
356.853	270.31
357.08	270.31
357.307	244.31
357.534	217.31
357.761	224.31
357.988	261.31
358.215	284.31
358.441	282.31
358.668	255.31
358.895	243.31
359.122	192.31
359.349	187.31
359.576	196.31
359.802	182.31
360.029	175.31
360.256	183.31
360.483	200.31
360.709	251.31
360.936	252.31
361.163	234.31
361.39	186.31
361.616	176.31
361.843	201.31
362.07	228.31
362.296	213.31
362.523	180.31
362.749	170.31
362.976	170.31
363.203	183.31
363.429	197.31
363.656	186.31
363.882	172.31
364.109	180.31
364.335	197.31
364.562	196.31
364.788	182.31
365.015	213.31
365.241	180.31
365.468	182.31
365.694	166.31
365.92	150.31
366.147	156.31
366.373	152.31
366.599	149.31
366.826	142.31
367.052	142.31
367.278	154.31
367.505	146.31
367.731	155.31
367.957	180.31
368.184	174.31
368.41	181.31
368.636	198.31
368.862	182.31
369.089	180.31
369.315	159.31
369.541	161.31
369.767	144.31
369.993	158.31
370.219	184.31
370.445	157.31
370.672	174.31
370.898	180.31
371.124	184.31
371.35	164.31
371.576	154.31
371.802	172.31
372.028	187.31
372.254	222.31
372.48	192.31
372.706	180.31
372.932	186.31
373.158	186.31
373.384	212.31
373.61	236.31
373.835	265.31
374.061	199.31
374.287	178.31
374.513	213.31
374.739	246.31
374.965	225.31
375.191	236.31
375.416	200.31
375.642	175.31
375.868	206.31
376.094	186.31
376.319	178.31
376.545	191.31
376.771	223.31
376.997	172.31
377.222	143.31
377.448	148.31
377.674	150.31
377.899	151.31
378.125	169.31
378.35	144.31
378.576	145.31
378.802	147.31
379.027	158.31
379.253	164.31
379.478	158.31
379.704	172.31
379.929	194.31
380.155	196.31
380.38	183.31
380.606	191.31
380.831	195.31
381.057	193.31
381.282	175.31
381.507	191.31
381.733	231.31
381.958	225.31
382.184	253.31
382.409	252.31
382.634	244.31
382.86	261.31
383.085	223.31
383.31	202.31
383.535	207.31
383.761	215.31
383.986	198.31
384.211	207.31
384.436	209.31
384.662	181.31
384.887	175.31
385.112	184.31
385.337	183.31
385.562	181.31
385.787	184.31
386.013	192.31
386.238	206.31
386.463	194.31
386.688	185.31
386.913	168.31
387.138	172.31
387.363	176.31
387.588	181.31
387.813	198.31
388.038	198.31
388.263	177.31
388.488	165.31
388.713	197.31
388.938	206.31
389.163	190.31
389.387	174.31
389.612	182.31
389.837	169.31
390.062	174.31
390.287	159.31
390.512	166.31
390.736	191.31
390.961	168.31
391.186	176.31
391.411	161.31
391.636	175.31
391.86	170.31
392.085	181.31
392.31	184.31
392.534	170.31
392.759	181.31
392.984	184.31
393.208	169.31
393.433	142.31
393.658	169.31
393.882	150.31
394.107	163.31
394.331	164.31
394.556	166.31
394.78	166.31
395.005	165.31
395.229	173.31
395.454	153.31
395.678	167.31
395.903	169.31
396.127	161.31
396.352	169.31
396.576	173.31
396.801	184.31
397.025	188.31
397.249	210.31
397.474	150.31
397.698	181.31
397.922	176.31
398.147	165.31
398.371	165.31
398.595	197.31
398.82	181.31
399.044	193.31
399.268	184.31
399.492	197.31
399.717	191.31
399.941	184.31
400.165	189.31
400.389	205.31
400.613	190.31
400.837	181.31
401.062	165.31
401.286	176.31
401.51	162.31
401.734	171.31
401.958	174.31
402.182	160.31
402.406	167.31
402.63	182.31
402.854	173.31
403.078	199.31
403.302	236.31
403.526	264.31
403.75	226.31
403.974	204.31
404.198	204.31
404.422	224.31
404.645	220.31
404.869	234.31
405.093	205.31
405.317	177.31
405.541	169.31
405.765	194.31
405.988	187.31
406.212	188.31
406.436	216.31
406.66	227.31
406.883	200.31
407.107	209.31
407.331	212.31
407.555	224.31
407.778	202.31
408.002	190.31
408.226	200.31
408.449	202.31
408.673	190.31
408.896	177.31
409.12	171.31
409.344	175.31
409.567	167.31
409.791	166.31
410.014	171.31
410.238	164.31
410.461	162.31
410.685	177.31
410.908	153.31
411.132	177.31
411.355	188.31
411.578	177.31
411.802	172.31
412.025	183.31
412.249	184.31
412.472	162.31
412.695	163.31
412.919	169.31
413.142	177.31
413.365	207.31
413.589	193.31
413.812	176.31
414.035	175.31
414.258	184.31
414.482	197.31
414.705	209.31
414.928	184.31
415.151	190.31
415.374	165.31
415.597	196.31
415.821	169.31
416.044	174.31
416.267	170.31
416.49	155.31
416.713	169.31
416.936	173.31
417.159	171.31
417.382	177.31
417.605	165.31
417.828	168.31
418.051	181.31
418.274	191.31
418.497	171.31
418.72	180.31
418.943	187.31
419.166	185.31
419.389	193.31
419.611	205.31
419.834	184.31
420.057	190.31
420.28	212.31
420.503	186.31
420.726	160.31
420.948	164.31
421.171	182.31
421.394	182.31
421.617	164.31
421.839	175.31
422.062	177.31
422.285	187.31
422.507	171.31
422.73	172.31
422.953	172.31
423.175	177.31
423.398	184.31
423.621	193.31
423.843	204.31
424.066	186.31
424.288	175.31
424.511	186.31
424.733	177.31
424.956	188.31
425.178	202.31
425.401	226.31
425.623	245.31
425.846	215.31
426.068	197.31
426.291	222.31
426.513	190.31
426.735	181.31
426.958	194.31
427.18	185.31
427.402	250.31
427.625	233.31
427.847	212.31
428.069	176.31
428.292	162.31
428.514	178.31
428.736	166.31
428.958	185.31
429.181	211.31
429.403	188.31
429.625	172.31
429.847	190.31
430.069	185.31
430.292	177.31
430.514	170.31
430.736	184.31
430.958	194.31
431.18	198.31
431.402	162.31
431.624	168.31
431.846	164.31
432.068	164.31
432.29	166.31
432.512	185.31
432.734	225.31
432.956	201.31
433.178	154.31
433.4	166.31
433.622	166.31
433.844	170.31
434.066	182.31
434.287	172.31
434.509	165.31
434.731	191.31
434.953	175.31
435.175	195.31
435.397	211.31
435.618	192.31
435.84	154.31
436.062	164.31
436.284	177.31
436.505	163.31
436.727	170.31
436.949	162.31
437.17	174.31
437.392	178.31
437.614	171.31
437.835	176.31
438.057	174.31
438.278	188.31
438.5	226.31
438.721	226.31
438.943	184.31
439.165	169.31
439.386	173.31
439.608	152.31
439.829	154.31
440.05	169.31
440.272	163.31
440.493	173.31
440.715	210.31
440.936	190.31
441.158	178.31
441.379	164.31
441.6	186.31
441.822	195.31
442.043	175.31
442.264	172.31
442.486	185.31
442.707	162.31
442.928	178.31
443.149	174.31
443.371	180.31
443.592	187.31
443.813	171.31
444.034	166.31
444.255	188.31
444.476	181.31
444.698	189.31
444.919	177.31
445.14	299.31
445.361	245.31
445.582	209.31
445.803	176.31
446.024	198.31
446.245	182.31
446.466	178.31
446.687	185.31
446.908	184.31
447.129	172.31
447.35	160.31
447.571	173.31
447.792	169.31
448.013	164.31
448.234	158.31
448.455	154.31
448.675	155.31
448.896	163.31
449.117	161.31
449.338	168.31
449.559	167.31
449.779	177.31
450	174.31
450.221	183.31
450.442	163.31
450.662	156.31
450.883	165.31
451.104	171.31
451.324	160.31
451.545	180.31
451.766	158.31
451.986	170.31
452.207	148.31
452.428	165.31
452.648	164.31
452.869	171.31
453.089	187.31
453.31	159.31
453.53	153.31
453.751	155.31
453.971	147.31
454.192	160.31
454.412	159.31
454.633	152.31
454.853	173.31
455.073	169.31
455.294	155.31
455.514	164.31
455.734	152.31
455.955	168.31
456.175	170.31
456.395	159.31
456.616	149.31
456.836	154.31
457.056	146.31
457.276	138.31
457.497	146.31
457.717	138.31
457.937	152.31
458.157	147.31
458.377	157.31
458.598	153.31
458.818	157.31
459.038	151.31
459.258	160.31
459.478	161.31
459.698	177.31
459.918	166.31
460.138	169.31
460.358	189.31
460.578	165.31
460.798	174.31
461.018	166.31
461.238	167.31
461.458	175.31
461.678	188.31
461.898	189.31
462.118	166.31
462.338	192.31
462.558	174.31
462.777	194.31
462.997	193.31
463.217	207.31
463.437	200.31
463.657	204.31
463.876	210.31
464.096	204.31
464.316	183.31
464.536	195.31
464.755	204.31
464.975	199.31
465.195	202.31
465.414	202.31
465.634	193.31
465.854	182.31
466.073	176.31
466.293	158.31
466.512	178.31
466.732	189.31
466.951	196.31
467.171	178.31
467.391	180.31
467.61	161.31
467.829	188.31
468.049	177.31
468.268	170.31
468.488	161.31
468.707	169.31
468.927	190.31
469.146	207.31
469.365	201.31
469.585	173.31
469.804	194.31
470.023	197.31
470.243	192.31
470.462	188.31
470.681	187.31
470.901	167.31
471.12	188.31
471.339	179.31
471.558	180.31
471.777	200.31
471.997	201.31
472.216	215.31
472.435	192.31
472.654	195.31
472.873	191.31
473.092	195.31
473.311	206.31
473.53	170.31
473.749	187.31
473.968	198.31
474.187	187.31
474.406	172.31
474.625	188.31
474.844	171.31
475.063	177.31
475.282	201.31
475.501	202.31
475.72	240.31
475.939	220.31
476.158	197.31
476.377	236.31
476.596	257.31
476.814	264.31
477.033	241.31
477.252	209.31
477.471	183.31
477.69	172.31
477.908	200.31
478.127	208.31
478.346	205.31
478.564	238.31
478.783	223.31
479.002	206.31
479.22	223.31
479.439	242.31
479.658	218.31
479.876	206.31
480.095	241.31
480.313	235.31
480.532	213.31
480.751	209.31
480.969	202.31
481.188	219.31
481.406	225.31
481.624	218.31
481.843	194.31
482.061	186.31
482.28	208.31
482.498	272.31
482.717	256.31
482.935	212.31
483.153	206.31
483.372	198.31
483.59	197.31
483.808	204.31
484.027	196.31
484.245	180.31
484.463	174.31
484.681	205.31
484.9	205.31
485.118	211.31
485.336	182.31
485.554	205.31
485.772	189.31
485.99	212.31
486.209	248.31
486.427	217.31
486.645	209.31
486.863	222.31
487.081	199.31
487.299	248.31
487.517	242.31
487.735	199.31
487.953	224.31
488.171	227.31
488.389	204.31
488.607	196.31
488.825	227.31
489.043	228.31
489.261	245.31
489.479	260.31
489.696	214.31
489.914	212.31
490.132	208.31
490.35	196.31
490.568	207.31
490.786	198.31
491.003	194.31
491.221	196.31
491.439	207.31
491.657	214.31
491.874	216.31
492.092	246.31
492.31	297.31
492.527	290.31
492.745	246.31
492.963	233.31
493.18	221.31
493.398	231.31
493.615	245.31
493.833	214.31
494.05	220.31
494.268	216.31
494.485	203.31
494.703	224.31
494.92	206.31
495.138	221.31
495.355	213.31
495.573	208.31
495.79	240.31
496.008	308.31
496.225	269.31
496.442	223.31
496.66	238.31
496.877	239.31
497.094	236.31
497.312	233.31
497.529	225.31
497.746	216.31
497.963	241.31
498.181	231.31
498.398	256.31
498.615	281.31
498.832	282.31
499.049	286.31
499.267	258.31
499.484	276.31
499.701	282.31
499.918	296.31
500.135	316.31
500.352	332.31
500.569	335.31
500.786	348.31
501.003	343.31
501.22	311.31
501.437	292.31
501.654	266.31
501.871	270.31
502.088	260.31
502.305	245.31
502.522	263.31
502.739	257.31
502.956	250.31
503.172	238.31
503.389	233.31
503.606	230.31
503.823	238.31
504.04	226.31
504.256	252.31
504.473	242.31
504.69	237.31
504.907	234.31
505.123	225.31
505.34	235.31
505.557	228.31
505.773	233.31
505.99	223.31
506.207	229.31
506.423	213.31
506.64	201.31
506.856	236.31
507.073	246.31
507.289	219.31
507.506	230.31
507.722	228.31
507.939	245.31
508.155	246.31
508.372	236.31
508.588	224.31
508.805	211.31
509.021	222.31
509.238	205.31
509.454	221.31
509.67	222.31
509.887	200.31
510.103	231.31
510.319	218.31
510.536	207.31
510.752	198.31
510.968	194.31
511.184	189.31
511.401	211.31
511.617	202.31
511.833	197.31
512.049	200.31
512.265	200.31
512.481	202.31
512.698	229.31
512.914	261.31
513.13	222.31
513.346	206.31
513.562	208.31
513.778	211.31
513.994	212.31
514.21	220.31
514.426	221.31
514.642	204.31
514.858	192.31
515.074	221.31
515.29	220.31
515.506	250.31
515.721	238.31
515.937	221.31
516.153	200.31
516.369	225.31
516.585	209.31
516.801	237.31
517.016	280.31
517.232	266.31
517.448	259.31
517.664	248.31
517.879	248.31
518.095	222.31
518.311	227.31
518.527	225.31
518.742	264.31
518.958	244.31
519.173	239.31
519.389	246.31
519.605	241.31
519.82	242.31
520.036	276.31
520.251	293.31
520.467	277.31
520.682	408.31
520.898	502.31
521.113	486.31
521.329	324.31
521.544	270.31
521.76	274.31
521.975	245.31
522.19	237.31
522.406	232.31
522.621	262.31
522.836	287.31
523.052	270.31
523.267	229.31
523.482	246.31
523.698	249.31
523.913	236.31
524.128	225.31
524.343	222.31
524.559	227.31
524.774	202.31
524.989	221.31
525.204	220.31
525.419	241.31
525.634	229.31
525.849	246.31
526.064	222.31
526.28	235.31
526.495	260.31
526.71	299.31
526.925	239.31
527.14	261.31
527.355	255.31
527.57	218.31
527.785	228.31
527.999	215.31
528.214	205.31
528.429	208.31
528.644	224.31
528.859	216.31
529.074	201.31
529.289	191.31
529.503	210.31
529.718	207.31
529.933	256.31
530.148	249.31
530.363	188.31
530.577	188.31
530.792	218.31
531.007	203.31
531.221	196.31
531.436	190.31
531.651	201.31
531.865	197.31
532.08	193.31
532.295	203.31
532.509	215.31
532.724	229.31
532.938	223.31
533.153	276.31
533.367	223.31
533.582	225.31
533.796	215.31
534.011	199.31
534.225	216.31
534.44	244.31
534.654	216.31
534.868	238.31
535.083	230.31
535.297	211.31
535.511	185.31
535.726	223.31
535.94	190.31
536.154	205.31
536.369	192.31
536.583	184.31
536.797	227.31
537.011	201.31
537.225	216.31
537.44	222.31
537.654	216.31
537.868	198.31
538.082	200.31
538.296	194.31
538.51	205.31
538.724	201.31
538.938	182.31
539.153	203.31
539.367	184.31
539.581	208.31
539.795	206.31
540.009	231.31
540.222	206.31
540.436	203.31
540.65	220.31
540.864	224.31
541.078	232.31
541.292	279.31
541.506	209.31
541.72	206.31
541.934	186.31
542.147	187.31
542.361	202.31
542.575	208.31
542.789	194.31
543.002	185.31
543.216	193.31
543.43	193.31
543.644	168.31
543.857	189.31
544.071	183.31
544.285	171.31
544.498	171.31
544.712	192.31
544.925	192.31
545.139	181.31
545.352	164.31
545.566	175.31
545.779	202.31
545.993	189.31
546.206	176.31
546.42	180.31
546.633	200.31
546.847	191.31
547.06	180.31
547.274	173.31
547.487	186.31
547.7	192.31
547.914	198.31
548.127	200.31
548.34	204.31
548.554	199.31
548.767	210.31
548.98	216.31
549.193	203.31
549.407	194.31
549.62	229.31
549.833	212.31
550.046	213.31
550.259	246.31
550.473	204.31
550.686	192.31
550.899	204.31
551.112	191.31
551.325	205.31
551.538	212.31
551.751	189.31
551.964	190.31
552.177	190.31
552.39	180.31
552.603	177.31
552.816	187.31
553.029	172.31
553.242	181.31
553.455	177.31
553.667	206.31
553.88	205.31
554.093	185.31
554.306	173.31
554.519	162.31
554.732	152.31
554.944	154.31
555.157	172.31
555.37	164.31
555.583	180.31
555.795	155.31
556.008	160.31
556.221	166.31
556.433	188.31
556.646	166.31
556.859	180.31
557.071	183.31
557.284	173.31
557.496	180.31
557.709	191.31
557.921	173.31
558.134	158.31
558.346	167.31
558.559	164.31
558.771	170.31
558.984	171.31
559.196	184.31
559.409	164.31
559.621	158.31
559.833	166.31
560.046	150.31
560.258	156.31
560.47	154.31
560.683	167.31
560.895	150.31
561.107	153.31
561.32	152.31
561.532	161.31
561.744	170.31
561.956	164.31
562.168	163.31
562.381	161.31
562.593	160.31
562.805	168.31
563.017	174.31
563.229	150.31
563.441	140.31
563.653	144.31
563.865	166.31
564.077	169.31
564.289	153.31
564.501	173.31
564.713	171.31
564.925	161.31
565.137	163.31
565.349	176.31
565.561	153.31
565.773	174.31
565.985	149.31
566.197	183.31
566.408	191.31
566.62	185.31
566.832	188.31
567.044	185.31
567.255	190.31
567.467	221.31
567.679	184.31
567.891	175.31
568.102	206.31
568.314	209.31
568.526	175.31
568.737	186.31
568.949	190.31
569.161	173.31
569.372	155.31
569.584	153.31
569.795	153.31
570.007	144.31
570.218	173.31
570.43	154.31
570.641	159.31
570.853	160.31
571.064	159.31
571.276	146.31
571.487	159.31
571.698	158.31
571.91	137.31
572.121	160.31
572.333	166.31
572.544	149.31
572.755	153.31
572.966	139.31
573.178	140.31
573.389	159.31
573.6	145.31
573.811	143.31
574.023	138.31
574.234	138.31
574.445	144.31
574.656	142.31
574.867	135.31
575.078	142.31
575.289	152.31
575.501	150.31
575.712	130.31
575.923	145.31
576.134	143.31
576.345	138.31
576.556	143.31
576.767	143.31
576.978	144.31
577.188	135.31
577.399	142.31
577.61	143.31
577.821	138.31
578.032	128.31
578.243	146.31
578.454	164.31
578.665	163.31
578.875	150.31
579.086	148.31
579.297	154.31
579.508	147.31
579.718	149.31
579.929	151.31
580.14	151.31
580.35	145.31
580.561	123.31
580.772	141.31
580.982	140.31
581.193	125.31
581.403	140.31
581.614	136.31
581.825	123.31
582.035	121.31
582.246	136.31
582.456	135.31
582.667	131.31
582.877	131.31
583.087	128.31
583.298	130.31
583.508	123.31
583.719	137.31
583.929	130.31
584.139	126.31
584.35	124.31
584.56	127.31
584.77	144.31
584.981	137.31
585.191	125.31
585.401	133.31
585.611	130.31
585.821	159.31
586.032	145.31
586.242	126.31
586.452	138.31
586.662	142.31
586.872	139.31
587.082	136.31
587.292	147.31
587.502	139.31
587.713	137.31
587.923	130.31
588.133	144.31
588.343	156.31
588.553	134.31
588.762	148.31
588.972	136.31
589.182	128.31
589.392	127.31
589.602	125.31
589.812	135.31
590.022	155.31
590.232	131.31
590.441	131.31
590.651	127.31
590.861	136.31
591.071	142.31
591.281	143.31
591.49	123.31
591.7	134.31
591.91	132.31
592.119	133.31
592.329	140.31
592.539	126.31
592.748	135.31
592.958	130.31
593.167	128.31
593.377	136.31
593.587	138.31
593.796	156.31
594.006	136.31
594.215	140.31
594.424	128.31
594.634	152.31
594.843	131.31
595.053	134.31
595.262	127.31
595.472	137.31
595.681	118.31
595.89	126.31
596.1	136.31
596.309	130.31
596.518	129.31
596.727	138.31
596.937	145.31
597.146	152.31
597.355	139.31
597.564	134.31
597.774	125.31
597.983	129.31
598.192	125.31
598.401	136.31
598.61	121.31
598.819	119.31
599.028	136.31
599.237	122.31
599.446	105.31
599.655	121.31
599.864	123.31
600.073	103.31
600.282	134.31
600.491	117.31
600.7	135.31
600.909	123.31
601.118	117.31
601.327	130.31
601.536	120.31
601.745	110.31
601.953	124.31
602.162	122.31
602.371	131.31
602.58	136.31
602.789	123.31
602.997	127.31
603.206	127.31
603.415	119.31
603.623	111.31
603.832	124.31
604.041	116.31
604.249	116.31
604.458	125.31
604.666	126.31
604.875	114.31
605.084	120.31
605.292	103.31
605.501	125.31
605.709	127.31
605.918	125.31
606.126	124.31
606.334	117.31
606.543	127.31
606.751	116.31
606.96	116.31
607.168	108.31
607.376	100.31
607.585	124.31
607.793	113.31
608.001	122.31
608.21	116.31
608.418	127.31
608.626	129.31
608.834	125.31
609.043	110.31
609.251	113.31
609.459	117.31
609.667	124.31
609.875	109.31
610.083	108.31
610.291	112.31
610.499	126.31
610.707	124.31
610.916	117.31
611.124	118.31
611.332	122.31
611.54	108.31
611.748	118.31
611.955	104.31
612.163	119.31
612.371	126.31
612.579	97.31
612.787	124.31
612.995	125.31
613.203	118.31
613.411	124.31
613.618	104.31
613.826	114.31
614.034	120.31
614.242	119.31
614.449	107.31
614.657	101.31
614.865	116.31
615.072	113.31
615.28	122.31
615.488	107.31
615.695	121.31
615.903	120.31
616.111	112.31
616.318	110.31
616.526	117.31
616.733	112.31
616.941	116.31
617.148	112.31
617.356	122.31
617.563	113.31
617.771	120.31
617.978	106.31
618.185	129.31
618.393	120.31
618.6	118.31
618.807	111.31
619.015	109.31
619.222	110.31
619.429	112.31
619.637	107.31
619.844	116.31
620.051	113.31
620.258	126.31
620.466	107.31
620.673	124.31
620.88	116.31
621.087	109.31
621.294	122.31
621.501	114.31
621.708	130.31
621.915	102.31
622.122	108.31
622.329	120.31
622.536	106.31
622.743	124.31
622.95	118.31
623.157	126.31
623.364	133.31
623.571	112.31
623.778	110.31
623.985	122.31
624.192	115.31
624.399	113.31
624.606	110.31
624.812	116.31
625.019	108.31
625.226	116.31
625.433	114.31
625.639	106.31
625.846	104.31
626.053	112.31
626.259	109.31
626.466	117.31
626.673	122.31
626.879	107.31
627.086	90.31
627.293	105.31
627.499	105.31
627.706	104.31
627.912	107.31
628.119	112.31
628.325	110.31
628.532	95.31
628.738	124.31
628.945	111.31
629.151	122.31
629.357	100.31
629.564	99.31
629.77	103.31
629.976	107.31
630.183	122.31
630.389	109.31
630.595	104.31
630.802	96.31
631.008	112.31
631.214	107.31
631.42	113.31
631.627	111.31
631.833	113.31
632.039	105.31
632.245	101.31
632.451	93.31
632.657	94.31
632.863	103.31
633.069	105.31
633.275	102.31
633.481	93.31
633.688	104.31
633.893	107.31
634.099	111.31
634.305	112.31
634.511	107.31
634.717	111.31
634.923	111.31
635.129	104.31
635.335	100.31
635.541	119.31
635.747	92.31
635.952	106.31
636.158	102.31
636.364	99.31
636.57	104.31
636.775	91.31
636.981	107.31
637.187	102.31
637.392	89.31
637.598	101.31
637.804	100.31
638.009	101.31
638.215	105.31
638.421	101.31
638.626	120.31
638.832	105.31
639.037	92.31
639.243	104.31
639.448	108.31
639.654	131.31
639.859	108.31
640.065	104.31
640.27	106.31
640.475	102.31
640.681	111.31
640.886	102.31
641.091	96.31
641.297	121.31
641.502	100.31
641.707	118.31
641.913	104.31
642.118	91.31
642.323	101.31
642.528	98.31
642.733	103.31
642.939	98.31
643.144	114.31
643.349	100.31
643.554	109.31
643.759	99.31
643.964	85.31
644.169	112.31
644.374	105.31
644.579	102.31
644.784	109.31
644.989	106.31
645.194	99.31
645.399	99.31
645.604	102.31
645.809	99.31
646.014	86.31
646.219	106.31
646.423	111.31
646.628	97.31
646.833	100.31
647.038	111.31
647.243	89.31
647.447	98.31
647.652	108.31
647.857	102.31
648.062	113.31
648.266	105.31
648.471	105.31
648.676	95.31
648.88	102.31
649.085	97.31
649.289	96.31
649.494	95.31
649.698	111.31
649.903	87.31
650.107	102.31
650.312	100.31
650.516	97.31
650.721	99.31
650.925	104.31
651.13	104.31
651.334	97.31
651.539	89.31
651.743	90.31
651.947	85.31
652.152	97.31
652.356	109.31
652.56	96.31
652.764	96.31
652.969	107.31
653.173	113.31
653.377	111.31
653.581	90.31
653.785	96.31
653.99	96.31
654.194	103.31
654.398	78.31
654.602	85.31
654.806	93.31
655.01	102.31
655.214	97.31
655.418	88.31
655.622	89.31
655.826	90.31
656.03	107.31
656.234	76.31
656.438	95.31
656.642	105.31
656.846	108.31
657.049	74.31
657.253	103.31
657.457	93.31
657.661	97.31
657.865	99.31
658.068	86.31
658.272	84.31
658.476	78.31
658.68	85.31
658.883	97.31
659.087	88.31
659.291	103.31
659.494	75.31
659.698	86.31
659.901	96.31
660.105	101.31
660.309	88.31
660.512	94.31
660.716	101.31
660.919	88.31
661.123	93.31
661.326	64.31
661.53	81.31
661.733	87.31
661.936	86.31
662.14	85.31
662.343	92.31
662.546	92.31
662.75	92.31
662.953	87.31
663.156	90.31
663.36	89.31
663.563	88.31
663.766	96.31
663.969	88.31
664.173	82.31
664.376	88.31
664.579	91.31
664.782	88.31
664.985	92.31
665.188	84.31
665.391	86.31
665.594	81.31
665.797	76.31
666	80.31
666.203	91.31
666.406	82.31
666.609	85.31
666.812	91.31
667.015	77.31
667.218	86.31
667.421	93.31
667.624	93.31
667.827	91.31
668.03	70.31
668.232	83.31
668.435	91.31
668.638	80.31
668.841	75.31
669.043	84.31
669.246	83.31
669.449	90.31
669.651	85.31
669.854	81.31
670.057	80.31
670.259	76.31
670.462	95.31
670.665	81.31
670.867	78.31
671.07	79.31
671.272	73.31
671.475	101.31
671.677	73.31
671.88	89.31
672.082	88.31
672.284	75.31
672.487	87.31
672.689	88.31
672.892	71.31
