Data from NickelSpatula_HRD10591_16-35-38-126.txt Node
Date: Mon Jul 22 16:35:38 EDT 2019
User: cochatt
Spectrometer: HR+D1059
Trigger mode: 1
Integration Time (sec): 1.000000E-1
Scans to average: 1
Electric dark correction enabled: true
Nonlinearity correction enabled: false
Boxcar width: 0
XAxis mode: Wavelengths
Number of Pixels in Spectrum: 2048
>>>>>Begin Spectral Data<<<<<
223.165	-15.81
223.4	-15.81
223.635	-15.81
223.869	-23.81
224.104	-15.81
224.338	-23.81
224.573	-17.81
224.808	-13.81
225.042	-7.81
225.277	0.19
225.511	12.19
225.746	0.19
225.98	9.19
226.215	8.19
226.449	24.19
226.683	28.19
226.918	10.19
227.152	26.19
227.387	22.19
227.621	51.19
227.856	46.19
228.09	44.19
228.324	52.19
228.559	52.19
228.793	61.19
229.027	65.19
229.262	78.19
229.496	82.19
229.73	87.19
229.964	73.19
230.199	79.19
230.433	88.19
230.667	98.19
230.901	86.19
231.136	102.19
231.37	85.19
231.604	109.19
231.838	84.19
232.072	91.19
232.306	106.19
232.541	110.19
232.775	93.19
233.009	107.19
233.243	98.19
233.477	109.19
233.711	117.19
233.945	119.19
234.179	99.19
234.413	109.19
234.647	116.19
234.881	138.19
235.115	122.19
235.349	123.19
235.583	104.19
235.817	108.19
236.051	123.19
236.285	122.19
236.519	134.19
236.753	118.19
236.987	134.19
237.221	130.19
237.455	115.19
237.689	117.19
237.922	140.19
238.156	117.19
238.39	128.19
238.624	148.19
238.858	137.19
239.091	116.19
239.325	136.19
239.559	122.19
239.793	135.19
240.027	165.19
240.26	145.19
240.494	149.19
240.728	146.19
240.961	175.19
241.195	139.19
241.429	154.19
241.662	152.19
241.896	140.19
242.13	120.19
242.363	112.19
242.597	120.19
242.83	151.19
243.064	136.19
243.298	143.19
243.531	150.19
243.765	147.19
243.998	172.19
244.232	153.19
244.465	144.19
244.699	139.19
244.932	162.19
245.166	148.19
245.399	120.19
245.633	146.19
245.866	130.19
246.099	147.19
246.333	142.19
246.566	154.19
246.8	152.19
247.033	154.19
247.266	168.19
247.5	156.19
247.733	157.19
247.966	152.19
248.2	151.19
248.433	160.19
248.666	170.19
248.899	170.19
249.133	169.19
249.366	187.19
249.599	192.19
249.832	179.19
250.066	176.19
250.299	189.19
250.532	174.19
250.765	151.19
250.998	146.19
251.231	142.19
251.465	167.19
251.698	190.19
251.931	184.19
252.164	176.19
252.397	199.19
252.63	198.19
252.863	210.19
253.096	220.19
253.329	218.19
253.562	211.19
253.795	218.19
254.028	264.19
254.261	256.19
254.494	222.19
254.727	222.19
254.96	212.19
255.193	227.19
255.426	198.19
255.659	175.19
255.892	171.19
256.124	186.19
256.357	209.19
256.59	231.19
256.823	233.19
257.056	209.19
257.289	198.19
257.521	193.19
257.754	234.19
257.987	257.19
258.22	215.19
258.452	190.19
258.685	202.19
258.918	233.19
259.151	242.19
259.383	240.19
259.616	269.19
259.849	270.19
260.081	282.19
260.314	301.19
260.547	256.19
260.779	263.19
261.012	292.19
261.244	278.19
261.477	275.19
261.71	253.19
261.942	220.19
262.175	249.19
262.407	233.19
262.64	242.19
262.872	246.19
263.105	280.19
263.337	298.19
263.57	265.19
263.802	196.19
264.035	187.19
264.267	194.19
264.499	171.19
264.732	152.19
264.964	148.19
265.197	165.19
265.429	161.19
265.661	176.19
265.894	178.19
266.126	200.19
266.358	226.19
266.591	233.19
266.823	282.19
267.055	266.19
267.287	234.19
267.52	240.19
267.752	239.19
267.984	280.19
268.216	253.19
268.448	227.19
268.681	228.19
268.913	228.19
269.145	243.19
269.377	248.19
269.609	245.19
269.841	235.19
270.073	258.19
270.306	274.19
270.538	275.19
270.77	256.19
271.002	279.19
271.234	266.19
271.466	269.19
271.698	268.19
271.93	250.19
272.162	233.19
272.394	256.19
272.626	242.19
272.858	270.19
273.09	264.19
273.322	233.19
273.553	228.19
273.785	261.19
274.017	316.19
274.249	367.19
274.481	375.19
274.713	414.19
274.945	459.19
275.176	443.19
275.408	447.19
275.64	413.19
275.872	406.19
276.104	360.19
276.335	312.19
276.567	301.19
276.799	350.19
277.031	335.19
277.262	290.19
277.494	238.19
277.726	225.19
277.957	234.19
278.189	254.19
278.421	283.19
278.652	266.19
278.884	258.19
279.115	243.19
279.347	230.19
279.579	230.19
279.81	220.19
280.042	241.19
280.273	215.19
280.505	220.19
280.736	189.19
280.968	196.19
281.199	202.19
281.431	224.19
281.662	245.19
281.894	205.19
282.125	233.19
282.356	260.19
282.588	229.19
282.819	227.19
283.051	252.19
283.282	298.19
283.513	323.19
283.745	342.19
283.976	350.19
284.207	340.19
284.439	337.19
284.67	320.19
284.901	294.19
285.132	310.19
285.364	333.19
285.595	331.19
285.826	331.19
286.057	338.19
286.288	327.19
286.52	330.19
286.751	334.19
286.982	347.19
287.213	313.19
287.444	302.19
287.675	294.19
287.906	309.19
288.138	282.19
288.369	247.19
288.6	233.19
288.831	254.19
289.062	284.19
289.293	310.19
289.524	290.19
289.755	287.19
289.986	290.19
290.217	267.19
290.448	210.19
290.679	206.19
290.91	163.19
291.141	198.19
291.371	195.19
291.602	199.19
291.833	194.19
292.064	200.19
292.295	229.19
292.526	248.19
292.757	256.19
292.987	283.19
293.218	265.19
293.449	300.19
293.68	293.19
293.91	273.19
294.141	295.19
294.372	289.19
294.603	248.19
294.833	278.19
295.064	325.19
295.295	291.19
295.525	245.19
295.756	216.19
295.987	194.19
296.217	193.19
296.448	194.19
296.679	189.19
296.909	217.19
297.14	220.19
297.37	251.19
297.601	258.19
297.831	213.19
298.062	230.19
298.292	262.19
298.523	264.19
298.753	292.19
298.984	291.19
299.214	232.19
299.445	192.19
299.675	200.19
299.905	167.19
300.136	205.19
300.366	215.19
300.597	184.19
300.827	191.19
301.057	178.19
301.288	200.19
301.518	210.19
301.748	211.19
301.979	221.19
302.209	243.19
302.439	230.19
302.669	203.19
302.9	240.19
303.13	213.19
303.36	208.19
303.59	205.19
303.82	198.19
304.051	229.19
304.281	228.19
304.511	241.19
304.741	212.19
304.971	214.19
305.201	224.19
305.431	222.19
305.661	192.19
305.891	217.19
306.121	192.19
306.352	170.19
306.582	157.19
306.812	172.19
307.042	141.19
307.272	151.19
307.502	179.19
307.731	186.19
307.961	173.19
308.191	181.19
308.421	156.19
308.651	152.19
308.881	154.19
309.111	158.19
309.341	162.19
309.571	178.19
309.8	168.19
310.03	179.19
310.26	174.19
310.49	179.19
310.72	176.19
310.949	168.19
311.179	165.19
311.409	173.19
311.639	198.19
311.868	236.19
312.098	297.19
312.328	316.19
312.557	290.19
312.787	299.19
313.017	285.19
313.246	279.19
313.476	336.19
313.706	275.19
313.935	228.19
314.165	206.19
314.394	189.19
314.624	192.19
314.853	172.19
315.083	206.19
315.312	199.19
315.542	198.19
315.771	184.19
316.001	157.19
316.23	161.19
316.46	156.19
316.689	169.19
316.919	171.19
317.148	188.19
317.377	162.19
317.607	172.19
317.836	167.19
318.065	184.19
318.295	206.19
318.524	202.19
318.753	177.19
318.983	162.19
319.212	170.19
319.441	189.19
319.67	199.19
319.9	211.19
320.129	204.19
320.358	181.19
320.587	174.19
320.816	190.19
321.046	203.19
321.275	208.19
321.504	230.19
321.733	222.19
321.962	203.19
322.191	193.19
322.42	186.19
322.649	201.19
322.878	218.19
323.108	208.19
323.337	203.19
323.566	193.19
323.795	200.19
324.024	200.19
324.253	177.19
324.482	171.19
324.71	190.19
324.939	215.19
325.168	176.19
325.397	155.19
325.626	161.19
325.855	159.19
326.084	179.19
326.313	164.19
326.542	162.19
326.77	141.19
326.999	159.19
327.228	182.19
327.457	166.19
327.686	189.19
327.914	178.19
328.143	167.19
328.372	144.19
328.6	151.19
328.829	168.19
329.058	162.19
329.287	166.19
329.515	176.19
329.744	156.19
329.972	156.19
330.201	164.19
330.43	147.19
330.658	180.19
330.887	185.19
331.115	200.19
331.344	182.19
331.572	192.19
331.801	180.19
332.03	154.19
332.258	174.19
332.486	193.19
332.715	193.19
332.943	168.19
333.172	180.19
333.4	178.19
333.629	188.19
333.857	196.19
334.085	183.19
334.314	199.19
334.542	194.19
334.771	180.19
334.999	187.19
335.227	168.19
335.455	164.19
335.684	179.19
335.912	199.19
336.14	235.19
336.369	230.19
336.597	194.19
336.825	219.19
337.053	251.19
337.281	206.19
337.51	167.19
337.738	184.19
337.966	182.19
338.194	200.19
338.422	210.19
338.65	186.19
338.878	150.19
339.106	176.19
339.334	176.19
339.562	192.19
339.79	180.19
340.018	173.19
340.246	183.19
340.474	197.19
340.702	220.19
340.93	213.19
341.158	199.19
341.386	197.19
341.614	178.19
341.842	185.19
342.07	205.19
342.298	230.19
342.526	229.19
342.754	203.19
342.981	201.19
343.209	180.19
343.437	189.19
343.665	197.19
343.893	202.19
344.12	232.19
344.348	244.19
344.576	246.19
344.804	212.19
345.031	174.19
345.259	182.19
345.487	184.19
345.714	190.19
345.942	192.19
346.17	209.19
346.397	198.19
346.625	177.19
346.853	173.19
347.08	157.19
347.308	184.19
347.535	204.19
347.763	205.19
347.99	188.19
348.218	186.19
348.445	206.19
348.673	167.19
348.9	176.19
349.128	205.19
349.355	170.19
349.583	188.19
349.81	176.19
350.037	167.19
350.265	144.19
350.492	165.19
350.72	153.19
350.947	154.19
351.174	158.19
351.402	164.19
351.629	152.19
351.856	169.19
352.083	157.19
352.311	184.19
352.538	186.19
352.765	188.19
352.992	188.19
353.22	176.19
353.447	193.19
353.674	191.19
353.901	172.19
354.128	176.19
354.355	182.19
354.583	167.19
354.81	190.19
355.037	206.19
355.264	193.19
355.491	176.19
355.718	177.19
355.945	189.19
356.172	176.19
356.399	184.19
356.626	227.19
356.853	267.19
357.08	288.19
357.307	294.19
357.534	220.19
357.761	221.19
357.988	292.19
358.215	286.19
358.441	285.19
358.668	250.19
358.895	248.19
359.122	208.19
359.349	209.19
359.576	221.19
359.802	201.19
360.029	178.19
360.256	183.19
360.483	204.19
360.709	257.19
360.936	268.19
361.163	229.19
361.39	183.19
361.616	164.19
361.843	193.19
362.07	216.19
362.296	208.19
362.523	181.19
362.749	157.19
362.976	178.19
363.203	200.19
363.429	212.19
363.656	180.19
363.882	165.19
364.109	184.19
364.335	186.19
364.562	181.19
364.788	180.19
365.015	214.19
365.241	200.19
365.468	173.19
365.694	164.19
365.92	169.19
366.147	153.19
366.373	140.19
366.599	155.19
366.826	158.19
367.052	158.19
367.278	163.19
367.505	140.19
367.731	154.19
367.957	172.19
368.184	172.19
368.41	167.19
368.636	172.19
368.862	197.19
369.089	194.19
369.315	173.19
369.541	176.19
369.767	169.19
369.993	170.19
370.219	177.19
370.445	161.19
370.672	179.19
370.898	183.19
371.124	192.19
371.35	152.19
371.576	162.19
371.802	155.19
372.028	174.19
372.254	202.19
372.48	195.19
372.706	185.19
372.932	186.19
373.158	197.19
373.384	217.19
373.61	258.19
373.835	258.19
374.061	220.19
374.287	198.19
374.513	215.19
374.739	251.19
374.965	275.19
375.191	243.19
375.416	181.19
375.642	177.19
375.868	197.19
376.094	215.19
376.319	198.19
376.545	202.19
376.771	192.19
376.997	206.19
377.222	158.19
377.448	149.19
377.674	157.19
377.899	149.19
378.125	136.19
378.35	155.19
378.576	150.19
378.802	164.19
379.027	177.19
379.253	178.19
379.478	170.19
379.704	193.19
379.929	197.19
380.155	197.19
380.38	182.19
380.606	187.19
380.831	207.19
381.057	193.19
381.282	177.19
381.507	189.19
381.733	215.19
381.958	241.19
382.184	244.19
382.409	243.19
382.634	269.19
382.86	269.19
383.085	220.19
383.31	219.19
383.535	215.19
383.761	225.19
383.986	199.19
384.211	220.19
384.436	215.19
384.662	191.19
384.887	183.19
385.112	188.19
385.337	187.19
385.562	187.19
385.787	202.19
386.013	218.19
386.238	185.19
386.463	184.19
386.688	188.19
386.913	185.19
387.138	166.19
387.363	172.19
387.588	188.19
387.813	166.19
388.038	203.19
388.263	186.19
388.488	180.19
388.713	209.19
388.938	212.19
389.163	186.19
389.387	171.19
389.612	156.19
389.837	172.19
390.062	185.19
390.287	190.19
390.512	178.19
390.736	171.19
390.961	183.19
391.186	182.19
391.411	137.19
391.636	162.19
391.86	190.19
392.085	208.19
392.31	189.19
392.534	188.19
392.759	179.19
392.984	168.19
393.208	170.19
393.433	180.19
393.658	147.19
393.882	153.19
394.107	153.19
394.331	156.19
394.556	146.19
394.78	167.19
395.005	157.19
395.229	166.19
395.454	172.19
395.678	163.19
395.903	171.19
396.127	172.19
396.352	170.19
396.576	192.19
396.801	189.19
397.025	201.19
397.249	209.19
397.474	181.19
397.698	179.19
397.922	186.19
398.147	158.19
398.371	176.19
398.595	194.19
398.82	181.19
399.044	174.19
399.268	186.19
399.492	190.19
399.717	184.19
399.941	193.19
400.165	183.19
400.389	186.19
400.613	202.19
400.837	196.19
401.062	180.19
401.286	158.19
401.51	179.19
401.734	173.19
401.958	176.19
402.182	171.19
402.406	172.19
402.63	172.19
402.854	173.19
403.078	206.19
403.302	254.19
403.526	237.19
403.75	228.19
403.974	207.19
404.198	200.19
404.422	244.19
404.645	234.19
404.869	252.19
405.093	196.19
405.317	184.19
405.541	194.19
405.765	202.19
405.988	189.19
406.212	202.19
406.436	201.19
406.66	236.19
406.883	196.19
407.107	207.19
407.331	212.19
407.555	217.19
407.778	206.19
408.002	197.19
408.226	189.19
408.449	200.19
408.673	195.19
408.896	184.19
409.12	193.19
409.344	174.19
409.567	173.19
409.791	184.19
410.014	164.19
410.238	174.19
410.461	158.19
410.685	181.19
410.908	173.19
411.132	185.19
411.355	177.19
411.578	186.19
411.802	172.19
412.025	166.19
412.249	186.19
412.472	172.19
412.695	187.19
412.919	180.19
413.142	198.19
413.365	204.19
413.589	201.19
413.812	165.19
414.035	169.19
414.258	163.19
414.482	196.19
414.705	187.19
414.928	169.19
415.151	168.19
415.374	172.19
415.597	183.19
415.821	170.19
416.044	167.19
416.267	172.19
416.49	160.19
416.713	168.19
416.936	165.19
417.159	164.19
417.382	170.19
417.605	169.19
417.828	167.19
418.051	192.19
418.274	170.19
418.497	172.19
418.72	174.19
418.943	196.19
419.166	194.19
419.389	203.19
419.611	192.19
419.834	197.19
420.057	210.19
420.28	209.19
420.503	188.19
420.726	182.19
420.948	162.19
421.171	174.19
421.394	165.19
421.617	166.19
421.839	161.19
422.062	179.19
422.285	174.19
422.507	178.19
422.73	176.19
422.953	188.19
423.175	182.19
423.398	168.19
423.621	203.19
423.843	221.19
424.066	187.19
424.288	187.19
424.511	159.19
424.733	162.19
424.956	192.19
425.178	203.19
425.401	228.19
425.623	260.19
425.846	217.19
426.068	208.19
426.291	194.19
426.513	180.19
426.735	169.19
426.958	184.19
427.18	214.19
427.402	244.19
427.625	252.19
427.847	219.19
428.069	192.19
428.292	201.19
428.514	184.19
428.736	171.19
428.958	182.19
429.181	210.19
429.403	182.19
429.625	169.19
429.847	173.19
430.069	186.19
430.292	173.19
430.514	162.19
430.736	189.19
430.958	198.19
431.18	192.19
431.402	148.19
431.624	160.19
431.846	166.19
432.068	159.19
432.29	150.19
432.512	195.19
432.734	208.19
432.956	207.19
433.178	162.19
433.4	173.19
433.622	158.19
433.844	195.19
434.066	181.19
434.287	194.19
434.509	181.19
434.731	185.19
434.953	170.19
435.175	198.19
435.397	200.19
435.618	179.19
435.84	195.19
436.062	173.19
436.284	168.19
436.505	161.19
436.727	160.19
436.949	147.19
437.17	156.19
437.392	177.19
437.614	157.19
437.835	161.19
438.057	168.19
438.278	160.19
438.5	237.19
438.721	236.19
438.943	177.19
439.165	176.19
439.386	147.19
439.608	161.19
439.829	164.19
440.05	180.19
440.272	182.19
440.493	180.19
440.715	218.19
440.936	187.19
441.158	165.19
441.379	159.19
441.6	195.19
441.822	201.19
442.043	168.19
442.264	185.19
442.486	184.19
442.707	171.19
442.928	171.19
443.149	165.19
443.371	173.19
443.592	183.19
443.813	177.19
444.034	177.19
444.255	177.19
444.476	184.19
444.698	186.19
444.919	181.19
445.14	296.19
445.361	260.19
445.582	205.19
445.803	194.19
446.024	208.19
446.245	190.19
446.466	203.19
446.687	179.19
446.908	172.19
447.129	173.19
447.35	174.19
447.571	155.19
447.792	167.19
448.013	163.19
448.234	156.19
448.455	174.19
448.675	160.19
448.896	156.19
449.117	171.19
449.338	148.19
449.559	158.19
449.779	189.19
450	168.19
450.221	178.19
450.442	166.19
450.662	167.19
450.883	149.19
451.104	170.19
451.324	161.19
451.545	167.19
451.766	165.19
451.986	163.19
452.207	152.19
452.428	160.19
452.648	163.19
452.869	164.19
453.089	157.19
453.31	173.19
453.53	172.19
453.751	163.19
453.971	153.19
454.192	160.19
454.412	160.19
454.633	153.19
454.853	168.19
455.073	150.19
455.294	152.19
455.514	156.19
455.734	177.19
455.955	178.19
456.175	166.19
456.395	161.19
456.616	147.19
456.836	154.19
457.056	152.19
457.276	150.19
457.497	158.19
457.717	146.19
457.937	157.19
458.157	152.19
458.377	146.19
458.598	157.19
458.818	167.19
459.038	179.19
459.258	179.19
459.478	171.19
459.698	183.19
459.918	185.19
460.138	163.19
460.358	180.19
460.578	183.19
460.798	182.19
461.018	166.19
461.238	174.19
461.458	183.19
461.678	198.19
461.898	198.19
462.118	179.19
462.338	184.19
462.558	174.19
462.777	203.19
462.997	205.19
463.217	195.19
463.437	197.19
463.657	193.19
463.876	201.19
464.096	193.19
464.316	178.19
464.536	194.19
464.755	189.19
464.975	209.19
465.195	204.19
465.414	202.19
465.634	190.19
465.854	189.19
466.073	177.19
466.293	160.19
466.512	175.19
466.732	183.19
466.951	187.19
467.171	170.19
467.391	148.19
467.61	169.19
467.829	167.19
468.049	160.19
468.268	174.19
468.488	163.19
468.707	166.19
468.927	196.19
469.146	216.19
469.365	198.19
469.585	176.19
469.804	183.19
470.023	209.19
470.243	178.19
470.462	188.19
470.681	178.19
470.901	188.19
471.12	182.19
471.339	181.19
471.558	173.19
471.777	173.19
471.997	183.19
472.216	214.19
472.435	199.19
472.654	179.19
472.873	190.19
473.092	211.19
473.311	196.19
473.53	195.19
473.749	182.19
473.968	202.19
474.187	172.19
474.406	170.19
474.625	171.19
474.844	169.19
475.063	185.19
475.282	186.19
475.501	206.19
475.72	234.19
475.939	222.19
476.158	203.19
476.377	247.19
476.596	271.19
476.814	276.19
477.033	252.19
477.252	188.19
477.471	188.19
477.69	200.19
477.908	211.19
478.127	181.19
478.346	199.19
478.564	237.19
478.783	225.19
479.002	205.19
479.22	220.19
479.439	225.19
479.658	194.19
479.876	200.19
480.095	222.19
480.313	216.19
480.532	211.19
480.751	201.19
480.969	209.19
481.188	237.19
481.406	237.19
481.624	225.19
481.843	198.19
482.061	205.19
482.28	199.19
482.498	276.19
482.717	278.19
482.935	216.19
483.153	213.19
483.372	192.19
483.59	205.19
483.808	203.19
484.027	200.19
484.245	180.19
484.463	176.19
484.681	187.19
484.9	217.19
485.118	225.19
485.336	206.19
485.554	195.19
485.772	203.19
485.99	200.19
486.209	234.19
486.427	231.19
486.645	205.19
486.863	210.19
487.081	224.19
487.299	244.19
487.517	252.19
487.735	215.19
487.953	213.19
488.171	217.19
488.389	213.19
488.607	182.19
488.825	211.19
489.043	214.19
489.261	264.19
489.479	268.19
489.696	219.19
489.914	195.19
490.132	202.19
490.35	190.19
490.568	202.19
490.786	190.19
491.003	206.19
491.221	205.19
491.439	207.19
491.657	197.19
491.874	213.19
492.092	246.19
492.31	281.19
492.527	290.19
492.745	247.19
492.963	235.19
493.18	219.19
493.398	225.19
493.615	215.19
493.833	207.19
494.05	216.19
494.268	227.19
494.485	219.19
494.703	204.19
494.92	213.19
495.138	204.19
495.355	206.19
495.573	212.19
495.79	245.19
496.008	314.19
496.225	268.19
496.442	223.19
496.66	208.19
496.877	240.19
497.094	228.19
497.312	224.19
497.529	225.19
497.746	229.19
497.963	214.19
498.181	233.19
498.398	247.19
498.615	267.19
498.832	277.19
499.049	279.19
499.267	249.19
499.484	259.19
499.701	255.19
499.918	284.19
500.135	318.19
500.352	330.19
500.569	324.19
500.786	336.19
501.003	338.19
501.22	315.19
501.437	307.19
501.654	269.19
501.871	263.19
502.088	259.19
502.305	265.19
502.522	261.19
502.739	262.19
502.956	235.19
503.172	235.19
503.389	212.19
503.606	232.19
503.823	216.19
504.04	233.19
504.256	229.19
504.473	241.19
504.69	224.19
504.907	228.19
505.123	227.19
505.34	236.19
505.557	237.19
505.773	228.19
505.99	221.19
506.207	243.19
506.423	234.19
506.64	206.19
506.856	231.19
507.073	228.19
507.289	228.19
507.506	233.19
507.722	236.19
507.939	242.19
508.155	233.19
508.372	233.19
508.588	246.19
508.805	209.19
509.021	230.19
509.238	232.19
509.454	210.19
509.67	211.19
509.887	202.19
510.103	215.19
510.319	223.19
510.536	218.19
510.752	191.19
510.968	198.19
511.184	197.19
511.401	180.19
511.617	194.19
511.833	193.19
512.049	203.19
512.265	199.19
512.481	185.19
512.698	204.19
512.914	228.19
513.13	218.19
513.346	188.19
513.562	202.19
513.778	212.19
513.994	200.19
514.21	235.19
514.426	239.19
514.642	205.19
514.858	180.19
515.074	205.19
515.29	221.19
515.506	253.19
515.721	225.19
515.937	239.19
516.153	211.19
516.369	202.19
516.585	215.19
516.801	230.19
517.016	281.19
517.232	276.19
517.448	273.19
517.664	235.19
517.879	247.19
518.095	219.19
518.311	232.19
518.527	233.19
518.742	250.19
518.958	251.19
519.173	253.19
519.389	236.19
519.605	249.19
519.82	264.19
520.036	260.19
520.251	270.19
520.467	281.19
520.682	442.19
520.898	542.19
521.113	521.19
521.329	334.19
521.544	284.19
521.76	274.19
521.975	246.19
522.19	238.19
522.406	235.19
522.621	257.19
522.836	269.19
523.052	274.19
523.267	230.19
523.482	248.19
523.698	250.19
523.913	243.19
524.128	232.19
524.343	216.19
524.559	227.19
524.774	183.19
524.989	226.19
525.204	221.19
525.419	224.19
525.634	234.19
525.849	210.19
526.064	216.19
526.28	218.19
526.495	254.19
526.71	267.19
526.925	249.19
527.14	268.19
527.355	257.19
527.57	215.19
527.785	256.19
527.999	214.19
528.214	224.19
528.429	196.19
528.644	217.19
528.859	203.19
529.074	197.19
529.289	191.19
529.503	187.19
529.718	217.19
529.933	254.19
530.148	266.19
530.363	227.19
530.577	182.19
530.792	199.19
531.007	192.19
531.221	189.19
531.436	181.19
531.651	176.19
531.865	188.19
532.08	195.19
532.295	206.19
532.509	207.19
532.724	217.19
532.938	264.19
533.153	302.19
533.367	250.19
533.582	221.19
533.796	202.19
534.011	213.19
534.225	215.19
534.44	216.19
534.654	215.19
534.868	274.19
535.083	235.19
535.297	205.19
535.511	190.19
535.726	199.19
535.94	196.19
536.154	184.19
536.369	185.19
536.583	194.19
536.797	204.19
537.011	194.19
537.225	226.19
537.44	228.19
537.654	197.19
537.868	197.19
538.082	213.19
538.296	219.19
538.51	195.19
538.724	211.19
538.938	194.19
539.153	199.19
539.367	200.19
539.581	189.19
539.795	200.19
540.009	216.19
540.222	209.19
540.436	203.19
540.65	221.19
540.864	224.19
541.078	225.19
541.292	263.19
541.506	205.19
541.72	200.19
541.934	209.19
542.147	199.19
542.361	207.19
542.575	208.19
542.789	205.19
543.002	179.19
543.216	191.19
543.43	180.19
543.644	189.19
543.857	189.19
544.071	189.19
544.285	183.19
544.498	171.19
544.712	179.19
544.925	214.19
545.139	197.19
545.352	184.19
545.566	181.19
545.779	187.19
545.993	182.19
546.206	184.19
546.42	189.19
546.633	167.19
546.847	172.19
547.06	168.19
547.274	177.19
547.487	182.19
547.7	189.19
547.914	205.19
548.127	203.19
548.34	207.19
548.554	188.19
548.767	178.19
548.98	197.19
549.193	186.19
549.407	192.19
549.62	198.19
549.833	202.19
550.046	215.19
550.259	200.19
550.473	192.19
550.686	199.19
550.899	193.19
551.112	189.19
551.325	198.19
551.538	205.19
551.751	184.19
551.964	187.19
552.177	189.19
552.39	176.19
552.603	171.19
552.816	184.19
553.029	182.19
553.242	180.19
553.455	192.19
553.667	193.19
553.88	202.19
554.093	188.19
554.306	177.19
554.519	178.19
554.732	176.19
554.944	147.19
555.157	155.19
555.37	177.19
555.583	170.19
555.795	163.19
556.008	169.19
556.221	157.19
556.433	157.19
556.646	179.19
556.859	168.19
557.071	172.19
557.284	174.19
557.496	181.19
557.709	157.19
557.921	169.19
558.134	146.19
558.346	158.19
558.559	147.19
558.771	138.19
558.984	164.19
559.196	163.19
559.409	149.19
559.621	158.19
559.833	154.19
560.046	160.19
560.258	156.19
560.47	153.19
560.683	146.19
560.895	153.19
561.107	159.19
561.32	150.19
561.532	143.19
561.744	160.19
561.956	176.19
562.168	171.19
562.381	155.19
562.593	150.19
562.805	166.19
563.017	155.19
563.229	166.19
563.441	156.19
563.653	129.19
563.865	158.19
564.077	148.19
564.289	161.19
564.501	171.19
564.713	172.19
564.925	159.19
565.137	156.19
565.349	156.19
565.561	175.19
565.773	154.19
565.985	166.19
566.197	164.19
566.408	186.19
566.62	183.19
566.832	179.19
567.044	184.19
567.255	174.19
567.467	198.19
567.679	181.19
567.891	190.19
568.102	186.19
568.314	180.19
568.526	181.19
568.737	178.19
568.949	189.19
569.161	179.19
569.372	190.19
569.584	173.19
569.795	155.19
570.007	162.19
570.218	173.19
570.43	173.19
570.641	157.19
570.853	158.19
571.064	158.19
571.276	169.19
571.487	168.19
571.698	155.19
571.91	154.19
572.121	137.19
572.333	152.19
572.544	148.19
572.755	158.19
572.966	143.19
573.178	152.19
573.389	167.19
573.6	157.19
573.811	158.19
574.023	139.19
574.234	138.19
574.445	152.19
574.656	133.19
574.867	149.19
575.078	147.19
575.289	143.19
575.501	160.19
575.712	154.19
575.923	134.19
576.134	128.19
576.345	135.19
576.556	130.19
576.767	143.19
576.978	138.19
577.188	144.19
577.399	135.19
577.61	123.19
577.821	135.19
578.032	125.19
578.243	152.19
578.454	146.19
578.665	146.19
578.875	140.19
579.086	134.19
579.297	142.19
579.508	153.19
579.718	144.19
579.929	153.19
580.14	133.19
580.35	140.19
580.561	128.19
580.772	135.19
580.982	138.19
581.193	140.19
581.403	145.19
581.614	124.19
581.825	136.19
582.035	143.19
582.246	140.19
582.456	129.19
582.667	130.19
582.877	126.19
583.087	129.19
583.298	130.19
583.508	123.19
583.719	128.19
583.929	140.19
584.139	132.19
584.35	138.19
584.56	135.19
584.77	140.19
584.981	142.19
585.191	123.19
585.401	124.19
585.611	132.19
585.821	126.19
586.032	135.19
586.242	147.19
586.452	129.19
586.662	146.19
586.872	136.19
587.082	137.19
587.292	124.19
587.502	124.19
587.713	119.19
587.923	127.19
588.133	148.19
588.343	132.19
588.553	120.19
588.762	123.19
588.972	138.19
589.182	142.19
589.392	138.19
589.602	132.19
589.812	147.19
590.022	157.19
590.232	131.19
590.441	136.19
590.651	121.19
590.861	122.19
591.071	132.19
591.281	132.19
591.49	130.19
591.7	146.19
591.91	117.19
592.119	126.19
592.329	127.19
592.539	127.19
592.748	127.19
592.958	128.19
593.167	133.19
593.377	127.19
593.587	146.19
593.796	128.19
594.006	128.19
594.215	141.19
594.424	138.19
594.634	139.19
594.843	125.19
595.053	143.19
595.262	140.19
595.472	126.19
595.681	130.19
595.89	135.19
596.1	141.19
596.309	133.19
596.518	132.19
596.727	136.19
596.937	119.19
597.146	148.19
597.355	133.19
597.564	127.19
597.774	124.19
597.983	92.19
598.192	120.19
598.401	122.19
598.61	104.19
598.819	116.19
599.028	127.19
599.237	122.19
599.446	124.19
599.655	112.19
599.864	122.19
600.073	107.19
600.282	108.19
600.491	116.19
600.7	108.19
600.909	116.19
601.118	120.19
601.327	112.19
601.536	125.19
601.745	135.19
601.953	130.19
602.162	130.19
602.371	132.19
602.58	125.19
602.789	125.19
602.997	133.19
603.206	105.19
603.415	113.19
603.623	113.19
603.832	121.19
604.041	111.19
604.249	123.19
604.458	113.19
604.666	116.19
604.875	107.19
605.084	116.19
605.292	124.19
605.501	129.19
605.709	107.19
605.918	115.19
606.126	138.19
606.334	125.19
606.543	117.19
606.751	125.19
606.96	104.19
607.168	105.19
607.376	98.19
607.585	104.19
607.793	120.19
608.001	122.19
608.21	127.19
608.418	122.19
608.626	112.19
608.834	103.19
609.043	109.19
609.251	117.19
609.459	115.19
609.667	113.19
609.875	130.19
610.083	123.19
610.291	122.19
610.499	121.19
610.707	117.19
610.916	114.19
611.124	115.19
611.332	116.19
611.54	107.19
611.748	130.19
611.955	113.19
612.163	106.19
612.371	117.19
612.579	115.19
612.787	116.19
612.995	106.19
613.203	102.19
613.411	106.19
613.618	115.19
613.826	108.19
614.034	114.19
614.242	119.19
614.449	113.19
614.657	95.19
614.865	116.19
615.072	106.19
615.28	99.19
615.488	124.19
615.695	108.19
615.903	97.19
616.111	118.19
616.318	120.19
616.526	118.19
616.733	108.19
616.941	96.19
617.148	97.19
617.356	119.19
617.563	117.19
617.771	102.19
617.978	99.19
618.185	100.19
618.393	102.19
618.6	109.19
618.807	122.19
619.015	116.19
619.222	109.19
619.429	110.19
619.637	109.19
619.844	99.19
620.051	112.19
620.258	112.19
620.466	108.19
620.673	101.19
620.88	101.19
621.087	113.19
621.294	102.19
621.501	110.19
621.708	120.19
621.915	120.19
622.122	106.19
622.329	109.19
622.536	92.19
622.743	100.19
622.95	108.19
623.157	105.19
623.364	109.19
623.571	107.19
623.778	108.19
623.985	107.19
624.192	115.19
624.399	128.19
624.606	116.19
624.812	98.19
625.019	113.19
625.226	93.19
625.433	113.19
625.639	103.19
625.846	108.19
626.053	107.19
626.259	116.19
626.466	115.19
626.673	113.19
626.879	118.19
627.086	100.19
627.293	113.19
627.499	100.19
627.706	88.19
627.912	96.19
628.119	106.19
628.325	102.19
628.532	107.19
628.738	115.19
628.945	116.19
629.151	100.19
629.357	101.19
629.564	107.19
629.77	106.19
629.976	100.19
630.183	101.19
630.389	103.19
630.595	117.19
630.802	101.19
631.008	98.19
631.214	96.19
631.42	108.19
631.627	116.19
631.833	98.19
632.039	99.19
632.245	105.19
632.451	116.19
632.657	109.19
632.863	98.19
633.069	97.19
633.275	101.19
633.481	88.19
633.688	104.19
633.893	107.19
634.099	102.19
634.305	100.19
634.511	104.19
634.717	101.19
634.923	94.19
635.129	98.19
635.335	106.19
635.541	101.19
635.747	98.19
635.952	93.19
636.158	95.19
636.364	102.19
636.57	105.19
636.775	104.19
636.981	98.19
637.187	103.19
637.392	112.19
637.598	94.19
637.804	98.19
638.009	104.19
638.215	80.19
638.421	95.19
638.626	99.19
638.832	112.19
639.037	97.19
639.243	108.19
639.448	87.19
639.654	105.19
639.859	115.19
640.065	102.19
640.27	93.19
640.475	109.19
640.681	96.19
640.886	101.19
641.091	99.19
641.297	95.19
641.502	105.19
641.707	89.19
641.913	101.19
642.118	81.19
642.323	104.19
642.528	104.19
642.733	81.19
642.939	85.19
643.144	110.19
643.349	102.19
643.554	93.19
643.759	107.19
643.964	113.19
644.169	121.19
644.374	97.19
644.579	84.19
644.784	119.19
644.989	90.19
645.194	93.19
645.399	85.19
645.604	101.19
645.809	94.19
646.014	88.19
646.219	104.19
646.423	99.19
646.628	104.19
646.833	89.19
647.038	93.19
647.243	94.19
647.447	89.19
647.652	107.19
647.857	94.19
648.062	105.19
648.266	97.19
648.471	93.19
648.676	102.19
648.88	93.19
649.085	105.19
649.289	96.19
649.494	93.19
649.698	102.19
649.903	114.19
650.107	94.19
650.312	90.19
650.516	104.19
650.721	76.19
650.925	85.19
651.13	92.19
651.334	100.19
651.539	103.19
651.743	103.19
651.947	96.19
652.152	84.19
652.356	96.19
652.56	92.19
652.764	104.19
652.969	102.19
653.173	100.19
653.377	90.19
653.581	98.19
653.785	84.19
653.99	84.19
654.194	92.19
654.398	79.19
654.602	84.19
654.806	97.19
655.01	85.19
655.214	92.19
655.418	96.19
655.622	90.19
655.826	92.19
656.03	99.19
656.234	90.19
656.438	83.19
656.642	90.19
656.846	94.19
657.049	85.19
657.253	102.19
657.457	100.19
657.661	87.19
657.865	88.19
658.068	88.19
658.272	80.19
658.476	105.19
658.68	88.19
658.883	75.19
659.087	97.19
659.291	82.19
659.494	87.19
659.698	94.19
659.901	87.19
660.105	82.19
660.309	90.19
660.512	91.19
660.716	85.19
660.919	84.19
661.123	75.19
661.326	95.19
661.53	77.19
661.733	73.19
661.936	71.19
662.14	90.19
662.343	77.19
662.546	84.19
662.75	84.19
662.953	76.19
663.156	80.19
663.36	76.19
663.563	80.19
663.766	83.19
663.969	82.19
664.173	83.19
664.376	91.19
664.579	99.19
664.782	84.19
664.985	77.19
665.188	80.19
665.391	94.19
665.594	70.19
665.797	81.19
666	81.19
666.203	86.19
666.406	84.19
666.609	80.19
666.812	99.19
667.015	87.19
667.218	72.19
667.421	75.19
667.624	86.19
667.827	77.19
668.03	74.19
668.232	85.19
668.435	89.19
668.638	87.19
668.841	92.19
669.043	96.19
669.246	74.19
669.449	88.19
669.651	81.19
669.854	90.19
670.057	72.19
670.259	91.19
670.462	82.19
670.665	78.19
670.867	80.19
671.07	88.19
671.272	96.19
671.475	112.19
671.677	81.19
671.88	77.19
672.082	89.19
672.284	87.19
672.487	93.19
672.689	90.19
672.892	83.19
