Data from NickelSpatula.Lamp.E10.P2_HRD10591_11-57-38-531.txt Node
Date: Tue Jul 23 11:57:38 EDT 2019
User: cochatt
Spectrometer: HR+D1059
Trigger mode: 1
Integration Time (sec): 1.000000E-1
Scans to average: 1
Electric dark correction enabled: true
Nonlinearity correction enabled: false
Boxcar width: 0
XAxis mode: Wavelengths
Number of Pixels in Spectrum: 2048
>>>>>Begin Spectral Data<<<<<
223.165	-28
223.4	-28
223.635	-28
223.869	-14
224.104	-17
224.338	-27
224.573	-10
224.808	-15
225.042	-14
225.277	-6
225.511	6
225.746	-2
225.98	12
226.215	18
226.449	17
226.683	28
226.918	31
227.152	21
227.387	38
227.621	32
227.856	49
228.09	51
228.324	55
228.559	65
228.793	77
229.027	148
229.262	164
229.496	160
229.73	176
229.964	195
230.199	215
230.433	211
230.667	216
230.901	215
231.136	188
231.37	213
231.604	226
231.838	247
232.072	257
232.306	239
232.541	262
232.775	246
233.009	264
233.243	288
233.477	317
233.711	343
233.945	330
234.179	315
234.413	352
234.647	378
234.881	465
235.115	407
235.349	399
235.583	360
235.817	367
236.051	371
236.285	416
236.519	444
236.753	425
236.987	407
237.221	401
237.455	405
237.689	424
237.922	451
238.156	471
238.39	551
238.624	649
238.858	599
239.091	508
239.325	514
239.559	480
239.793	538
240.027	670
240.26	620
240.494	585
240.728	569
240.961	679
241.195	631
241.429	597
241.662	612
241.896	525
242.13	461
242.363	471
242.597	471
242.83	532
243.064	536
243.298	618
243.531	616
243.765	610
243.998	618
244.232	595
244.465	601
244.699	583
244.932	655
245.166	638
245.399	544
245.633	545
245.866	586
246.099	621
246.333	707
246.566	771
246.8	788
247.033	742
247.266	689
247.5	664
247.733	671
247.966	643
248.2	672
248.433	739
248.666	831
248.899	855
249.133	857
249.366	960
249.599	1049
249.832	949
250.066	810
250.299	817
250.532	807
250.765	793
250.998	736
251.231	693
251.465	779
251.698	831
251.931	781
252.164	806
252.397	923
252.63	1029
252.863	1152
253.096	1190
253.329	1129
253.562	1103
253.795	1240
254.028	1362
254.261	1379
254.494	1249
254.727	1100
254.96	1097
255.193	1149
255.426	1100
255.659	850
255.892	804
256.124	852
256.357	1043
256.59	1205
256.823	1130
257.056	992
257.289	902
257.521	939
257.754	1113
257.987	1291
258.22	1109
258.452	999
258.685	1132
258.918	1272
259.151	1242
259.383	1292
259.616	1506
259.849	1510
260.081	1715
260.314	1901
260.547	1471
260.779	1471
261.012	1696
261.244	1636
261.477	1627
261.71	1517
261.942	1277
262.175	1262
262.407	1207
262.64	1284
262.872	1489
263.105	1655
263.337	1699
263.57	1525
263.802	1007
264.035	901
264.267	886
264.499	731
264.732	707
264.964	701
265.197	705
265.429	779
265.661	815
265.894	832
266.126	920
266.358	1021
266.591	1235
266.823	1485
267.055	1413
267.287	1212
267.52	1250
267.752	1320
267.984	1453
268.216	1378
268.448	1135
268.681	1086
268.913	1193
269.145	1237
269.377	1299
269.609	1298
269.841	1183
270.073	1311
270.306	1377
270.538	1399
270.77	1419
271.002	1394
271.234	1411
271.466	1491
271.698	1430
271.93	1404
272.162	1391
272.394	1394
272.626	1364
272.858	1429
273.09	1480
273.322	1284
273.553	1250
273.785	1455
274.017	1955
274.249	2432
274.481	2493
274.713	2756
274.945	3130
275.176	3230
275.408	2825
275.64	2594
275.872	2626
276.104	2205
276.335	1879
276.567	1899
276.799	1947
277.031	2012
277.262	1605
277.494	1233
277.726	1190
277.957	1283
278.189	1491
278.421	1457
278.652	1432
278.884	1368
279.115	1248
279.347	1151
279.579	1187
279.81	1174
280.042	1209
280.273	1221
280.505	1126
280.736	1027
280.968	999
281.199	1095
281.431	1219
281.662	1215
281.894	1169
282.125	1218
282.356	1348
282.588	1394
282.819	1267
283.051	1370
283.282	1691
283.513	1911
283.745	2142
283.976	2154
284.207	1944
284.439	2057
284.67	1985
284.901	1738
285.132	1911
285.364	2012
285.595	1868
285.826	1938
286.057	2023
286.288	1931
286.52	1949
286.751	2105
286.982	2084
287.213	1813
287.444	1748
287.675	1818
287.906	1814
288.138	1547
288.369	1362
288.6	1277
288.831	1340
289.062	1571
289.293	1693
289.524	1575
289.755	1571
289.986	1613
290.217	1460
290.448	1102
290.679	971
290.91	931
291.141	915
291.371	971
291.602	971
291.833	960
292.064	1039
292.295	1201
292.526	1370
292.757	1462
292.987	1516
293.218	1572
293.449	1592
293.68	1669
293.91	1544
294.141	1594
294.372	1551
294.603	1399
294.833	1577
295.064	1813
295.295	1690
295.525	1299
295.756	1167
295.987	1002
296.217	990
296.448	1010
296.679	1062
296.909	1207
297.14	1280
297.37	1406
297.601	1302
297.831	1159
298.062	1217
298.292	1412
298.523	1523
298.753	1723
298.984	1573
299.214	1227
299.445	1045
299.675	1020
299.905	1036
300.136	1049
300.366	1125
300.597	1091
300.827	994
301.057	957
301.288	1010
301.518	1053
301.748	1181
301.979	1288
302.209	1411
302.439	1401
302.669	1197
302.9	1165
303.13	1156
303.36	1087
303.59	1033
303.82	1097
304.051	1186
304.281	1268
304.511	1260
304.741	1124
304.971	1191
305.201	1251
305.431	1193
305.661	1051
305.891	1029
306.121	1050
306.352	955
306.582	883
306.812	842
307.042	845
307.272	778
307.502	793
307.731	839
307.961	899
308.191	845
308.421	801
308.651	793
308.881	737
309.111	769
309.341	825
309.571	890
309.8	898
310.03	894
310.26	979
310.49	948
310.72	868
310.949	842
311.179	866
311.409	932
311.639	1064
311.868	1386
312.098	1773
312.328	1916
312.557	1819
312.787	1846
313.017	1610
313.246	1763
313.476	1967
313.706	1653
313.935	1272
314.165	1022
314.394	933
314.624	956
314.853	995
315.083	1034
315.312	977
315.542	989
315.771	919
316.001	867
316.23	843
316.46	846
316.689	819
316.919	841
317.148	870
317.377	849
317.607	856
317.836	959
318.065	1075
318.295	1229
318.524	1141
318.753	955
318.983	890
319.212	909
319.441	998
319.67	1050
319.9	1165
320.129	1102
320.358	951
320.587	933
320.816	1026
321.046	1158
321.275	1252
321.504	1291
321.733	1236
321.962	1205
322.191	1143
322.42	1075
322.649	1104
322.878	1172
323.108	1160
323.337	1101
323.566	1064
323.795	1003
324.024	1008
324.253	965
324.482	952
324.71	1074
324.939	1160
325.168	1053
325.397	894
325.626	907
325.855	910
326.084	913
326.313	859
326.542	837
326.77	854
326.999	867
327.228	927
327.457	983
327.686	989
327.914	866
328.143	835
328.372	794
328.6	823
328.829	844
329.058	890
329.287	904
329.515	895
329.744	860
329.972	834
330.201	799
330.43	847
330.658	945
330.887	1009
331.115	1041
331.344	988
331.572	962
331.801	873
332.03	858
332.258	867
332.486	973
332.715	960
332.943	919
333.172	898
333.4	943
333.629	1032
333.857	1088
334.085	1080
334.314	1116
334.542	1031
334.771	951
334.999	921
335.227	937
335.455	908
335.684	1021
335.912	1179
336.14	1291
336.369	1214
336.597	1189
336.825	1344
337.053	1553
337.281	1225
337.51	988
337.738	965
337.966	1028
338.194	1148
338.422	1064
338.65	923
338.878	873
339.106	897
339.334	991
339.562	1081
339.79	963
340.018	942
340.246	1033
340.474	1161
340.702	1227
340.93	1271
341.158	1313
341.386	1083
341.614	1087
341.842	1091
342.07	1148
342.298	1299
342.526	1378
342.754	1197
342.981	1081
343.209	1040
343.437	1113
343.665	1178
343.893	1158
344.12	1326
344.348	1548
344.576	1362
344.804	1154
345.031	1028
345.259	969
345.487	980
345.714	1022
345.942	1083
346.17	1148
346.397	1121
346.625	965
346.853	933
347.08	944
347.308	991
347.535	1067
347.763	1113
347.99	971
348.218	907
348.445	951
348.673	963
348.9	946
349.128	1000
349.355	1052
349.583	1023
349.81	956
350.037	925
350.265	817
350.492	787
350.72	782
350.947	829
351.174	869
351.402	897
351.629	931
351.856	933
352.083	898
352.311	927
352.538	1011
352.765	1103
352.992	1010
353.22	935
353.447	961
353.674	924
353.901	929
354.128	938
354.355	955
354.583	963
354.81	968
355.037	980
355.264	970
355.491	1021
355.718	1126
355.945	1116
356.172	1016
356.399	1047
356.626	1315
356.853	1518
357.08	1595
357.307	1657
357.534	1301
357.761	1310
357.988	1635
358.215	1937
358.441	1814
358.668	1539
358.895	1447
359.122	1163
359.349	1139
359.576	1280
359.802	1049
360.029	939
360.256	959
360.483	1210
360.709	1545
360.936	1553
361.163	1361
361.39	1057
361.616	1021
361.843	1171
362.07	1431
362.296	1275
362.523	1046
362.749	888
362.976	938
363.203	1154
363.429	1289
363.656	1027
363.882	959
364.109	951
364.335	981
364.562	952
364.788	1054
365.015	1211
365.241	1097
365.468	927
365.694	833
365.92	795
366.147	789
366.373	776
366.599	780
366.826	793
367.052	776
367.278	797
367.505	803
367.731	869
367.957	972
368.184	1002
368.41	1014
368.636	984
368.862	1027
369.089	953
369.315	872
369.541	866
369.767	850
369.993	825
370.219	821
370.445	899
370.672	977
370.898	1076
371.124	1017
371.35	927
371.576	881
371.802	968
372.028	1123
372.254	1242
372.48	1124
372.706	979
372.932	1063
373.158	1093
373.384	1293
373.61	1716
373.835	1759
374.061	1317
374.287	1098
374.513	1337
374.739	1542
374.965	1611
375.191	1588
375.416	1124
375.642	984
375.868	1155
376.094	1307
376.319	1119
376.545	1264
376.771	1301
376.997	1103
377.222	832
377.448	747
377.674	719
377.899	738
378.125	736
378.35	737
378.576	772
378.802	805
379.027	896
379.253	824
379.478	886
379.704	979
379.929	1056
380.155	1043
380.38	928
380.606	969
380.831	1069
381.057	1019
381.282	948
381.507	1097
381.733	1373
381.958	1492
382.184	1559
382.409	1593
382.634	1581
382.86	1648
383.085	1339
383.31	1119
383.535	1164
383.761	1157
383.986	1116
384.211	1349
384.436	1268
384.662	990
384.887	976
385.112	997
385.337	1022
385.562	943
385.787	1081
386.013	1154
386.238	1163
386.463	986
386.688	960
386.913	923
387.138	886
387.363	909
387.588	973
387.813	972
388.038	1052
388.263	931
388.488	935
388.713	1076
388.938	1155
389.163	984
389.387	875
389.612	897
389.837	895
390.062	936
390.287	951
390.512	987
390.736	965
390.961	890
391.186	864
391.411	817
391.636	836
391.86	906
392.085	983
392.31	981
392.534	933
392.759	909
392.984	962
393.208	963
393.433	848
393.658	789
393.882	775
394.107	785
394.331	779
394.556	789
394.78	794
395.005	813
395.229	838
395.454	888
395.678	892
395.903	914
396.127	856
396.352	881
396.576	986
396.801	1007
397.025	1069
397.249	1094
397.474	921
397.698	908
397.922	969
398.147	928
398.371	884
398.595	971
398.82	943
399.044	955
399.268	1003
399.492	1066
399.717	1045
399.941	1082
400.165	1027
400.389	1037
400.613	1048
400.837	1010
401.062	933
401.286	904
401.51	917
401.734	877
401.958	878
402.182	883
402.406	900
402.63	903
402.854	955
403.078	1060
403.302	1263
403.526	1305
403.75	1170
403.974	1037
404.198	1065
404.422	1186
404.645	1399
404.869	1517
405.093	1143
405.317	963
405.541	953
405.765	1009
405.988	993
406.212	1085
406.436	1252
406.66	1378
406.883	1112
407.107	1132
407.331	1336
407.555	1263
407.778	1050
408.002	1059
408.226	1072
408.449	1035
408.673	999
408.896	953
409.12	914
409.344	909
409.567	892
409.791	906
410.014	911
410.238	896
410.461	906
410.685	910
410.908	902
411.132	908
411.355	951
411.578	941
411.802	916
412.025	956
412.249	984
412.472	956
412.695	942
412.919	936
413.142	973
413.365	1007
413.589	1029
413.812	964
414.035	902
414.258	908
414.482	1026
414.705	1031
414.928	893
415.151	880
415.374	853
415.597	895
415.821	899
416.044	888
416.267	901
416.49	885
416.713	869
416.936	845
417.159	871
417.382	883
417.605	893
417.828	888
418.051	899
418.274	900
418.497	914
418.72	965
418.943	957
419.166	948
419.389	1008
419.611	994
419.834	1029
420.057	1128
420.28	1080
420.503	1006
420.726	895
420.948	864
421.171	895
421.394	828
421.617	872
421.839	875
422.062	883
422.285	899
422.507	940
422.73	923
422.953	973
423.175	899
423.398	927
423.621	966
423.843	1056
424.066	967
424.288	945
424.511	923
424.733	871
424.956	928
425.178	1076
425.401	1211
425.623	1356
425.846	1115
426.068	1005
426.291	1076
426.513	1002
426.735	927
426.958	965
427.18	1128
427.402	1457
427.625	1437
427.847	1182
428.069	915
428.292	919
428.514	893
428.736	840
428.958	919
429.181	1093
429.403	959
429.625	869
429.847	856
430.069	877
430.292	920
430.514	848
430.736	959
430.958	1159
431.18	1084
431.402	877
431.624	803
431.846	801
432.068	788
432.29	810
432.512	915
432.734	1151
432.956	1089
433.178	858
433.4	847
433.622	835
433.844	900
434.066	915
434.287	892
434.509	870
434.731	937
434.953	885
435.175	920
435.397	1015
435.618	873
435.84	825
436.062	849
436.284	849
436.505	792
436.727	784
436.949	806
437.17	834
437.392	870
437.614	819
437.835	834
438.057	844
438.278	951
438.5	1328
438.721	1343
438.943	914
439.165	803
439.386	801
439.608	777
439.829	778
440.05	804
440.272	840
440.493	976
440.715	1175
440.936	958
441.158	827
441.379	873
441.6	977
441.822	1019
442.043	903
442.264	869
442.486	873
442.707	858
442.928	874
443.149	869
443.371	874
443.592	912
443.813	938
444.034	889
444.255	915
444.476	997
444.698	926
444.919	953
445.14	1046
445.361	991
445.582	956
445.803	939
446.024	889
446.245	961
446.466	890
446.687	865
446.908	865
447.129	847
447.35	804
447.571	780
447.792	801
448.013	780
448.234	781
448.455	798
448.675	761
448.896	801
449.117	792
449.338	812
449.559	819
449.779	866
450	882
450.221	825
450.442	825
450.662	803
450.883	827
451.104	799
451.324	778
451.545	784
451.766	796
451.986	800
452.207	767
452.428	763
452.648	763
452.869	786
453.089	828
453.31	834
453.53	738
453.751	754
453.971	731
454.192	756
454.412	794
454.633	747
454.853	737
455.073	713
455.294	734
455.514	730
455.734	776
455.955	841
456.175	818
456.395	723
456.616	718
456.836	705
457.056	727
457.276	694
457.497	701
457.717	707
457.937	702
458.157	698
458.377	724
458.598	751
458.818	781
459.038	807
459.258	849
459.478	851
459.698	893
459.918	895
460.138	861
460.358	916
460.578	876
460.798	920
461.018	890
461.238	832
461.458	865
461.678	871
461.898	921
462.118	939
462.338	944
462.558	929
462.777	973
462.997	1012
463.217	1009
463.437	1012
463.657	1013
463.876	914
464.096	961
464.316	946
464.536	997
464.755	996
464.975	1022
465.195	969
465.414	1006
465.634	963
465.854	930
466.073	869
466.293	853
466.512	941
466.732	1041
466.951	1027
467.171	906
467.391	876
467.61	871
467.829	922
468.049	949
468.268	872
468.488	858
468.707	917
468.927	1035
469.146	1166
469.365	1043
469.585	975
469.804	1031
470.023	1065
470.243	970
470.462	913
470.681	923
470.901	892
471.12	948
471.339	982
471.558	927
471.777	920
471.997	1037
472.216	1120
472.435	1048
472.654	972
472.873	921
473.092	1000
473.311	1029
473.53	967
473.749	963
473.968	987
474.187	955
474.406	923
474.625	929
474.844	960
475.063	996
475.282	1020
475.501	1051
475.72	1089
475.939	1048
476.158	1091
476.377	1255
476.596	1439
476.814	1480
477.033	1257
477.252	1052
477.471	1006
477.69	1011
477.908	1109
478.127	1161
478.346	1072
478.564	1131
478.783	1094
479.002	1111
479.22	1287
479.439	1398
479.658	1225
479.876	1125
480.095	1195
480.313	1220
480.532	1125
480.751	1081
480.969	1134
481.188	1311
481.406	1309
481.624	1213
481.843	1121
482.061	1068
482.28	1190
482.498	1416
482.717	1354
482.935	1191
483.153	1132
483.372	1053
483.59	1073
483.808	1034
484.027	1054
484.245	1000
484.463	983
484.681	1029
484.9	1106
485.118	1191
485.336	1122
485.554	1046
485.772	1086
485.99	1181
486.209	1219
486.427	1207
486.645	1175
486.863	1252
487.081	1245
487.299	1342
487.517	1308
487.735	1206
487.953	1213
488.171	1251
488.389	1173
488.607	1106
488.825	1163
489.043	1265
489.261	1404
489.479	1523
489.696	1260
489.914	1184
490.132	1096
490.35	1130
490.568	1117
490.786	1123
491.003	1107
491.221	1181
491.439	1136
491.657	1135
491.874	1225
492.092	1427
492.31	1687
492.527	1724
492.745	1479
492.963	1321
493.18	1297
493.398	1311
493.615	1306
493.833	1266
494.05	1227
494.268	1252
494.485	1257
494.703	1225
494.92	1223
495.138	1178
495.355	1203
495.573	1229
495.79	1362
496.008	1727
496.225	1529
496.442	1347
496.66	1328
496.877	1415
497.094	1403
497.312	1333
497.529	1307
497.746	1322
497.963	1344
498.181	1448
498.398	1527
498.615	1625
498.832	1695
499.049	1717
499.267	1572
499.484	1547
499.701	1632
499.918	1718
500.135	1874
500.352	1895
500.569	1937
500.786	2004
501.003	1971
501.22	1813
501.437	1727
501.654	1633
501.871	1581
502.088	1658
502.305	1477
502.522	1477
502.739	1507
502.956	1354
503.172	1369
503.389	1301
503.606	1269
503.823	1338
504.04	1328
504.256	1320
504.473	1309
504.69	1375
504.907	1362
505.123	1358
505.34	1447
505.557	1425
505.773	1365
505.99	1299
506.207	1359
506.423	1221
506.64	1184
506.856	1240
507.073	1356
507.289	1345
507.506	1312
507.722	1427
507.939	1401
508.155	1426
508.372	1298
508.588	1250
508.805	1207
509.021	1219
509.238	1185
509.454	1184
509.67	1163
509.887	1176
510.103	1278
510.319	1301
510.536	1199
510.752	1075
510.968	1047
511.184	1028
511.401	1040
511.617	1009
511.833	1061
512.049	1056
512.265	1120
512.481	1109
512.698	1243
512.914	1343
513.13	1235
513.346	1123
513.562	1156
513.778	1144
513.994	1139
514.21	1207
514.426	1179
514.642	1138
514.858	1143
515.074	1177
515.29	1278
515.506	1423
515.721	1337
515.937	1234
516.153	1167
516.369	1159
516.585	1201
516.801	1369
517.016	1564
517.232	1527
517.448	1523
517.664	1345
517.879	1292
518.095	1272
518.311	1297
518.527	1314
518.742	1370
518.958	1448
519.173	1405
519.389	1373
519.605	1359
519.82	1480
520.036	1690
520.251	1704
520.467	1570
520.682	2264
520.898	2777
521.113	2579
521.329	1696
521.544	1563
521.76	1519
521.975	1334
522.19	1263
522.406	1335
522.621	1453
522.836	1484
523.052	1523
523.267	1241
523.482	1306
523.698	1359
523.913	1327
524.128	1212
524.343	1162
524.559	1185
524.774	1157
524.989	1152
525.204	1161
525.419	1277
525.634	1233
525.849	1249
526.064	1225
526.28	1234
526.495	1443
526.71	1486
526.925	1283
527.14	1333
527.355	1317
527.57	1083
527.785	1159
527.999	1110
528.214	1089
528.429	1073
528.644	1062
528.859	1024
529.074	989
529.289	1001
529.503	976
529.718	1014
529.933	1137
530.148	1146
530.363	1035
530.577	1049
530.792	993
531.007	1002
531.221	981
531.436	1013
531.651	1016
531.865	1001
532.08	1026
532.295	978
532.509	1016
532.724	1154
532.938	1245
533.153	1459
533.367	1177
533.582	1179
533.796	1061
534.011	1060
534.225	1021
534.44	1047
534.654	1117
534.868	1226
535.083	1128
535.297	1004
535.511	1021
535.726	1147
535.94	1095
536.154	1020
536.369	979
536.583	1000
536.797	993
537.011	1018
537.225	1081
537.44	1157
537.654	1045
537.868	1032
538.082	1001
538.296	1025
538.51	1082
538.724	1051
538.938	1068
539.153	975
539.367	985
539.581	965
539.795	1027
540.009	1140
540.222	1059
540.436	1056
540.65	1115
540.864	1135
541.078	1184
541.292	1281
541.506	1110
541.72	1081
541.934	1028
542.147	1037
542.361	1019
542.575	1038
542.789	1011
543.002	965
543.216	1023
543.43	957
543.644	953
543.857	940
544.071	938
544.285	922
544.498	915
544.712	913
544.925	1026
545.139	948
545.352	895
545.566	905
545.779	1047
545.993	944
546.206	879
546.42	900
546.633	899
546.847	858
547.06	835
547.274	861
547.487	877
547.7	967
547.914	995
548.127	1133
548.34	1094
548.554	964
548.767	996
548.98	1056
549.193	972
549.407	1016
549.62	1190
549.833	1121
550.046	1151
550.259	1143
550.473	1011
550.686	999
550.899	1033
551.112	1015
551.325	1048
551.538	1074
551.751	959
551.964	897
552.177	901
552.39	900
552.603	932
552.816	913
553.029	893
553.242	874
553.455	956
553.667	1000
553.88	973
554.093	918
554.306	845
554.519	825
554.732	801
554.944	792
555.157	766
555.37	776
555.583	769
555.795	813
556.008	807
556.221	797
556.433	800
556.646	769
556.859	788
557.071	837
557.284	823
557.496	811
557.709	800
557.921	811
558.134	769
558.346	716
558.559	728
558.771	775
558.984	804
559.196	777
559.409	737
559.621	701
559.833	711
560.046	694
560.258	736
560.47	765
560.683	693
560.895	669
561.107	705
561.32	678
561.532	711
561.744	732
561.956	766
562.168	715
562.381	713
562.593	741
562.805	749
563.017	692
563.229	693
563.441	692
563.653	679
563.865	669
564.077	712
564.289	682
564.501	676
564.713	745
564.925	742
565.137	675
565.349	695
565.561	712
565.773	698
565.985	753
566.197	756
566.408	838
566.62	840
566.832	841
567.044	855
567.255	875
567.467	972
567.679	880
567.891	860
568.102	901
568.314	903
568.526	840
568.737	827
568.949	860
569.161	769
569.372	707
569.584	700
569.795	684
570.007	699
570.218	715
570.43	744
570.641	691
570.853	665
571.064	662
571.276	703
571.487	719
571.698	667
571.91	657
572.121	669
572.333	641
572.544	616
572.755	625
572.966	596
573.178	644
573.389	633
573.6	659
573.811	639
574.023	604
574.234	601
574.445	598
574.656	578
574.867	584
575.078	577
575.289	567
575.501	655
575.712	579
575.923	545
576.134	554
576.345	551
576.556	549
576.767	543
576.978	546
577.188	523
577.399	515
577.61	518
577.821	542
578.032	567
578.243	565
578.454	574
578.665	588
578.875	563
579.086	547
579.297	569
579.508	575
579.718	544
579.929	540
580.14	533
580.35	517
580.561	492
580.772	495
580.982	453
581.193	474
581.403	490
581.614	461
581.825	470
582.035	489
582.246	470
582.456	478
582.667	498
582.877	466
583.087	465
583.298	462
583.508	453
583.719	451
583.929	474
584.139	460
584.35	450
584.56	490
584.77	472
584.981	464
585.191	479
585.401	475
585.611	473
585.821	490
586.032	468
586.242	474
586.452	484
586.662	464
586.872	485
587.082	496
587.292	456
587.502	452
587.713	469
587.923	447
588.133	511
588.343	487
588.553	474
588.762	452
588.972	436
589.182	471
589.392	443
589.602	462
589.812	481
590.022	506
590.232	529
590.441	469
590.651	464
590.861	439
591.071	463
591.281	454
591.49	453
591.7	469
591.91	450
592.119	453
592.329	444
592.539	468
592.748	456
592.958	474
593.167	471
593.377	484
593.587	463
593.796	463
594.006	480
594.215	456
594.424	482
594.634	495
594.843	472
595.053	480
595.262	455
595.472	449
595.681	430
595.89	426
596.1	429
596.309	427
596.518	439
596.727	419
596.937	447
597.146	453
597.355	465
597.564	440
597.774	413
597.983	394
598.192	402
598.401	379
598.61	398
598.819	393
599.028	395
599.237	396
599.446	382
599.655	389
599.864	360
600.073	358
600.282	372
600.491	387
600.7	392
600.909	407
601.118	393
601.327	382
601.536	376
601.745	382
601.953	410
602.162	398
602.371	404
602.58	402
602.789	395
602.997	395
603.206	393
603.415	386
603.623	377
603.832	379
604.041	376
604.249	386
604.458	392
604.666	361
604.875	365
605.084	363
605.292	363
605.501	357
605.709	372
605.918	348
606.126	378
606.334	356
606.543	369
606.751	363
606.96	360
607.168	357
607.376	354
607.585	358
607.793	348
608.001	356
608.21	371
608.418	358
608.626	363
608.834	338
609.043	355
609.251	336
609.459	361
609.667	358
609.875	328
610.083	348
610.291	360
610.499	361
610.707	332
610.916	332
611.124	345
611.332	335
611.54	341
611.748	339
611.955	341
612.163	333
612.371	337
612.579	328
612.787	337
612.995	326
613.203	339
613.411	316
613.618	317
613.826	353
614.034	332
614.242	330
614.449	313
614.657	325
614.865	316
615.072	343
615.28	315
615.488	328
615.695	333
615.903	333
616.111	331
616.318	334
616.526	323
616.733	317
616.941	328
617.148	318
617.356	306
617.563	319
617.771	310
617.978	309
618.185	322
618.393	313
618.6	317
618.807	306
619.015	326
619.222	331
619.429	316
619.637	303
619.844	299
620.051	296
620.258	308
620.466	300
620.673	296
620.88	288
621.087	307
621.294	289
621.501	302
621.708	312
621.915	280
622.122	276
622.329	300
622.536	282
622.743	285
622.95	285
623.157	290
623.364	303
623.571	315
623.778	291
623.985	312
624.192	309
624.399	312
624.606	291
624.812	296
625.019	305
625.226	306
625.433	301
625.639	291
625.846	283
626.053	296
626.259	256
626.466	277
626.673	303
626.879	284
627.086	284
627.293	273
627.499	266
627.706	291
627.912	275
628.119	267
628.325	277
628.532	274
628.738	277
628.945	253
629.151	271
629.357	255
629.564	263
629.77	272
629.976	264
630.183	247
630.389	256
630.595	261
630.802	265
631.008	247
631.214	261
631.42	259
631.627	261
631.833	250
632.039	256
632.245	241
632.451	248
632.657	260
632.863	264
633.069	236
633.275	251
633.481	235
633.688	250
633.893	241
634.099	251
634.305	251
634.511	261
634.717	239
634.923	240
635.129	235
635.335	229
635.541	238
635.747	232
635.952	232
636.158	258
636.364	237
636.57	247
636.775	239
636.981	245
637.187	240
637.392	224
637.598	231
637.804	224
638.009	229
638.215	233
638.421	237
638.626	224
638.832	232
639.037	235
639.243	220
639.448	251
639.654	245
639.859	239
640.065	219
640.27	233
640.475	239
640.681	222
640.886	216
641.091	230
641.297	240
641.502	221
641.707	224
641.913	226
642.118	233
642.323	228
642.528	220
642.733	226
642.939	202
643.144	225
643.349	204
643.554	216
643.759	212
643.964	205
644.169	211
644.374	213
644.579	204
644.784	200
644.989	208
645.194	202
645.399	220
645.604	211
645.809	211
646.014	201
646.219	214
646.423	220
646.628	215
646.833	215
647.038	217
647.243	205
647.447	209
647.652	226
647.857	208
648.062	214
648.266	226
648.471	204
648.676	204
648.88	196
649.085	218
649.289	205
649.494	206
649.698	215
649.903	218
650.107	206
650.312	214
650.516	185
650.721	187
650.925	192
651.13	189
651.334	175
651.539	183
651.743	192
651.947	187
652.152	185
652.356	183
652.56	165
652.764	190
652.969	178
653.173	177
653.377	173
653.581	178
653.785	172
653.99	178
654.194	180
654.398	173
654.602	167
654.806	168
655.01	167
655.214	177
655.418	164
655.622	155
655.826	156
656.03	171
656.234	155
656.438	171
656.642	160
656.846	162
657.049	149
657.253	153
657.457	145
657.661	133
657.865	152
658.068	132
658.272	128
658.476	128
658.68	127
658.883	136
659.087	118
659.291	114
659.494	115
659.698	117
659.901	91
660.105	110
660.309	106
660.512	109
660.716	119
660.919	106
661.123	104
661.326	81
661.53	86
661.733	90
661.936	95
662.14	87
662.343	102
662.546	85
662.75	81
662.953	83
663.156	78
663.36	75
663.563	88
663.766	81
663.969	93
664.173	84
664.376	87
664.579	71
664.782	77
664.985	100
665.188	76
665.391	71
665.594	88
665.797	72
666	84
666.203	75
666.406	88
666.609	96
666.812	101
667.015	95
667.218	87
667.421	80
667.624	72
667.827	92
668.03	77
668.232	96
668.435	95
668.638	90
668.841	81
669.043	79
669.246	76
669.449	87
669.651	72
669.854	84
670.057	107
670.259	88
670.462	89
670.665	96
670.867	77
671.07	85
671.272	93
671.475	95
671.677	83
671.88	81
672.082	79
672.284	81
672.487	96
672.689	89
672.892	92
