Data from NickelSpatula.Lamp.E10.P2_HRD10591_11-58-19-529.txt Node
Date: Tue Jul 23 11:58:19 EDT 2019
User: cochatt
Spectrometer: HR+D1059
Trigger mode: 1
Integration Time (sec): 1.000000E-1
Scans to average: 1
Electric dark correction enabled: true
Nonlinearity correction enabled: false
Boxcar width: 0
XAxis mode: Wavelengths
Number of Pixels in Spectrum: 2048
>>>>>Begin Spectral Data<<<<<
223.165	2
223.4	2
223.635	2
223.869	-19
224.104	-28
224.338	-29
224.573	-27
224.808	-10
225.042	-6
225.277	-13
225.511	8
225.746	10
225.98	1
226.215	24
226.449	27
226.683	25
226.918	24
227.152	11
227.387	41
227.621	24
227.856	42
228.09	58
228.324	45
228.559	54
228.793	81
229.027	142
229.262	148
229.496	156
229.73	163
229.964	177
230.199	212
230.433	216
230.667	214
230.901	193
231.136	189
231.37	210
231.604	220
231.838	243
232.072	256
232.306	244
232.541	224
232.775	246
233.009	254
233.243	307
233.477	288
233.711	347
233.945	323
234.179	326
234.413	347
234.647	389
234.881	453
235.115	431
235.349	403
235.583	343
235.817	344
236.051	380
236.285	428
236.519	443
236.753	438
236.987	430
237.221	410
237.455	417
237.689	421
237.922	460
238.156	486
238.39	556
238.624	643
238.858	579
239.091	494
239.325	500
239.559	479
239.793	520
240.027	634
240.26	616
240.494	579
240.728	580
240.961	672
241.195	643
241.429	630
241.662	605
241.896	526
242.13	481
242.363	444
242.597	487
242.83	534
243.064	543
243.298	581
243.531	630
243.765	643
243.998	618
244.232	600
244.465	610
244.699	598
244.932	646
245.166	591
245.399	546
245.633	528
245.866	570
246.099	601
246.333	703
246.566	763
246.8	752
247.033	744
247.266	689
247.5	688
247.733	673
247.966	667
248.2	684
248.433	755
248.666	832
248.899	834
249.133	882
249.366	968
249.599	1051
249.832	927
250.066	825
250.299	844
250.532	807
250.765	784
250.998	732
251.231	711
251.465	788
251.698	816
251.931	803
252.164	839
252.397	908
252.63	1046
252.863	1165
253.096	1200
253.329	1133
253.562	1095
253.795	1230
254.028	1351
254.261	1407
254.494	1255
254.727	1148
254.96	1140
255.193	1195
255.426	1134
255.659	840
255.892	788
256.124	866
256.357	1048
256.59	1189
256.823	1115
257.056	950
257.289	903
257.521	957
257.754	1121
257.987	1304
258.22	1111
258.452	1018
258.685	1143
258.918	1242
259.151	1243
259.383	1330
259.616	1514
259.849	1565
260.081	1714
260.314	1898
260.547	1480
260.779	1479
261.012	1683
261.244	1613
261.477	1622
261.71	1521
261.942	1265
262.175	1275
262.407	1233
262.64	1262
262.872	1516
263.105	1646
263.337	1693
263.57	1511
263.802	1044
264.035	909
264.267	883
264.499	773
264.732	692
264.964	693
265.197	709
265.429	770
265.661	832
265.894	827
266.126	883
266.358	1002
266.591	1258
266.823	1505
267.055	1428
267.287	1262
267.52	1230
267.752	1314
267.984	1440
268.216	1356
268.448	1133
268.681	1105
268.913	1223
269.145	1253
269.377	1308
269.609	1297
269.841	1228
270.073	1286
270.306	1358
270.538	1379
270.77	1400
271.002	1425
271.234	1446
271.466	1518
271.698	1493
271.93	1435
272.162	1426
272.394	1406
272.626	1401
272.858	1425
273.09	1458
273.322	1299
273.553	1274
273.785	1501
274.017	1959
274.249	2423
274.481	2541
274.713	2754
274.945	3137
275.176	3242
275.408	2893
275.64	2603
275.872	2646
276.104	2235
276.335	1906
276.567	1904
276.799	1950
277.031	2039
277.262	1614
277.494	1253
277.726	1216
277.957	1304
278.189	1477
278.421	1479
278.652	1418
278.884	1388
279.115	1274
279.347	1189
279.579	1192
279.81	1204
280.042	1184
280.273	1243
280.505	1159
280.736	1038
280.968	997
281.199	1064
281.431	1244
281.662	1215
281.894	1176
282.125	1249
282.356	1354
282.588	1368
282.819	1266
283.051	1414
283.282	1682
283.513	1972
283.745	2213
283.976	2179
284.207	2036
284.439	2080
284.67	2002
284.901	1751
285.132	1951
285.364	2011
285.595	1871
285.826	1981
286.057	2006
286.288	1950
286.52	1995
286.751	2122
286.982	2086
287.213	1814
287.444	1776
287.675	1850
287.906	1804
288.138	1528
288.369	1351
288.6	1285
288.831	1365
289.062	1560
289.293	1727
289.524	1598
289.755	1609
289.986	1646
290.217	1442
290.448	1117
290.679	960
290.91	908
291.141	917
291.371	978
291.602	1006
291.833	970
292.064	1073
292.295	1232
292.526	1374
292.757	1420
292.987	1567
293.218	1536
293.449	1609
293.68	1695
293.91	1627
294.141	1624
294.372	1550
294.603	1408
294.833	1550
295.064	1804
295.295	1738
295.525	1299
295.756	1167
295.987	994
296.217	1001
296.448	1007
296.679	1088
296.909	1236
297.14	1302
297.37	1425
297.601	1354
297.831	1172
298.062	1229
298.292	1455
298.523	1553
298.753	1758
298.984	1572
299.214	1260
299.445	1066
299.675	1033
299.905	1035
300.136	1060
300.366	1160
300.597	1102
300.827	1004
301.057	974
301.288	1004
301.518	1077
301.748	1206
301.979	1299
302.209	1420
302.439	1441
302.669	1260
302.9	1273
303.13	1172
303.36	1084
303.59	1066
303.82	1090
304.051	1226
304.281	1324
304.511	1291
304.741	1139
304.971	1200
305.201	1296
305.431	1214
305.661	1060
305.891	1060
306.121	1048
306.352	923
306.582	887
306.812	851
307.042	845
307.272	785
307.502	817
307.731	878
307.961	925
308.191	880
308.421	823
308.651	789
308.881	751
309.111	792
309.341	819
309.571	914
309.8	912
310.03	939
310.26	1017
310.49	968
310.72	858
310.949	861
311.179	876
311.409	904
311.639	1109
311.868	1395
312.098	1781
312.328	1903
312.557	1867
312.787	1862
313.017	1684
313.246	1799
313.476	1958
313.706	1633
313.935	1267
314.165	1034
314.394	990
314.624	951
314.853	1018
315.083	1024
315.312	993
315.542	1006
315.771	940
316.001	839
316.23	833
316.46	830
316.689	863
316.919	897
317.148	903
317.377	896
317.607	863
317.836	950
318.065	1077
318.295	1216
318.524	1154
318.753	989
318.983	938
319.212	915
319.441	1006
319.67	1115
319.9	1204
320.129	1137
320.358	981
320.587	947
320.816	1038
321.046	1146
321.275	1279
321.504	1330
321.733	1270
321.962	1202
322.191	1145
322.42	1079
322.649	1099
322.878	1161
323.108	1186
323.337	1091
323.566	1063
323.795	1040
324.024	1019
324.253	1003
324.482	966
324.71	1076
324.939	1206
325.168	1119
325.397	917
325.626	898
325.855	921
326.084	919
326.313	866
326.542	858
326.77	835
326.999	884
327.228	971
327.457	994
327.686	1019
327.914	879
328.143	856
328.372	857
328.6	854
328.829	883
329.058	884
329.287	858
329.515	900
329.744	896
329.972	839
330.201	803
330.43	849
330.658	936
330.887	1073
331.115	1024
331.344	1009
331.572	955
331.801	890
332.03	841
332.258	899
332.486	956
332.715	1000
332.943	897
333.172	914
333.4	908
333.629	997
333.857	1100
334.085	1107
334.314	1084
334.542	1028
334.771	975
334.999	950
335.227	912
335.455	944
335.684	1034
335.912	1196
336.14	1315
336.369	1230
336.597	1222
336.825	1360
337.053	1498
337.281	1219
337.51	983
337.738	972
337.966	1047
338.194	1186
338.422	1114
338.65	940
338.878	883
339.106	915
339.334	1038
339.562	1080
339.79	1009
340.018	950
340.246	1039
340.474	1170
340.702	1262
340.93	1334
341.158	1327
341.386	1106
341.614	1123
341.842	1094
342.07	1137
342.298	1345
342.526	1386
342.754	1196
342.981	1069
343.209	1059
343.437	1118
343.665	1198
343.893	1157
344.12	1327
344.348	1603
344.576	1422
344.804	1174
345.031	1044
345.259	962
345.487	975
345.714	1024
345.942	1106
346.17	1182
346.397	1122
346.625	986
346.853	972
347.08	949
347.308	978
347.535	1148
347.763	1126
347.99	1004
348.218	924
348.445	979
348.673	978
348.9	971
349.128	1035
349.355	1052
349.583	1067
349.81	1021
350.037	960
350.265	832
350.492	794
350.72	819
350.947	812
351.174	871
351.402	934
351.629	1026
351.856	948
352.083	886
352.311	975
352.538	1035
352.765	1153
352.992	1025
353.22	970
353.447	1002
353.674	967
353.901	931
354.128	985
354.355	1029
354.583	988
354.81	943
355.037	983
355.264	987
355.491	1076
355.718	1170
355.945	1121
356.172	1098
356.399	1078
356.626	1306
356.853	1601
357.08	1687
357.307	1762
357.534	1364
357.761	1396
357.988	1754
358.215	2062
358.441	1934
358.668	1613
358.895	1477
359.122	1208
359.349	1202
359.576	1321
359.802	1085
360.029	948
360.256	1022
360.483	1278
360.709	1594
360.936	1680
361.163	1430
361.39	1116
361.616	1050
361.843	1188
362.07	1487
362.296	1360
362.523	1076
362.749	928
362.976	995
363.203	1162
363.429	1328
363.656	1079
363.882	973
364.109	995
364.335	989
364.562	985
364.788	1100
365.015	1314
365.241	1171
365.468	962
365.694	845
365.92	801
366.147	786
366.373	787
366.599	794
366.826	810
367.052	823
367.278	842
367.505	834
367.731	902
367.957	994
368.184	1051
368.41	1030
368.636	1040
368.862	1058
369.089	1031
369.315	917
369.541	884
369.767	895
369.993	831
370.219	872
370.445	927
370.672	1035
370.898	1112
371.124	1073
371.35	954
371.576	904
371.802	964
372.028	1140
372.254	1337
372.48	1140
372.706	1019
372.932	1104
373.158	1116
373.384	1380
373.61	1789
373.835	1858
374.061	1358
374.287	1150
374.513	1388
374.739	1616
374.965	1701
375.191	1654
375.416	1150
375.642	1007
375.868	1245
376.094	1326
376.319	1168
376.545	1269
376.771	1338
376.997	1148
377.222	875
377.448	756
377.674	752
377.899	740
378.125	756
378.35	748
378.576	756
378.802	863
379.027	927
379.253	885
379.478	940
379.704	1032
379.929	1098
380.155	1094
380.38	923
380.606	1006
380.831	1110
381.057	1007
381.282	987
381.507	1166
381.733	1426
381.958	1527
382.184	1618
382.409	1694
382.634	1637
382.86	1723
383.085	1426
383.31	1114
383.535	1202
383.761	1216
383.986	1152
384.211	1416
384.436	1343
384.662	1039
384.887	1031
385.112	1037
385.337	1063
385.562	1005
385.787	1072
386.013	1206
386.238	1204
386.463	1062
386.688	997
386.913	955
387.138	911
387.363	967
387.588	977
387.813	970
388.038	1117
388.263	984
388.488	959
388.713	1101
388.938	1200
389.163	1010
389.387	894
389.612	911
389.837	950
390.062	970
390.287	995
390.512	1033
390.736	938
390.961	884
391.186	835
391.411	834
391.636	852
391.86	912
392.085	991
392.31	1010
392.534	955
392.759	924
392.984	989
393.208	994
393.433	891
393.658	828
393.882	771
394.107	791
394.331	806
394.556	803
394.78	826
395.005	866
395.229	851
395.454	866
395.678	882
395.903	909
396.127	869
396.352	903
396.576	989
396.801	1044
397.025	1117
397.249	1114
397.474	962
397.698	935
397.922	957
398.147	903
398.371	896
398.595	960
398.82	949
399.044	945
399.268	1004
399.492	1055
399.717	1060
399.941	1115
400.165	1056
400.389	1046
400.613	1044
400.837	1038
401.062	931
401.286	881
401.51	902
401.734	893
401.958	910
402.182	901
402.406	917
402.63	930
402.854	985
403.078	1090
403.302	1326
403.526	1341
403.75	1178
403.974	1066
404.198	1075
404.422	1219
404.645	1429
404.869	1592
405.093	1187
405.317	1008
405.541	965
405.765	1011
405.988	1017
406.212	1141
406.436	1273
406.66	1400
406.883	1118
407.107	1191
407.331	1375
407.555	1288
407.778	1124
408.002	1061
408.226	1013
408.449	1053
408.673	1056
408.896	931
409.12	904
409.344	939
409.567	896
409.791	913
410.014	870
410.238	883
410.461	914
410.685	898
410.908	918
411.132	925
411.355	944
411.578	942
411.802	944
412.025	972
412.249	1014
412.472	967
412.695	947
412.919	948
413.142	976
413.365	1070
413.589	1046
413.812	960
414.035	922
414.258	929
414.482	1060
414.705	1098
414.928	902
415.151	888
415.374	894
415.597	920
415.821	908
416.044	883
416.267	889
416.49	890
416.713	869
416.936	871
417.159	854
417.382	879
417.605	888
417.828	909
418.051	910
418.274	922
418.497	919
418.72	918
418.943	963
419.166	999
419.389	1038
419.611	1033
419.834	1058
420.057	1130
420.28	1112
420.503	1002
420.726	905
420.948	847
421.171	892
421.394	875
421.617	863
421.839	890
422.062	934
422.285	924
422.507	941
422.73	942
422.953	942
423.175	962
423.398	971
423.621	1014
423.843	1074
424.066	1016
424.288	944
424.511	878
424.733	922
424.956	940
425.178	1086
425.401	1244
425.623	1387
425.846	1173
426.068	1024
426.291	1098
426.513	1010
426.735	985
426.958	1007
427.18	1160
427.402	1520
427.625	1466
427.847	1143
428.069	906
428.292	914
428.514	923
428.736	854
428.958	954
429.181	1136
429.403	962
429.625	907
429.847	871
430.069	897
430.292	904
430.514	905
430.736	966
430.958	1188
431.18	1081
431.402	860
431.624	818
431.846	807
432.068	790
432.29	827
432.512	946
432.734	1220
432.956	1119
433.178	884
433.4	848
433.622	816
433.844	900
434.066	926
434.287	890
434.509	859
434.731	934
434.953	862
435.175	906
435.397	1041
435.618	903
435.84	801
436.062	816
436.284	846
436.505	802
436.727	830
436.949	804
437.17	818
437.392	835
437.614	823
437.835	826
438.057	829
438.278	966
438.5	1349
438.721	1378
438.943	948
439.165	825
439.386	800
439.608	767
439.829	794
440.05	784
440.272	820
440.493	1003
440.715	1253
440.936	990
441.158	849
441.379	869
441.6	946
441.822	1055
442.043	903
442.264	883
442.486	885
442.707	863
442.928	868
443.149	914
443.371	917
443.592	944
443.813	904
444.034	894
444.255	905
444.476	972
444.698	915
444.919	967
445.14	1068
445.361	984
445.582	975
445.803	940
446.024	952
446.245	954
446.466	913
446.687	871
446.908	871
447.129	854
447.35	830
447.571	805
447.792	826
448.013	797
448.234	783
448.455	796
448.675	800
448.896	773
449.117	801
449.338	806
449.559	850
449.779	884
450	881
450.221	845
450.442	829
450.662	815
450.883	820
451.104	798
451.324	775
451.545	831
451.766	805
451.986	804
452.207	788
452.428	783
452.648	787
452.869	842
453.089	866
453.31	835
453.53	749
453.751	744
453.971	733
454.192	752
454.412	792
454.633	751
454.853	740
455.073	717
455.294	748
455.514	746
455.734	765
455.955	818
456.175	848
456.395	743
456.616	714
456.836	699
457.056	689
457.276	696
457.497	756
457.717	744
457.937	726
458.157	720
458.377	729
458.598	740
458.818	740
459.038	786
459.258	812
459.478	842
459.698	880
459.918	881
460.138	868
460.358	894
460.578	876
460.798	884
461.018	865
461.238	848
461.458	857
461.678	916
461.898	939
462.118	919
462.338	946
462.558	958
462.777	989
462.997	1016
463.217	1004
463.437	1027
463.657	1011
463.876	975
464.096	969
464.316	960
464.536	969
464.755	1003
464.975	1010
465.195	962
465.414	1011
465.634	975
465.854	943
466.073	888
466.293	860
466.512	930
466.732	1011
466.951	1030
467.171	925
467.391	877
467.61	878
467.829	925
468.049	933
468.268	875
468.488	863
468.707	904
468.927	1043
469.146	1124
469.365	1004
469.585	956
469.804	1019
470.023	1115
470.243	1025
470.462	909
470.681	928
470.901	926
471.12	924
471.339	953
471.558	915
471.777	944
471.997	1033
472.216	1108
472.435	1079
472.654	959
472.873	925
473.092	1008
473.311	1055
473.53	938
473.749	922
473.968	967
474.187	1006
474.406	946
474.625	936
474.844	981
475.063	1019
475.282	1011
475.501	1101
475.72	1142
475.939	1087
476.158	1110
476.377	1245
476.596	1439
476.814	1538
477.033	1274
477.252	1085
477.471	998
477.69	1027
477.908	1148
478.127	1174
478.346	1042
478.564	1154
478.783	1089
479.002	1108
479.22	1269
479.439	1419
479.658	1287
479.876	1129
480.095	1220
480.313	1236
480.532	1138
480.751	1080
480.969	1108
481.188	1266
481.406	1330
481.624	1262
481.843	1119
482.061	1060
482.28	1222
482.498	1444
482.717	1393
482.935	1191
483.153	1143
483.372	1052
483.59	1046
483.808	1046
484.027	1024
484.245	987
484.463	994
484.681	1039
484.9	1098
485.118	1146
485.336	1121
485.554	1059
485.772	1063
485.99	1179
486.209	1236
486.427	1243
486.645	1220
486.863	1253
487.081	1240
487.299	1409
487.517	1356
487.735	1194
487.953	1229
488.171	1255
488.389	1179
488.607	1138
488.825	1194
489.043	1247
489.261	1458
489.479	1540
489.696	1285
489.914	1166
490.132	1099
490.35	1136
490.568	1139
490.786	1129
491.003	1139
491.221	1187
491.439	1138
491.657	1151
491.874	1248
492.092	1505
492.31	1800
492.527	1738
492.745	1511
492.963	1319
493.18	1325
493.398	1299
493.615	1320
493.833	1258
494.05	1208
494.268	1213
494.485	1235
494.703	1224
494.92	1222
495.138	1196
495.355	1205
495.573	1221
495.79	1362
496.008	1821
496.225	1569
496.442	1378
496.66	1375
496.877	1453
497.094	1413
497.312	1337
497.529	1306
497.746	1309
497.963	1375
498.181	1476
498.398	1597
498.615	1638
498.832	1697
499.049	1687
499.267	1588
499.484	1559
499.701	1639
499.918	1748
500.135	1880
500.352	1902
500.569	1988
500.786	2037
501.003	2048
501.22	1847
501.437	1754
501.654	1688
501.871	1613
502.088	1631
502.305	1533
502.522	1515
502.739	1542
502.956	1394
503.172	1374
503.389	1256
503.606	1295
503.823	1323
504.04	1314
504.256	1338
504.473	1386
504.69	1383
504.907	1396
505.123	1382
505.34	1457
505.557	1396
505.773	1346
505.99	1282
506.207	1363
506.423	1258
506.64	1175
506.856	1282
507.073	1374
507.289	1297
507.506	1327
507.722	1436
507.939	1436
508.155	1467
508.372	1285
508.588	1262
508.805	1210
509.021	1200
509.238	1196
509.454	1160
509.67	1183
509.887	1200
510.103	1333
510.319	1314
510.536	1224
510.752	1095
510.968	1060
511.184	1046
511.401	1046
511.617	1036
511.833	1047
512.049	1072
512.265	1095
512.481	1106
512.698	1272
512.914	1343
513.13	1237
513.346	1107
513.562	1198
513.778	1171
513.994	1147
514.21	1198
514.426	1203
514.642	1142
514.858	1141
515.074	1207
515.29	1287
515.506	1463
515.721	1346
515.937	1269
516.153	1196
516.369	1150
516.585	1214
516.801	1380
517.016	1609
517.232	1527
517.448	1574
517.664	1386
517.879	1300
518.095	1251
518.311	1316
518.527	1349
518.742	1399
518.958	1458
519.173	1395
519.389	1379
519.605	1393
519.82	1522
520.036	1765
520.251	1699
520.467	1572
520.682	2414
520.898	2948
521.113	2743
521.329	1702
521.544	1560
521.76	1516
521.975	1372
522.19	1291
522.406	1330
522.621	1458
522.836	1526
523.052	1540
523.267	1301
523.482	1335
523.698	1380
523.913	1364
524.128	1206
524.343	1145
524.559	1194
524.774	1116
524.989	1142
525.204	1199
525.419	1310
525.634	1213
525.849	1253
526.064	1270
526.28	1294
526.495	1471
526.71	1494
526.925	1358
527.14	1394
527.355	1334
527.57	1142
527.785	1191
527.999	1147
528.214	1066
528.429	1076
528.644	1037
528.859	1064
529.074	995
529.289	986
529.503	997
529.718	1036
529.933	1163
530.148	1200
530.363	1053
530.577	1023
530.792	1011
531.007	979
531.221	959
531.436	968
531.651	973
531.865	1038
532.08	1046
532.295	974
532.509	1044
532.724	1187
532.938	1331
533.153	1538
533.367	1239
533.582	1210
533.796	1094
534.011	1052
534.225	1070
534.44	1058
534.654	1122
534.868	1263
535.083	1175
535.297	1016
535.511	1021
535.726	1157
535.94	1077
536.154	1042
536.369	1015
536.583	1018
536.797	998
537.011	1050
537.225	1127
537.44	1153
537.654	996
537.868	1002
538.082	1004
538.296	1012
538.51	1093
538.724	1079
538.938	1031
539.153	977
539.367	985
539.581	1013
539.795	1051
540.009	1130
540.222	1054
540.436	1066
540.65	1164
540.864	1159
541.078	1209
541.292	1329
541.506	1101
541.72	1062
541.934	1042
542.147	1012
542.361	1032
542.575	1043
542.789	1026
543.002	946
543.216	1050
543.43	941
543.644	959
543.857	928
544.071	965
544.285	927
544.498	905
544.712	932
544.925	1010
545.139	938
545.352	897
545.566	931
545.779	1054
545.993	964
546.206	859
546.42	912
546.633	898
546.847	869
547.06	854
547.274	872
547.487	876
547.7	963
547.914	1015
548.127	1123
548.34	1105
548.554	968
548.767	1006
548.98	1046
549.193	978
549.407	988
549.62	1181
549.833	1119
550.046	1167
550.259	1135
550.473	1035
550.686	999
550.899	992
551.112	985
551.325	1036
551.538	1099
551.751	947
551.964	917
552.177	897
552.39	896
552.603	884
552.816	932
553.029	891
553.242	873
553.455	922
553.667	1031
553.88	989
554.093	905
554.306	863
554.519	803
554.732	818
554.944	775
555.157	782
555.37	770
555.583	769
555.795	777
556.008	804
556.221	821
556.433	837
556.646	768
556.859	797
557.071	829
557.284	837
557.496	871
557.709	802
557.921	792
558.134	782
558.346	739
558.559	763
558.771	764
558.984	826
559.196	795
559.409	731
559.621	715
559.833	730
560.046	724
560.258	742
560.47	762
560.683	735
560.895	677
561.107	684
561.32	695
561.532	680
561.744	776
561.956	802
562.168	726
562.381	692
562.593	728
562.805	741
563.017	725
563.229	688
563.441	658
563.653	676
563.865	682
564.077	711
564.289	680
564.501	695
564.713	747
564.925	720
565.137	710
565.349	707
565.561	676
565.773	701
565.985	723
566.197	788
566.408	866
566.62	862
566.832	862
567.044	854
567.255	935
567.467	980
567.679	902
567.891	868
568.102	886
568.314	907
568.526	852
568.737	816
568.949	861
569.161	787
569.372	705
569.584	700
569.795	702
570.007	711
570.218	762
570.43	738
570.641	686
570.853	657
571.064	658
571.276	690
571.487	715
571.698	650
571.91	675
572.121	670
572.333	654
572.544	627
572.755	665
572.966	614
573.178	605
573.389	629
573.6	650
573.811	605
574.023	563
574.234	579
574.445	590
574.656	586
574.867	604
575.078	595
575.289	593
575.501	644
575.712	612
575.923	556
576.134	557
576.345	544
576.556	558
576.767	530
576.978	510
577.188	533
577.399	515
577.61	519
577.821	530
578.032	559
578.243	590
578.454	551
578.665	575
578.875	558
579.086	549
579.297	555
579.508	580
579.718	581
579.929	575
580.14	530
580.35	507
580.561	488
580.772	467
580.982	473
581.193	465
581.403	477
581.614	469
581.825	478
582.035	462
582.246	461
582.456	490
582.667	482
582.877	472
583.087	454
583.298	468
583.508	479
583.719	453
583.929	466
584.139	459
584.35	452
584.56	498
584.77	486
584.981	483
585.191	470
585.401	438
585.611	491
585.821	499
586.032	500
586.242	466
586.452	474
586.662	442
586.872	501
587.082	487
587.292	490
587.502	453
587.713	457
587.923	456
588.133	522
588.343	476
588.553	461
588.762	455
588.972	454
589.182	481
589.392	465
589.602	460
589.812	470
590.022	508
590.232	512
590.441	455
590.651	447
590.861	473
591.071	444
591.281	435
591.49	467
591.7	461
591.91	455
592.119	458
592.329	472
592.539	460
592.748	461
592.958	458
593.167	496
593.377	496
593.587	479
593.796	485
594.006	462
594.215	491
594.424	484
594.634	510
594.843	494
595.053	462
595.262	454
595.472	431
595.681	420
595.89	432
596.1	444
596.309	453
596.518	429
596.727	407
596.937	423
597.146	438
597.355	453
597.564	447
597.774	404
597.983	388
598.192	415
598.401	399
598.61	399
598.819	410
599.028	392
599.237	392
599.446	359
599.655	371
599.864	362
600.073	365
600.282	396
600.491	389
600.7	392
600.909	393
601.118	374
601.327	370
601.536	389
601.745	395
601.953	438
602.162	414
602.371	395
602.58	404
602.789	365
602.997	380
603.206	376
603.415	364
603.623	363
603.832	380
604.041	355
604.249	361
604.458	404
604.666	372
604.875	344
605.084	351
605.292	356
605.501	367
605.709	376
605.918	358
606.126	336
606.334	357
606.543	364
606.751	370
606.96	355
607.168	345
607.376	347
607.585	346
607.793	339
608.001	340
608.21	347
608.418	364
608.626	354
608.834	362
609.043	354
609.251	335
609.459	340
609.667	354
609.875	343
610.083	354
610.291	370
610.499	337
610.707	354
610.916	346
611.124	334
611.332	337
611.54	342
611.748	342
611.955	338
612.163	334
612.371	346
612.579	333
612.787	323
612.995	351
613.203	341
613.411	319
613.618	316
613.826	342
614.034	350
614.242	336
614.449	321
614.657	323
614.865	335
615.072	339
615.28	327
615.488	327
615.695	313
615.903	332
616.111	337
616.318	325
616.526	340
616.733	328
616.941	327
617.148	307
617.356	334
617.563	318
617.771	311
617.978	323
618.185	319
618.393	332
618.6	333
618.807	309
619.015	330
619.222	307
619.429	336
619.637	318
619.844	314
620.051	298
620.258	302
620.466	291
620.673	298
620.88	278
621.087	303
621.294	301
621.501	296
621.708	311
621.915	291
622.122	278
622.329	308
622.536	291
622.743	289
622.95	280
623.157	303
623.364	329
623.571	295
623.778	311
623.985	308
624.192	318
624.399	299
624.606	301
624.812	295
625.019	312
625.226	327
625.433	315
625.639	274
625.846	270
626.053	264
626.259	278
626.466	288
626.673	307
626.879	278
627.086	276
627.293	273
627.499	287
627.706	288
627.912	275
628.119	259
628.325	277
628.532	248
628.738	258
628.945	256
629.151	258
629.357	264
629.564	259
629.77	270
629.976	270
630.183	263
630.389	271
630.595	260
630.802	250
631.008	243
631.214	254
631.42	262
631.627	251
631.833	261
632.039	241
632.245	243
632.451	245
632.657	253
632.863	243
633.069	255
633.275	236
633.481	222
633.688	235
633.893	246
634.099	234
634.305	255
634.511	240
634.717	256
634.923	228
635.129	218
635.335	232
635.541	234
635.747	221
635.952	236
636.158	236
636.364	242
636.57	227
636.775	250
636.981	238
637.187	247
637.392	242
637.598	250
637.804	228
638.009	235
638.215	221
638.421	226
638.626	216
638.832	221
639.037	220
639.243	205
639.448	223
639.654	220
639.859	236
640.065	226
640.27	245
640.475	224
640.681	229
640.886	217
641.091	215
641.297	219
641.502	228
641.707	212
641.913	218
642.118	220
642.323	218
642.528	210
642.733	208
642.939	229
643.144	210
643.349	217
643.554	230
643.759	218
643.964	222
644.169	219
644.374	197
644.579	227
644.784	208
644.989	203
645.194	208
645.399	197
645.604	199
645.809	224
646.014	208
646.219	202
646.423	209
646.628	205
646.833	212
647.038	209
647.243	213
647.447	205
647.652	192
647.857	207
648.062	204
648.266	221
648.471	205
648.676	208
648.88	211
649.085	204
649.289	208
649.494	187
649.698	227
649.903	212
650.107	210
650.312	207
650.516	199
650.721	191
650.925	207
651.13	178
651.334	191
651.539	210
651.743	171
651.947	198
652.152	192
652.356	170
652.56	176
652.764	188
652.969	166
653.173	183
653.377	170
653.581	167
653.785	166
653.99	155
654.194	150
654.398	164
654.602	163
654.806	173
655.01	162
655.214	170
655.418	172
655.622	152
655.826	161
656.03	157
656.234	158
656.438	177
656.642	161
656.846	159
657.049	156
657.253	158
657.457	135
657.661	135
657.865	132
658.068	134
658.272	119
658.476	118
658.68	123
658.883	102
659.087	108
659.291	114
659.494	96
659.698	100
659.901	108
660.105	98
660.309	95
660.512	110
660.716	106
660.919	93
661.123	92
661.326	98
661.53	89
661.733	96
661.936	101
662.14	90
662.343	84
662.546	83
662.75	91
662.953	99
663.156	86
663.36	83
663.563	93
663.766	86
663.969	84
664.173	86
664.376	72
664.579	81
664.782	90
664.985	82
665.188	79
665.391	61
665.594	79
665.797	85
666	79
666.203	78
666.406	90
666.609	78
666.812	82
667.015	66
667.218	99
667.421	87
667.624	90
667.827	84
668.03	87
668.232	88
668.435	85
668.638	91
668.841	92
669.043	73
669.246	92
669.449	75
669.651	81
669.854	91
670.057	71
670.259	78
670.462	79
670.665	88
670.867	86
671.07	82
671.272	71
671.475	91
671.677	78
671.88	92
672.082	85
672.284	85
672.487	80
672.689	78
672.892	66
