Data from NickelSpatula_HRD10591_16-33-53-126.txt Node
Date: Mon Jul 22 16:33:53 EDT 2019
User: cochatt
Spectrometer: HR+D1059
Trigger mode: 1
Integration Time (sec): 1.000000E-1
Scans to average: 1
Electric dark correction enabled: true
Nonlinearity correction enabled: false
Boxcar width: 0
XAxis mode: Wavelengths
Number of Pixels in Spectrum: 2048
>>>>>Begin Spectral Data<<<<<
223.165	-15.81
223.4	-15.81
223.635	-15.81
223.869	-15.81
224.104	-27.81
224.338	-18.81
224.573	-28.81
224.808	1.19
225.042	-20.81
225.277	3.19
225.511	-0.81
225.746	20.19
225.98	8.19
226.215	14.19
226.449	11.19
226.683	18.19
226.918	14.19
227.152	38.19
227.387	38.19
227.621	33.19
227.856	40.19
228.09	49.19
228.324	48.19
228.559	70.19
228.793	63.19
229.027	76.19
229.262	72.19
229.496	86.19
229.73	97.19
229.964	93.19
230.199	109.19
230.433	97.19
230.667	98.19
230.901	89.19
231.136	96.19
231.37	97.19
231.604	88.19
231.838	103.19
232.072	103.19
232.306	105.19
232.541	94.19
232.775	106.19
233.009	127.19
233.243	113.19
233.477	109.19
233.711	124.19
233.945	119.19
234.179	109.19
234.413	106.19
234.647	113.19
234.881	123.19
235.115	127.19
235.349	122.19
235.583	116.19
235.817	115.19
236.051	118.19
236.285	142.19
236.519	141.19
236.753	129.19
236.987	130.19
237.221	135.19
237.455	129.19
237.689	128.19
237.922	140.19
238.156	128.19
238.39	143.19
238.624	163.19
238.858	139.19
239.091	134.19
239.325	150.19
239.559	140.19
239.793	149.19
240.027	161.19
240.26	155.19
240.494	144.19
240.728	161.19
240.961	173.19
241.195	164.19
241.429	154.19
241.662	155.19
241.896	140.19
242.13	122.19
242.363	132.19
242.597	139.19
242.83	158.19
243.064	142.19
243.298	157.19
243.531	172.19
243.765	155.19
243.998	164.19
244.232	156.19
244.465	142.19
244.699	165.19
244.932	154.19
245.166	164.19
245.399	162.19
245.633	151.19
245.866	154.19
246.099	144.19
246.333	181.19
246.566	189.19
246.8	198.19
247.033	187.19
247.266	188.19
247.5	170.19
247.733	166.19
247.966	169.19
248.2	171.19
248.433	174.19
248.666	200.19
248.899	158.19
249.133	204.19
249.366	210.19
249.599	240.19
249.832	227.19
250.066	206.19
250.299	199.19
250.532	188.19
250.765	195.19
250.998	188.19
251.231	180.19
251.465	196.19
251.698	199.19
251.931	201.19
252.164	212.19
252.397	218.19
252.63	228.19
252.863	253.19
253.096	272.19
253.329	249.19
253.562	244.19
253.795	258.19
254.028	279.19
254.261	294.19
254.494	281.19
254.727	240.19
254.96	257.19
255.193	247.19
255.426	245.19
255.659	190.19
255.892	194.19
256.124	193.19
256.357	240.19
256.59	275.19
256.823	254.19
257.056	203.19
257.289	207.19
257.521	206.19
257.754	242.19
257.987	286.19
258.22	260.19
258.452	234.19
258.685	243.19
258.918	273.19
259.151	265.19
259.383	268.19
259.616	323.19
259.849	324.19
260.081	340.19
260.314	375.19
260.547	314.19
260.779	295.19
261.012	354.19
261.244	344.19
261.477	321.19
261.71	324.19
261.942	279.19
262.175	269.19
262.407	262.19
262.64	259.19
262.872	292.19
263.105	327.19
263.337	358.19
263.57	322.19
263.802	250.19
264.035	205.19
264.267	208.19
264.499	179.19
264.732	183.19
264.964	176.19
265.197	188.19
265.429	180.19
265.661	205.19
265.894	191.19
266.126	228.19
266.358	235.19
266.591	245.19
266.823	325.19
267.055	301.19
267.287	280.19
267.52	270.19
267.752	288.19
267.984	279.19
268.216	273.19
268.448	245.19
268.681	246.19
268.913	249.19
269.145	268.19
269.377	286.19
269.609	286.19
269.841	256.19
270.073	276.19
270.306	294.19
270.538	317.19
270.77	296.19
271.002	308.19
271.234	316.19
271.466	315.19
271.698	306.19
271.93	284.19
272.162	278.19
272.394	291.19
272.626	282.19
272.858	302.19
273.09	302.19
273.322	277.19
273.553	262.19
273.785	289.19
274.017	365.19
274.249	433.19
274.481	451.19
274.713	474.19
274.945	535.19
275.176	582.19
275.408	522.19
275.64	474.19
275.872	483.19
276.104	423.19
276.335	377.19
276.567	371.19
276.799	391.19
277.031	402.19
277.262	316.19
277.494	270.19
277.726	260.19
277.957	275.19
278.189	302.19
278.421	311.19
278.652	305.19
278.884	275.19
279.115	248.19
279.347	244.19
279.579	243.19
279.81	274.19
280.042	263.19
280.273	256.19
280.505	240.19
280.736	219.19
280.968	242.19
281.199	250.19
281.431	258.19
281.662	275.19
281.894	250.19
282.125	264.19
282.356	280.19
282.588	285.19
282.819	278.19
283.051	271.19
283.282	332.19
283.513	374.19
283.745	390.19
283.976	388.19
284.207	370.19
284.439	386.19
284.67	384.19
284.901	339.19
285.132	376.19
285.364	388.19
285.595	359.19
285.826	384.19
286.057	385.19
286.288	381.19
286.52	387.19
286.751	405.19
286.982	402.19
287.213	376.19
287.444	350.19
287.675	362.19
287.906	363.19
288.138	320.19
288.369	288.19
288.6	259.19
288.831	265.19
289.062	305.19
289.293	361.19
289.524	305.19
289.755	310.19
289.986	324.19
290.217	298.19
290.448	244.19
290.679	206.19
290.91	210.19
291.141	198.19
291.371	219.19
291.602	234.19
291.833	204.19
292.064	218.19
292.295	248.19
292.526	277.19
292.757	291.19
292.987	308.19
293.218	319.19
293.449	331.19
293.68	345.19
293.91	321.19
294.141	345.19
294.372	316.19
294.603	303.19
294.833	316.19
295.064	367.19
295.295	351.19
295.525	287.19
295.756	252.19
295.987	220.19
296.217	226.19
296.448	219.19
296.679	220.19
296.909	232.19
297.14	252.19
297.37	287.19
297.601	268.19
297.831	236.19
298.062	257.19
298.292	286.19
298.523	308.19
298.753	331.19
298.984	322.19
299.214	265.19
299.445	228.19
299.675	208.19
299.905	223.19
300.136	238.19
300.366	235.19
300.597	245.19
300.827	216.19
301.057	209.19
301.288	225.19
301.518	231.19
301.748	237.19
301.979	250.19
302.209	264.19
302.439	271.19
302.669	237.19
302.9	256.19
303.13	242.19
303.36	245.19
303.59	235.19
303.82	243.19
304.051	270.19
304.281	276.19
304.511	292.19
304.741	243.19
304.971	240.19
305.201	264.19
305.431	266.19
305.661	217.19
305.891	226.19
306.121	214.19
306.352	214.19
306.582	198.19
306.812	204.19
307.042	177.19
307.272	180.19
307.502	169.19
307.731	196.19
307.961	188.19
308.191	204.19
308.421	186.19
308.651	170.19
308.881	187.19
309.111	180.19
309.341	188.19
309.571	195.19
309.8	185.19
310.03	203.19
310.26	202.19
310.49	195.19
310.72	186.19
310.949	182.19
311.179	201.19
311.409	202.19
311.639	210.19
311.868	265.19
312.098	323.19
312.328	364.19
312.557	346.19
312.787	361.19
313.017	307.19
313.246	334.19
313.476	389.19
313.706	324.19
313.935	274.19
314.165	231.19
314.394	213.19
314.624	190.19
314.853	223.19
315.083	220.19
315.312	214.19
315.542	214.19
315.771	203.19
316.001	184.19
316.23	186.19
316.46	186.19
316.689	169.19
316.919	178.19
317.148	193.19
317.377	207.19
317.607	207.19
317.836	210.19
318.065	229.19
318.295	226.19
318.524	235.19
318.753	180.19
318.983	211.19
319.212	217.19
319.441	206.19
319.67	232.19
319.9	252.19
320.129	219.19
320.358	200.19
320.587	196.19
320.816	215.19
321.046	230.19
321.275	268.19
321.504	253.19
321.733	261.19
321.962	229.19
322.191	231.19
322.42	236.19
322.649	232.19
322.878	252.19
323.108	246.19
323.337	226.19
323.566	226.19
323.795	227.19
324.024	220.19
324.253	198.19
324.482	197.19
324.71	232.19
324.939	229.19
325.168	219.19
325.397	204.19
325.626	211.19
325.855	200.19
326.084	213.19
326.313	209.19
326.542	182.19
326.77	184.19
326.999	188.19
327.228	202.19
327.457	201.19
327.686	216.19
327.914	195.19
328.143	179.19
328.372	189.19
328.6	184.19
328.829	192.19
329.058	199.19
329.287	190.19
329.515	189.19
329.744	172.19
329.972	179.19
330.201	175.19
330.43	200.19
330.658	205.19
330.887	213.19
331.115	193.19
331.344	220.19
331.572	211.19
331.801	196.19
332.03	189.19
332.258	190.19
332.486	204.19
332.715	208.19
332.943	222.19
333.172	197.19
333.4	210.19
333.629	224.19
333.857	240.19
334.085	251.19
334.314	230.19
334.542	225.19
334.771	197.19
334.999	209.19
335.227	187.19
335.455	195.19
335.684	223.19
335.912	240.19
336.14	274.19
336.369	256.19
336.597	234.19
336.825	254.19
337.053	310.19
337.281	246.19
337.51	219.19
337.738	200.19
337.966	214.19
338.194	238.19
338.422	228.19
338.65	204.19
338.878	184.19
339.106	181.19
339.334	195.19
339.562	240.19
339.79	209.19
340.018	200.19
340.246	222.19
340.474	230.19
340.702	277.19
340.93	254.19
341.158	253.19
341.386	243.19
341.614	222.19
341.842	221.19
342.07	227.19
342.298	249.19
342.526	277.19
342.754	246.19
342.981	215.19
343.209	210.19
343.437	232.19
343.665	243.19
343.893	233.19
344.12	277.19
344.348	315.19
344.576	297.19
344.804	234.19
345.031	213.19
345.259	192.19
345.487	194.19
345.714	216.19
345.942	220.19
346.17	228.19
346.397	245.19
346.625	212.19
346.853	206.19
347.08	199.19
347.308	210.19
347.535	230.19
347.763	219.19
347.99	217.19
348.218	188.19
348.445	192.19
348.673	221.19
348.9	211.19
349.128	201.19
349.355	218.19
349.583	221.19
349.81	208.19
350.037	205.19
350.265	189.19
350.492	172.19
350.72	194.19
350.947	171.19
351.174	182.19
351.402	201.19
351.629	210.19
351.856	205.19
352.083	183.19
352.311	212.19
352.538	202.19
352.765	225.19
352.992	217.19
353.22	220.19
353.447	223.19
353.674	212.19
353.901	200.19
354.128	195.19
354.355	219.19
354.583	201.19
354.81	186.19
355.037	222.19
355.264	224.19
355.491	212.19
355.718	217.19
355.945	214.19
356.172	218.19
356.399	216.19
356.626	237.19
356.853	284.19
357.08	306.19
357.307	338.19
357.534	251.19
357.761	242.19
357.988	308.19
358.215	325.19
358.441	324.19
358.668	303.19
358.895	280.19
359.122	227.19
359.349	238.19
359.576	259.19
359.802	230.19
360.029	192.19
360.256	190.19
360.483	228.19
360.709	283.19
360.936	310.19
361.163	293.19
361.39	236.19
361.616	204.19
361.843	220.19
362.07	280.19
362.296	259.19
362.523	232.19
362.749	194.19
362.976	190.19
363.203	223.19
363.429	255.19
363.656	226.19
363.882	192.19
364.109	215.19
364.335	202.19
364.562	185.19
364.788	224.19
365.015	231.19
365.241	206.19
365.468	200.19
365.694	170.19
365.92	180.19
366.147	171.19
366.373	161.19
366.599	167.19
366.826	163.19
367.052	198.19
367.278	187.19
367.505	183.19
367.731	189.19
367.957	204.19
368.184	206.19
368.41	198.19
368.636	212.19
368.862	208.19
369.089	206.19
369.315	177.19
369.541	181.19
369.767	188.19
369.993	179.19
370.219	171.19
370.445	197.19
370.672	208.19
370.898	218.19
371.124	213.19
371.35	194.19
371.576	179.19
371.802	206.19
372.028	206.19
372.254	222.19
372.48	216.19
372.706	214.19
372.932	211.19
373.158	212.19
373.384	245.19
373.61	286.19
373.835	306.19
374.061	254.19
374.287	241.19
374.513	264.19
374.739	291.19
374.965	285.19
375.191	290.19
375.416	220.19
375.642	206.19
375.868	238.19
376.094	258.19
376.319	215.19
376.545	227.19
376.771	249.19
376.997	225.19
377.222	192.19
377.448	155.19
377.674	161.19
377.899	168.19
378.125	184.19
378.35	162.19
378.576	177.19
378.802	180.19
379.027	204.19
379.253	200.19
379.478	190.19
379.704	227.19
379.929	218.19
380.155	209.19
380.38	194.19
380.606	206.19
380.831	222.19
381.057	229.19
381.282	206.19
381.507	213.19
381.733	266.19
381.958	267.19
382.184	274.19
382.409	300.19
382.634	312.19
382.86	313.19
383.085	259.19
383.31	212.19
383.535	244.19
383.761	251.19
383.986	221.19
384.211	269.19
384.436	267.19
384.662	209.19
384.887	210.19
385.112	220.19
385.337	220.19
385.562	215.19
385.787	228.19
386.013	241.19
386.238	260.19
386.463	220.19
386.688	209.19
386.913	213.19
387.138	185.19
387.363	200.19
387.588	220.19
387.813	220.19
388.038	218.19
388.263	214.19
388.488	186.19
388.713	236.19
388.938	230.19
389.163	213.19
389.387	212.19
389.612	201.19
389.837	209.19
390.062	213.19
390.287	209.19
390.512	216.19
390.736	200.19
390.961	202.19
391.186	185.19
391.411	181.19
391.636	184.19
391.86	221.19
392.085	212.19
392.31	225.19
392.534	203.19
392.759	204.19
392.984	202.19
393.208	215.19
393.433	195.19
393.658	184.19
393.882	198.19
394.107	188.19
394.331	173.19
394.556	185.19
394.78	183.19
395.005	174.19
395.229	183.19
395.454	170.19
395.678	195.19
395.903	198.19
396.127	195.19
396.352	207.19
396.576	218.19
396.801	214.19
397.025	225.19
397.249	244.19
397.474	208.19
397.698	202.19
397.922	209.19
398.147	204.19
398.371	197.19
398.595	208.19
398.82	201.19
399.044	198.19
399.268	219.19
399.492	236.19
399.717	270.19
399.941	237.19
400.165	240.19
400.389	226.19
400.613	226.19
400.837	238.19
401.062	211.19
401.286	215.19
401.51	206.19
401.734	212.19
401.958	203.19
402.182	197.19
402.406	206.19
402.63	216.19
402.854	215.19
403.078	248.19
403.302	281.19
403.526	301.19
403.75	274.19
403.974	230.19
404.198	237.19
404.422	257.19
404.645	294.19
404.869	288.19
405.093	233.19
405.317	214.19
405.541	203.19
405.765	231.19
405.988	225.19
406.212	235.19
406.436	254.19
406.66	265.19
406.883	228.19
407.107	242.19
407.331	276.19
407.555	250.19
407.778	240.19
408.002	247.19
408.226	260.19
408.449	241.19
408.673	228.19
408.896	214.19
409.12	197.19
409.344	195.19
409.567	196.19
409.791	200.19
410.014	199.19
410.238	188.19
410.461	202.19
410.685	187.19
410.908	201.19
411.132	209.19
411.355	193.19
411.578	220.19
411.802	213.19
412.025	201.19
412.249	211.19
412.472	205.19
412.695	195.19
412.919	194.19
413.142	205.19
413.365	228.19
413.589	233.19
413.812	200.19
414.035	212.19
414.258	210.19
414.482	234.19
414.705	243.19
414.928	196.19
415.151	209.19
415.374	208.19
415.597	209.19
415.821	203.19
416.044	186.19
416.267	191.19
416.49	204.19
416.713	194.19
416.936	188.19
417.159	177.19
417.382	197.19
417.605	194.19
417.828	209.19
418.051	212.19
418.274	207.19
418.497	197.19
418.72	214.19
418.943	217.19
419.166	213.19
419.389	206.19
419.611	217.19
419.834	227.19
420.057	240.19
420.28	240.19
420.503	235.19
420.726	196.19
420.948	193.19
421.171	211.19
421.394	200.19
421.617	198.19
421.839	189.19
422.062	202.19
422.285	219.19
422.507	200.19
422.73	206.19
422.953	220.19
423.175	202.19
423.398	214.19
423.621	227.19
423.843	229.19
424.066	211.19
424.288	206.19
424.511	202.19
424.733	193.19
424.956	205.19
425.178	233.19
425.401	254.19
425.623	276.19
425.846	248.19
426.068	207.19
426.291	240.19
426.513	215.19
426.735	198.19
426.958	208.19
427.18	242.19
427.402	308.19
427.625	299.19
427.847	247.19
428.069	191.19
428.292	194.19
428.514	202.19
428.736	177.19
428.958	215.19
429.181	239.19
429.403	200.19
429.625	194.19
429.847	192.19
430.069	188.19
430.292	209.19
430.514	187.19
430.736	204.19
430.958	226.19
431.18	220.19
431.402	176.19
431.624	197.19
431.846	188.19
432.068	186.19
432.29	184.19
432.512	209.19
432.734	239.19
432.956	234.19
433.178	179.19
433.4	184.19
433.622	191.19
433.844	184.19
434.066	201.19
434.287	219.19
434.509	209.19
434.731	222.19
434.953	204.19
435.175	198.19
435.397	241.19
435.618	209.19
435.84	192.19
436.062	203.19
436.284	196.19
436.505	174.19
436.727	187.19
436.949	174.19
437.17	187.19
437.392	206.19
437.614	188.19
437.835	171.19
438.057	190.19
438.278	192.19
438.5	252.19
438.721	268.19
438.943	211.19
439.165	184.19
439.386	180.19
439.608	176.19
439.829	166.19
440.05	186.19
440.272	198.19
440.493	188.19
440.715	236.19
440.936	200.19
441.158	179.19
441.379	196.19
441.6	218.19
441.822	225.19
442.043	204.19
442.264	182.19
442.486	197.19
442.707	181.19
442.928	196.19
443.149	208.19
443.371	188.19
443.592	213.19
443.813	218.19
444.034	206.19
444.255	207.19
444.476	189.19
444.698	206.19
444.919	217.19
445.14	344.19
445.361	262.19
445.582	218.19
445.803	207.19
446.024	210.19
446.245	232.19
446.466	211.19
446.687	181.19
446.908	202.19
447.129	193.19
447.35	198.19
447.571	176.19
447.792	171.19
448.013	184.19
448.234	174.19
448.455	182.19
448.675	171.19
448.896	187.19
449.117	189.19
449.338	167.19
449.559	182.19
449.779	202.19
450	200.19
450.221	189.19
450.442	177.19
450.662	178.19
450.883	176.19
451.104	183.19
451.324	182.19
451.545	195.19
451.766	194.19
451.986	186.19
452.207	169.19
452.428	190.19
452.648	194.19
452.869	182.19
453.089	191.19
453.31	199.19
453.53	179.19
453.751	174.19
453.971	172.19
454.192	174.19
454.412	166.19
454.633	177.19
454.853	192.19
455.073	172.19
455.294	163.19
455.514	191.19
455.734	164.19
455.955	163.19
456.175	176.19
456.395	164.19
456.616	170.19
456.836	161.19
457.056	166.19
457.276	157.19
457.497	164.19
457.717	167.19
457.937	152.19
458.157	178.19
458.377	169.19
458.598	174.19
458.818	171.19
459.038	181.19
459.258	187.19
459.478	188.19
459.698	216.19
459.918	205.19
460.138	189.19
460.358	217.19
460.578	196.19
460.798	195.19
461.018	202.19
461.238	200.19
461.458	185.19
461.678	190.19
461.898	204.19
462.118	205.19
462.338	230.19
462.558	225.19
462.777	211.19
462.997	223.19
463.217	232.19
463.437	237.19
463.657	224.19
463.876	223.19
464.096	221.19
464.316	226.19
464.536	211.19
464.755	221.19
464.975	234.19
465.195	224.19
465.414	212.19
465.634	210.19
465.854	198.19
466.073	204.19
466.293	194.19
466.512	198.19
466.732	228.19
466.951	219.19
467.171	223.19
467.391	198.19
467.61	188.19
467.829	196.19
468.049	188.19
468.268	185.19
468.488	188.19
468.707	196.19
468.927	214.19
469.146	221.19
469.365	201.19
469.585	204.19
469.804	206.19
470.023	234.19
470.243	215.19
470.462	204.19
470.681	185.19
470.901	205.19
471.12	230.19
471.339	225.19
471.558	193.19
471.777	211.19
471.997	205.19
472.216	233.19
472.435	223.19
472.654	221.19
472.873	195.19
473.092	213.19
473.311	211.19
473.53	203.19
473.749	200.19
473.968	207.19
474.187	209.19
474.406	201.19
474.625	196.19
474.844	195.19
475.063	221.19
475.282	218.19
475.501	215.19
475.72	248.19
475.939	215.19
476.158	227.19
476.377	245.19
476.596	276.19
476.814	312.19
477.033	246.19
477.252	214.19
477.471	215.19
477.69	215.19
477.908	214.19
478.127	233.19
478.346	229.19
478.564	248.19
478.783	240.19
479.002	227.19
479.22	266.19
479.439	276.19
479.658	253.19
479.876	215.19
480.095	256.19
480.313	261.19
480.532	243.19
480.751	221.19
480.969	231.19
481.188	260.19
481.406	264.19
481.624	264.19
481.843	227.19
482.061	222.19
482.28	261.19
482.498	284.19
482.717	281.19
482.935	244.19
483.153	232.19
483.372	221.19
483.59	213.19
483.808	202.19
484.027	215.19
484.245	204.19
484.463	196.19
484.681	218.19
484.9	233.19
485.118	233.19
485.336	224.19
485.554	211.19
485.772	223.19
485.99	223.19
486.209	254.19
486.427	243.19
486.645	234.19
486.863	237.19
487.081	243.19
487.299	268.19
487.517	279.19
487.735	230.19
487.953	251.19
488.171	240.19
488.389	243.19
488.607	206.19
488.825	248.19
489.043	263.19
489.261	296.19
489.479	292.19
489.696	242.19
489.914	226.19
490.132	221.19
490.35	213.19
490.568	230.19
490.786	219.19
491.003	230.19
491.221	225.19
491.439	236.19
491.657	222.19
491.874	232.19
492.092	300.19
492.31	352.19
492.527	324.19
492.745	273.19
492.963	261.19
493.18	249.19
493.398	267.19
493.615	253.19
493.833	238.19
494.05	251.19
494.268	263.19
494.485	255.19
494.703	233.19
494.92	252.19
495.138	237.19
495.355	234.19
495.573	223.19
495.79	261.19
496.008	353.19
496.225	294.19
496.442	261.19
496.66	253.19
496.877	266.19
497.094	270.19
497.312	256.19
497.529	246.19
497.746	251.19
497.963	274.19
498.181	279.19
498.398	295.19
498.615	320.19
498.832	326.19
499.049	334.19
499.267	317.19
499.484	337.19
499.701	333.19
499.918	355.19
500.135	401.19
500.352	429.19
500.569	442.19
500.786	444.19
501.003	427.19
501.22	385.19
501.437	366.19
501.654	349.19
501.871	325.19
502.088	327.19
502.305	298.19
502.522	284.19
502.739	296.19
502.956	266.19
503.172	270.19
503.389	258.19
503.606	245.19
503.823	259.19
504.04	276.19
504.256	276.19
504.473	274.19
504.69	276.19
504.907	283.19
505.123	267.19
505.34	268.19
505.557	285.19
505.773	253.19
505.99	260.19
506.207	252.19
506.423	248.19
506.64	217.19
506.856	249.19
507.073	277.19
507.289	241.19
507.506	243.19
507.722	269.19
507.939	285.19
508.155	300.19
508.372	265.19
508.588	240.19
508.805	237.19
509.021	248.19
509.238	244.19
509.454	228.19
509.67	240.19
509.887	247.19
510.103	252.19
510.319	262.19
510.536	249.19
510.752	244.19
510.968	216.19
511.184	222.19
511.401	211.19
511.617	225.19
511.833	229.19
512.049	211.19
512.265	219.19
512.481	221.19
512.698	258.19
512.914	273.19
513.13	270.19
513.346	229.19
513.562	240.19
513.778	239.19
513.994	241.19
514.21	240.19
514.426	233.19
514.642	240.19
514.858	223.19
515.074	231.19
515.29	259.19
515.506	286.19
515.721	275.19
515.937	256.19
516.153	229.19
516.369	245.19
516.585	235.19
516.801	265.19
517.016	318.19
517.232	306.19
517.448	292.19
517.664	278.19
517.879	269.19
518.095	263.19
518.311	267.19
518.527	268.19
518.742	276.19
518.958	290.19
519.173	269.19
519.389	288.19
519.605	279.19
519.82	285.19
520.036	331.19
520.251	318.19
520.467	318.19
520.682	472.19
520.898	580.19
521.113	547.19
521.329	357.19
521.544	299.19
521.76	295.19
521.975	275.19
522.19	246.19
522.406	259.19
522.621	278.19
522.836	315.19
523.052	293.19
523.267	256.19
523.482	262.19
523.698	274.19
523.913	271.19
524.128	239.19
524.343	236.19
524.559	226.19
524.774	217.19
524.989	232.19
525.204	235.19
525.419	262.19
525.634	254.19
525.849	246.19
526.064	248.19
526.28	246.19
526.495	294.19
526.71	326.19
526.925	281.19
527.14	297.19
527.355	288.19
527.57	250.19
527.785	247.19
527.999	229.19
528.214	221.19
528.429	212.19
528.644	220.19
528.859	228.19
529.074	209.19
529.289	204.19
529.503	210.19
529.718	214.19
529.933	262.19
530.148	273.19
530.363	222.19
530.577	231.19
530.792	215.19
531.007	217.19
531.221	208.19
531.436	210.19
531.651	201.19
531.865	192.19
532.08	222.19
532.295	227.19
532.509	224.19
532.724	262.19
532.938	274.19
533.153	332.19
533.367	272.19
533.582	236.19
533.796	224.19
534.011	209.19
534.225	220.19
534.44	213.19
534.654	219.19
534.868	275.19
535.083	253.19
535.297	238.19
535.511	209.19
535.726	247.19
535.94	229.19
536.154	215.19
536.369	206.19
536.583	227.19
536.797	233.19
537.011	221.19
537.225	229.19
537.44	256.19
537.654	205.19
537.868	224.19
538.082	223.19
538.296	202.19
538.51	240.19
538.724	216.19
538.938	221.19
539.153	210.19
539.367	189.19
539.581	199.19
539.795	215.19
540.009	252.19
540.222	231.19
540.436	221.19
540.65	254.19
540.864	249.19
541.078	241.19
541.292	292.19
541.506	229.19
541.72	220.19
541.934	222.19
542.147	216.19
542.361	211.19
542.575	234.19
542.789	221.19
543.002	193.19
543.216	237.19
543.43	207.19
543.644	223.19
543.857	211.19
544.071	197.19
544.285	211.19
544.498	196.19
544.712	196.19
544.925	214.19
545.139	208.19
545.352	196.19
545.566	206.19
545.779	246.19
545.993	215.19
546.206	200.19
546.42	214.19
546.633	200.19
546.847	195.19
547.06	191.19
547.274	192.19
547.487	182.19
547.7	206.19
547.914	224.19
548.127	235.19
548.34	224.19
548.554	197.19
548.767	195.19
548.98	227.19
549.193	209.19
549.407	216.19
549.62	246.19
549.833	219.19
550.046	246.19
550.259	248.19
550.473	213.19
550.686	213.19
550.899	227.19
551.112	217.19
551.325	225.19
551.538	231.19
551.751	229.19
551.964	204.19
552.177	198.19
552.39	204.19
552.603	195.19
552.816	203.19
553.029	212.19
553.242	213.19
553.455	200.19
553.667	237.19
553.88	209.19
554.093	202.19
554.306	195.19
554.519	186.19
554.732	183.19
554.944	185.19
555.157	176.19
555.37	183.19
555.583	181.19
555.795	180.19
556.008	185.19
556.221	195.19
556.433	190.19
556.646	166.19
556.859	177.19
557.071	192.19
557.284	193.19
557.496	192.19
557.709	186.19
557.921	178.19
558.134	166.19
558.346	168.19
558.559	178.19
558.771	189.19
558.984	188.19
559.196	171.19
559.409	157.19
559.621	168.19
559.833	176.19
560.046	165.19
560.258	176.19
560.47	178.19
560.683	173.19
560.895	160.19
561.107	159.19
561.32	174.19
561.532	157.19
561.744	189.19
561.956	176.19
562.168	149.19
562.381	156.19
562.593	172.19
562.805	162.19
563.017	166.19
563.229	177.19
563.441	162.19
563.653	174.19
563.865	169.19
564.077	168.19
564.289	183.19
564.501	178.19
564.713	177.19
564.925	180.19
565.137	176.19
565.349	164.19
565.561	177.19
565.773	186.19
565.985	177.19
566.197	197.19
566.408	195.19
566.62	190.19
566.832	186.19
567.044	202.19
567.255	222.19
567.467	252.19
567.679	218.19
567.891	226.19
568.102	225.19
568.314	232.19
568.526	212.19
568.737	205.19
568.949	228.19
569.161	192.19
569.372	177.19
569.584	157.19
569.795	165.19
570.007	173.19
570.218	180.19
570.43	189.19
570.641	184.19
570.853	170.19
571.064	166.19
571.276	165.19
571.487	181.19
571.698	167.19
571.91	164.19
572.121	153.19
572.333	152.19
572.544	170.19
572.755	162.19
572.966	156.19
573.178	154.19
573.389	166.19
573.6	157.19
573.811	153.19
574.023	150.19
574.234	153.19
574.445	139.19
574.656	136.19
574.867	171.19
575.078	152.19
575.289	159.19
575.501	171.19
575.712	172.19
575.923	153.19
576.134	146.19
576.345	152.19
576.556	168.19
576.767	156.19
576.978	130.19
577.188	146.19
577.399	144.19
577.61	150.19
577.821	140.19
578.032	156.19
578.243	155.19
578.454	142.19
578.665	156.19
578.875	148.19
579.086	161.19
579.297	157.19
579.508	162.19
579.718	154.19
579.929	150.19
580.14	150.19
580.35	146.19
580.561	155.19
580.772	141.19
580.982	125.19
581.193	149.19
581.403	137.19
581.614	138.19
581.825	144.19
582.035	132.19
582.246	128.19
582.456	137.19
582.667	137.19
582.877	125.19
583.087	137.19
583.298	132.19
583.508	141.19
583.719	154.19
583.929	136.19
584.139	128.19
584.35	144.19
584.56	146.19
584.77	135.19
584.981	150.19
585.191	133.19
585.401	131.19
585.611	134.19
585.821	140.19
586.032	144.19
586.242	126.19
586.452	136.19
586.662	145.19
586.872	143.19
587.082	147.19
587.292	139.19
587.502	121.19
587.713	143.19
587.923	139.19
588.133	140.19
588.343	147.19
588.553	134.19
588.762	121.19
588.972	129.19
589.182	145.19
589.392	140.19
589.602	148.19
589.812	134.19
590.022	152.19
590.232	149.19
590.441	148.19
590.651	128.19
590.861	134.19
591.071	133.19
591.281	137.19
591.49	142.19
591.7	146.19
591.91	129.19
592.119	142.19
592.329	135.19
592.539	155.19
592.748	149.19
592.958	134.19
593.167	126.19
593.377	150.19
593.587	153.19
593.796	140.19
594.006	134.19
594.215	140.19
594.424	153.19
594.634	148.19
594.843	160.19
595.053	142.19
595.262	144.19
595.472	138.19
595.681	130.19
595.89	150.19
596.1	146.19
596.309	138.19
596.518	121.19
596.727	129.19
596.937	122.19
597.146	144.19
597.355	145.19
597.564	144.19
597.774	136.19
597.983	130.19
598.192	133.19
598.401	120.19
598.61	124.19
598.819	116.19
599.028	135.19
599.237	123.19
599.446	124.19
599.655	121.19
599.864	132.19
600.073	127.19
600.282	121.19
600.491	120.19
600.7	114.19
600.909	133.19
601.118	142.19
601.327	132.19
601.536	132.19
601.745	120.19
601.953	131.19
602.162	144.19
602.371	142.19
602.58	120.19
602.789	123.19
602.997	131.19
603.206	133.19
603.415	122.19
603.623	132.19
603.832	130.19
604.041	121.19
604.249	127.19
604.458	138.19
604.666	122.19
604.875	123.19
605.084	118.19
605.292	125.19
605.501	118.19
605.709	120.19
605.918	142.19
606.126	132.19
606.334	120.19
606.543	122.19
606.751	122.19
606.96	109.19
607.168	125.19
607.376	122.19
607.585	105.19
607.793	125.19
608.001	126.19
608.21	108.19
608.418	114.19
608.626	108.19
608.834	126.19
609.043	113.19
609.251	132.19
609.459	116.19
609.667	118.19
609.875	108.19
610.083	118.19
610.291	126.19
610.499	110.19
610.707	121.19
610.916	112.19
611.124	128.19
611.332	120.19
611.54	119.19
611.748	113.19
611.955	114.19
612.163	127.19
612.371	134.19
612.579	122.19
612.787	116.19
612.995	103.19
613.203	135.19
613.411	119.19
613.618	126.19
613.826	123.19
614.034	134.19
614.242	124.19
614.449	109.19
614.657	130.19
614.865	113.19
615.072	134.19
615.28	129.19
615.488	123.19
615.695	130.19
615.903	118.19
616.111	119.19
616.318	139.19
616.526	121.19
616.733	131.19
616.941	125.19
617.148	118.19
617.356	106.19
617.563	114.19
617.771	120.19
617.978	114.19
618.185	127.19
618.393	120.19
618.6	132.19
618.807	115.19
619.015	99.19
619.222	102.19
619.429	113.19
619.637	105.19
619.844	115.19
620.051	111.19
620.258	99.19
620.466	123.19
620.673	105.19
620.88	107.19
621.087	106.19
621.294	119.19
621.501	122.19
621.708	120.19
621.915	114.19
622.122	119.19
622.329	93.19
622.536	107.19
622.743	100.19
622.95	122.19
623.157	120.19
623.364	94.19
623.571	112.19
623.778	114.19
623.985	130.19
624.192	127.19
624.399	117.19
624.606	113.19
624.812	113.19
625.019	120.19
625.226	123.19
625.433	124.19
625.639	110.19
625.846	112.19
626.053	107.19
626.259	124.19
626.466	108.19
626.673	115.19
626.879	124.19
627.086	107.19
627.293	111.19
627.499	108.19
627.706	107.19
627.912	115.19
628.119	112.19
628.325	108.19
628.532	98.19
628.738	104.19
628.945	97.19
629.151	124.19
629.357	106.19
629.564	108.19
629.77	103.19
629.976	107.19
630.183	112.19
630.389	106.19
630.595	115.19
630.802	102.19
631.008	97.19
631.214	115.19
631.42	115.19
631.627	104.19
631.833	110.19
632.039	104.19
632.245	107.19
632.451	119.19
632.657	98.19
632.863	114.19
633.069	102.19
633.275	115.19
633.481	110.19
633.688	121.19
633.893	104.19
634.099	94.19
634.305	104.19
634.511	104.19
634.717	91.19
634.923	105.19
635.129	98.19
635.335	108.19
635.541	106.19
635.747	93.19
635.952	99.19
636.158	98.19
636.364	109.19
636.57	98.19
636.775	96.19
636.981	124.19
637.187	108.19
637.392	104.19
637.598	102.19
637.804	91.19
638.009	125.19
638.215	82.19
638.421	99.19
638.626	115.19
638.832	107.19
639.037	94.19
639.243	104.19
639.448	99.19
639.654	103.19
639.859	89.19
640.065	88.19
640.27	124.19
640.475	105.19
640.681	114.19
640.886	112.19
641.091	96.19
641.297	106.19
641.502	103.19
641.707	105.19
641.913	113.19
642.118	95.19
642.323	112.19
642.528	112.19
642.733	100.19
642.939	98.19
643.144	85.19
643.349	91.19
643.554	89.19
643.759	93.19
643.964	106.19
644.169	106.19
644.374	84.19
644.579	107.19
644.784	114.19
644.989	101.19
645.194	93.19
645.399	105.19
645.604	93.19
645.809	105.19
646.014	105.19
646.219	94.19
646.423	105.19
646.628	113.19
646.833	102.19
647.038	99.19
647.243	117.19
647.447	92.19
647.652	96.19
647.857	104.19
648.062	120.19
648.266	115.19
648.471	95.19
648.676	99.19
648.88	95.19
649.085	110.19
649.289	100.19
649.494	107.19
649.698	109.19
649.903	102.19
650.107	108.19
650.312	115.19
650.516	98.19
650.721	112.19
650.925	103.19
651.13	107.19
651.334	105.19
651.539	101.19
651.743	86.19
651.947	102.19
652.152	110.19
652.356	112.19
652.56	91.19
652.764	101.19
652.969	107.19
653.173	99.19
653.377	80.19
653.581	103.19
653.785	91.19
653.99	90.19
654.194	86.19
654.398	100.19
654.602	122.19
654.806	104.19
655.01	103.19
655.214	113.19
655.418	115.19
655.622	91.19
655.826	106.19
656.03	84.19
656.234	87.19
656.438	93.19
656.642	88.19
656.846	87.19
657.049	83.19
657.253	93.19
657.457	82.19
657.661	92.19
657.865	78.19
658.068	96.19
658.272	83.19
658.476	90.19
658.68	92.19
658.883	96.19
659.087	100.19
659.291	94.19
659.494	78.19
659.698	92.19
659.901	88.19
660.105	79.19
660.309	87.19
660.512	89.19
660.716	93.19
660.919	89.19
661.123	81.19
661.326	82.19
661.53	87.19
661.733	79.19
661.936	80.19
662.14	90.19
662.343	65.19
662.546	88.19
662.75	104.19
662.953	103.19
663.156	92.19
663.36	84.19
663.563	86.19
663.766	75.19
663.969	72.19
664.173	84.19
664.376	98.19
664.579	91.19
664.782	86.19
664.985	87.19
665.188	83.19
665.391	77.19
665.594	68.19
665.797	81.19
666	82.19
666.203	79.19
666.406	78.19
666.609	100.19
666.812	90.19
667.015	89.19
667.218	82.19
667.421	82.19
667.624	87.19
667.827	95.19
668.03	85.19
668.232	84.19
668.435	90.19
668.638	80.19
668.841	97.19
669.043	74.19
669.246	93.19
669.449	91.19
669.651	85.19
669.854	91.19
670.057	84.19
670.259	88.19
670.462	85.19
670.665	71.19
670.867	90.19
671.07	85.19
671.272	96.19
671.475	89.19
671.677	88.19
671.88	91.19
672.082	78.19
672.284	86.19
672.487	83.19
672.689	87.19
672.892	85.19
