Data from NickelSpatula.Lamp.E10.P2_HRD10591_12-00-02-523.txt Node
Date: Tue Jul 23 12:00:02 EDT 2019
User: cochatt
Spectrometer: HR+D1059
Trigger mode: 1
Integration Time (sec): 1.000000E-1
Scans to average: 1
Electric dark correction enabled: true
Nonlinearity correction enabled: false
Boxcar width: 0
XAxis mode: Wavelengths
Number of Pixels in Spectrum: 2048
>>>>>Begin Spectral Data<<<<<
223.165	-2
223.4	-2
223.635	-2
223.869	-3
224.104	-27
224.338	-18
224.573	-8
224.808	-17
225.042	-12
225.277	0
225.511	-8
225.746	-5
225.98	3
226.215	3
226.449	-8
226.683	31
226.918	22
227.152	49
227.387	29
227.621	42
227.856	55
228.09	44
228.324	58
228.559	69
228.793	78
229.027	139
229.262	162
229.496	171
229.73	171
229.964	188
230.199	193
230.433	224
230.667	226
230.901	227
231.136	216
231.37	205
231.604	226
231.838	261
232.072	238
232.306	240
232.541	254
232.775	246
233.009	273
233.243	302
233.477	320
233.711	347
233.945	323
234.179	333
234.413	368
234.647	393
234.881	479
235.115	438
235.349	423
235.583	344
235.817	361
236.051	404
236.285	421
236.519	466
236.753	427
236.987	434
237.221	431
237.455	414
237.689	426
237.922	462
238.156	492
238.39	556
238.624	694
238.858	627
239.091	506
239.325	509
239.559	488
239.793	576
240.027	677
240.26	623
240.494	575
240.728	626
240.961	698
241.195	638
241.429	658
241.662	640
241.896	538
242.13	488
242.363	478
242.597	460
242.83	558
243.064	542
243.298	570
243.531	638
243.765	653
243.998	628
244.232	600
244.465	606
244.699	583
244.932	704
245.166	649
245.399	555
245.633	559
245.866	578
246.099	631
246.333	722
246.566	806
246.8	790
247.033	760
247.266	715
247.5	716
247.733	694
247.966	688
248.2	728
248.433	802
248.666	859
248.899	855
249.133	908
249.366	1026
249.599	1083
249.832	958
250.066	854
250.299	845
250.532	820
250.765	794
250.998	746
251.231	730
251.465	800
251.698	840
251.931	832
252.164	869
252.397	942
252.63	1072
252.863	1193
253.096	1248
253.329	1203
253.562	1131
253.795	1281
254.028	1400
254.261	1414
254.494	1301
254.727	1192
254.96	1155
255.193	1199
255.426	1159
255.659	872
255.892	798
256.124	879
256.357	1049
256.59	1227
256.823	1170
257.056	1008
257.289	960
257.521	987
257.754	1174
257.987	1290
258.22	1156
258.452	1030
258.685	1168
258.918	1310
259.151	1287
259.383	1326
259.616	1516
259.849	1607
260.081	1726
260.314	1899
260.547	1498
260.779	1507
261.012	1754
261.244	1649
261.477	1682
261.71	1568
261.942	1311
262.175	1307
262.407	1243
262.64	1311
262.872	1513
263.105	1656
263.337	1804
263.57	1581
263.802	1034
264.035	900
264.267	865
264.499	774
264.732	717
264.964	713
265.197	716
265.429	776
265.661	845
265.894	864
266.126	933
266.358	1031
266.591	1298
266.823	1558
267.055	1456
267.287	1280
267.52	1284
267.752	1335
267.984	1481
268.216	1404
268.448	1146
268.681	1119
268.913	1224
269.145	1296
269.377	1360
269.609	1347
269.841	1256
270.073	1327
270.306	1394
270.538	1450
270.77	1400
271.002	1475
271.234	1477
271.466	1538
271.698	1450
271.93	1467
272.162	1479
272.394	1460
272.626	1471
272.858	1497
273.09	1545
273.322	1356
273.553	1314
273.785	1574
274.017	2046
274.249	2505
274.481	2622
274.713	2788
274.945	3230
275.176	3434
275.408	2929
275.64	2718
275.872	2752
276.104	2270
276.335	1986
276.567	1978
276.799	2005
277.031	2106
277.262	1649
277.494	1284
277.726	1228
277.957	1365
278.189	1568
278.421	1497
278.652	1469
278.884	1426
279.115	1293
279.347	1209
279.579	1240
279.81	1251
280.042	1220
280.273	1265
280.505	1146
280.736	1058
280.968	1054
281.199	1098
281.431	1238
281.662	1214
281.894	1200
282.125	1271
282.356	1400
282.588	1434
282.819	1290
283.051	1398
283.282	1721
283.513	2001
283.745	2188
283.976	2252
284.207	2082
284.439	2127
284.67	2068
284.901	1822
285.132	1974
285.364	2094
285.595	1858
285.826	2048
286.057	2114
286.288	2029
286.52	2070
286.751	2156
286.982	2164
287.213	1855
287.444	1772
287.675	1874
287.906	1872
288.138	1572
288.369	1384
288.6	1291
288.831	1359
289.062	1559
289.293	1744
289.524	1677
289.755	1656
289.986	1701
290.217	1467
290.448	1121
290.679	986
290.91	924
291.141	913
291.371	994
291.602	1027
291.833	1026
292.064	1090
292.295	1241
292.526	1438
292.757	1482
292.987	1569
293.218	1588
293.449	1636
293.68	1701
293.91	1615
294.141	1627
294.372	1569
294.603	1463
294.833	1621
295.064	1865
295.295	1781
295.525	1347
295.756	1175
295.987	1042
296.217	1022
296.448	1078
296.679	1129
296.909	1238
297.14	1376
297.37	1460
297.601	1414
297.831	1202
298.062	1284
298.292	1498
298.523	1632
298.753	1859
298.984	1603
299.214	1296
299.445	1088
299.675	1090
299.905	1063
300.136	1111
300.366	1236
300.597	1186
300.827	1056
301.057	1033
301.288	1020
301.518	1099
301.748	1258
301.979	1333
302.209	1502
302.439	1528
302.669	1282
302.9	1278
303.13	1172
303.36	1121
303.59	1055
303.82	1107
304.051	1274
304.281	1399
304.511	1299
304.741	1193
304.971	1235
305.201	1338
305.431	1243
305.661	1118
305.891	1118
306.121	1078
306.352	958
306.582	909
306.812	864
307.042	888
307.272	822
307.502	843
307.731	914
307.961	938
308.191	889
308.421	799
308.651	803
308.881	789
309.111	792
309.341	819
309.571	908
309.8	946
310.03	973
310.26	1050
310.49	997
310.72	854
310.949	851
311.179	905
311.409	932
311.639	1099
311.868	1395
312.098	1826
312.328	2009
312.557	1930
312.787	1919
313.017	1733
313.246	1820
313.476	2026
313.706	1690
313.935	1339
314.165	1066
314.394	958
314.624	980
314.853	1050
315.083	1072
315.312	1047
315.542	1001
315.771	968
316.001	869
316.23	850
316.46	891
316.689	874
316.919	896
317.148	930
317.377	889
317.607	913
317.836	986
318.065	1128
318.295	1280
318.524	1187
318.753	1001
318.983	950
319.212	934
319.441	1011
319.67	1122
319.9	1229
320.129	1167
320.358	982
320.587	977
320.816	1030
321.046	1223
321.275	1392
321.504	1366
321.733	1346
321.962	1280
322.191	1190
322.42	1146
322.649	1160
322.878	1247
323.108	1252
323.337	1147
323.566	1117
323.795	1094
324.024	1051
324.253	1011
324.482	1002
324.71	1102
324.939	1251
325.168	1154
325.397	932
325.626	937
325.855	900
326.084	937
326.313	919
326.542	831
326.77	875
326.999	935
327.228	1010
327.457	1006
327.686	1026
327.914	875
328.143	866
328.372	834
328.6	808
328.829	885
329.058	918
329.287	886
329.515	952
329.744	898
329.972	838
330.201	842
330.43	884
330.658	963
330.887	1094
331.115	1076
331.344	1033
331.572	966
331.801	929
332.03	874
332.258	889
332.486	956
332.715	988
332.943	920
333.172	915
333.4	955
333.629	1035
333.857	1159
334.085	1104
334.314	1106
334.542	1051
334.771	987
334.999	962
335.227	959
335.455	961
335.684	1056
335.912	1202
336.14	1373
336.369	1297
336.597	1219
336.825	1396
337.053	1553
337.281	1247
337.51	994
337.738	1001
337.966	1084
338.194	1212
338.422	1156
338.65	978
338.878	907
339.106	933
339.334	1018
339.562	1121
339.79	999
340.018	986
340.246	1100
340.474	1221
340.702	1290
340.93	1335
341.158	1366
341.386	1148
341.614	1141
341.842	1143
342.07	1177
342.298	1356
342.526	1417
342.754	1244
342.981	1128
343.209	1059
343.437	1158
343.665	1194
343.893	1226
344.12	1416
344.348	1641
344.576	1454
344.804	1226
345.031	1061
345.259	1002
345.487	1014
345.714	1062
345.942	1119
346.17	1200
346.397	1152
346.625	1020
346.853	980
347.08	962
347.308	1030
347.535	1152
347.763	1155
347.99	1011
348.218	932
348.445	970
348.673	1006
348.9	1007
349.128	1076
349.355	1081
349.583	1083
349.81	1025
350.037	968
350.265	888
350.492	826
350.72	802
350.947	846
351.174	896
351.402	984
351.629	1015
351.856	963
352.083	946
352.311	1014
352.538	1106
352.765	1200
352.992	1077
353.22	1044
353.447	1043
353.674	1029
353.901	993
354.128	1025
354.355	1037
354.583	1015
354.81	1001
355.037	1030
355.264	1028
355.491	1106
355.718	1256
355.945	1178
356.172	1127
356.399	1119
356.626	1393
356.853	1686
357.08	1766
357.307	1832
357.534	1410
357.761	1448
357.988	1873
358.215	2161
358.441	2039
358.668	1708
358.895	1607
359.122	1252
359.349	1232
359.576	1381
359.802	1170
360.029	965
360.256	1064
360.483	1330
360.709	1667
360.936	1754
361.163	1523
361.39	1176
361.616	1065
361.843	1280
362.07	1575
362.296	1454
362.523	1098
362.749	953
362.976	1001
363.203	1234
363.429	1384
363.656	1162
363.882	1018
364.109	1022
364.335	1019
364.562	1017
364.788	1151
365.015	1368
365.241	1220
365.468	968
365.694	855
365.92	842
366.147	824
366.373	815
366.599	800
366.826	832
367.052	844
367.278	852
367.505	834
367.731	911
367.957	1056
368.184	1075
368.41	1041
368.636	1024
368.862	1092
369.089	1038
369.315	931
369.541	875
369.767	917
369.993	896
370.219	896
370.445	926
370.672	1060
370.898	1123
371.124	1109
371.35	969
371.576	913
371.802	982
372.028	1212
372.254	1408
372.48	1166
372.706	1076
372.932	1110
373.158	1159
373.384	1410
373.61	1900
373.835	1966
374.061	1426
374.287	1181
374.513	1440
374.739	1739
374.965	1790
375.191	1759
375.416	1202
375.642	1051
375.868	1227
376.094	1416
376.319	1214
376.545	1339
376.771	1419
376.997	1198
377.222	871
377.448	764
377.674	750
377.899	771
378.125	756
378.35	767
378.576	785
378.802	893
379.027	937
379.253	937
379.478	964
379.704	1111
379.929	1129
380.155	1131
380.38	985
380.606	1052
380.831	1148
381.057	1027
381.282	985
381.507	1189
381.733	1553
381.958	1618
382.184	1659
382.409	1778
382.634	1743
382.86	1874
383.085	1521
383.31	1166
383.535	1253
383.761	1310
383.986	1230
384.211	1481
384.436	1402
384.662	1075
384.887	1000
385.112	1063
385.337	1098
385.562	1015
385.787	1129
386.013	1250
386.238	1298
386.463	1057
386.688	1018
386.913	975
387.138	912
387.363	962
387.588	1038
387.813	1042
388.038	1162
388.263	995
388.488	971
388.713	1154
388.938	1264
389.163	1062
389.387	936
389.612	942
389.837	1002
390.062	1005
390.287	1063
390.512	1054
390.736	934
390.961	908
391.186	863
391.411	862
391.636	859
391.86	956
392.085	1013
392.31	1005
392.534	988
392.759	952
392.984	1034
393.208	977
393.433	881
393.658	822
393.882	814
394.107	826
394.331	819
394.556	816
394.78	826
395.005	857
395.229	886
395.454	890
395.678	891
395.903	911
396.127	908
396.352	888
396.576	983
396.801	1070
397.025	1156
397.249	1168
397.474	966
397.698	950
397.922	988
398.147	954
398.371	930
398.595	1007
398.82	959
399.044	972
399.268	1019
399.492	1056
399.717	1059
399.941	1113
400.165	1048
400.389	1060
400.613	1071
400.837	1054
401.062	914
401.286	892
401.51	909
401.734	919
401.958	916
402.182	917
402.406	949
402.63	930
402.854	971
403.078	1100
403.302	1371
403.526	1389
403.75	1243
403.974	1093
404.198	1129
404.422	1254
404.645	1476
404.869	1623
405.093	1224
405.317	1006
405.541	1006
405.765	1040
405.988	1057
406.212	1143
406.436	1352
406.66	1492
406.883	1180
407.107	1185
407.331	1380
407.555	1354
407.778	1108
408.002	1092
408.226	1089
408.449	1074
408.673	1054
408.896	934
409.12	933
409.344	949
409.567	899
409.791	875
410.014	915
410.238	886
410.461	896
410.685	890
410.908	911
411.132	916
411.355	924
411.578	968
411.802	979
412.025	1013
412.249	1008
412.472	985
412.695	969
412.919	967
413.142	1010
413.365	1062
413.589	1083
413.812	971
414.035	922
414.258	975
414.482	1084
414.705	1076
414.928	907
415.151	882
415.374	892
415.597	985
415.821	934
416.044	918
416.267	870
416.49	890
416.713	870
416.936	832
417.159	888
417.382	909
417.605	915
417.828	963
418.051	928
418.274	962
418.497	959
418.72	959
418.943	977
419.166	1040
419.389	1060
419.611	1030
419.834	1044
420.057	1144
420.28	1152
420.503	1065
420.726	910
420.948	891
421.171	914
421.394	894
421.617	849
421.839	888
422.062	932
422.285	929
422.507	947
422.73	991
422.953	995
423.175	934
423.398	956
423.621	1028
423.843	1074
424.066	1003
424.288	939
424.511	937
424.733	946
424.956	1002
425.178	1147
425.401	1264
425.623	1461
425.846	1188
426.068	1046
426.291	1147
426.513	1044
426.735	956
426.958	1014
427.18	1190
427.402	1563
427.625	1539
427.847	1243
428.069	924
428.292	896
428.514	895
428.736	891
428.958	981
429.181	1158
429.403	1018
429.625	921
429.847	888
430.069	919
430.292	960
430.514	874
430.736	955
430.958	1228
431.18	1120
431.402	871
431.624	827
431.846	831
432.068	820
432.29	846
432.512	939
432.734	1252
432.956	1179
433.178	907
433.4	858
433.622	867
433.844	880
434.066	968
434.287	920
434.509	888
434.731	923
434.953	868
435.175	942
435.397	1058
435.618	939
435.84	823
436.062	824
436.284	865
436.505	793
436.727	790
436.949	818
437.17	830
437.392	847
437.614	850
437.835	842
438.057	851
438.278	989
438.5	1426
438.721	1410
438.943	951
439.165	820
439.386	789
439.608	827
439.829	797
440.05	800
440.272	861
440.493	1020
440.715	1274
440.936	1022
441.158	870
441.379	887
441.6	977
441.822	1072
442.043	907
442.264	865
442.486	876
442.707	892
442.928	875
443.149	905
443.371	934
443.592	928
443.813	934
444.034	900
444.255	905
444.476	969
444.698	959
444.919	964
445.14	1040
445.361	1009
445.582	970
445.803	958
446.024	958
446.245	961
446.466	934
446.687	893
446.908	902
447.129	838
447.35	801
447.571	795
447.792	804
448.013	826
448.234	777
448.455	807
448.675	825
448.896	815
449.117	822
449.338	827
449.559	831
449.779	869
450	877
450.221	849
450.442	823
450.662	821
450.883	857
451.104	849
451.324	793
451.545	844
451.766	782
451.986	782
452.207	779
452.428	802
452.648	811
452.869	826
453.089	848
453.31	847
453.53	754
453.751	766
453.971	764
454.192	768
454.412	822
454.633	779
454.853	754
455.073	742
455.294	737
455.514	759
455.734	796
455.955	834
456.175	888
456.395	738
456.616	715
456.836	717
457.056	718
457.276	715
457.497	716
457.717	732
457.937	712
458.157	741
458.377	723
458.598	760
458.818	772
459.038	790
459.258	820
459.478	880
459.698	912
459.918	934
460.138	859
460.358	914
460.578	883
460.798	912
461.018	904
461.238	855
461.458	867
461.678	889
461.898	954
462.118	943
462.338	962
462.558	938
462.777	1008
462.997	1049
463.217	1017
463.437	1070
463.657	1021
463.876	980
464.096	985
464.316	966
464.536	978
464.755	1055
464.975	1057
465.195	999
465.414	1036
465.634	985
465.854	967
466.073	878
466.293	893
466.512	934
466.732	1046
466.951	1075
467.171	937
467.391	896
467.61	885
467.829	920
468.049	962
468.268	874
468.488	885
468.707	908
468.927	1073
469.146	1155
469.365	1042
469.585	974
469.804	1025
470.023	1142
470.243	969
470.462	938
470.681	915
470.901	922
471.12	1008
471.339	998
471.558	916
471.777	966
471.997	1024
472.216	1152
472.435	1073
472.654	1022
472.873	978
473.092	1003
473.311	1084
473.53	970
473.749	932
473.968	987
474.187	1016
474.406	918
474.625	920
474.844	977
475.063	1033
475.282	1047
475.501	1090
475.72	1158
475.939	1121
476.158	1148
476.377	1286
476.596	1473
476.814	1526
477.033	1264
477.252	1076
477.471	1016
477.69	1030
477.908	1128
478.127	1173
478.346	1060
478.564	1124
478.783	1087
479.002	1122
479.22	1289
479.439	1448
479.658	1231
479.876	1141
480.095	1231
480.313	1254
480.532	1126
480.751	1105
480.969	1147
481.188	1318
481.406	1348
481.624	1257
481.843	1136
482.061	1097
482.28	1219
482.498	1507
482.717	1406
482.935	1222
483.153	1152
483.372	1084
483.59	1058
483.808	1049
484.027	1066
484.245	1025
484.463	993
484.681	1052
484.9	1128
485.118	1186
485.336	1154
485.554	1070
485.772	1110
485.99	1193
486.209	1272
486.427	1262
486.645	1207
486.863	1282
487.081	1250
487.299	1417
487.517	1406
487.735	1228
487.953	1261
488.171	1303
488.389	1194
488.607	1143
488.825	1178
489.043	1286
489.261	1490
489.479	1596
489.696	1309
489.914	1208
490.132	1140
490.35	1136
490.568	1167
490.786	1129
491.003	1120
491.221	1186
491.439	1154
491.657	1177
491.874	1274
492.092	1571
492.31	1816
492.527	1813
492.745	1562
492.963	1347
493.18	1286
493.398	1316
493.615	1311
493.833	1250
494.05	1283
494.268	1291
494.485	1262
494.703	1224
494.92	1270
495.138	1229
495.355	1245
495.573	1244
495.79	1434
496.008	1898
496.225	1634
496.442	1383
496.66	1357
496.877	1500
497.094	1424
497.312	1338
497.529	1353
497.746	1345
497.963	1375
498.181	1519
498.398	1616
498.615	1691
498.832	1718
499.049	1741
499.267	1564
499.484	1590
499.701	1665
499.918	1772
500.135	1877
500.352	1916
500.569	2030
500.786	2096
501.003	2045
501.22	1893
501.437	1744
501.654	1682
501.871	1617
502.088	1670
502.305	1500
502.522	1552
502.739	1525
502.956	1394
503.172	1388
503.389	1342
503.606	1303
503.823	1317
504.04	1332
504.256	1339
504.473	1343
504.69	1394
504.907	1406
505.123	1403
505.34	1490
505.557	1452
505.773	1358
505.99	1330
506.207	1396
506.423	1284
506.64	1205
506.856	1259
507.073	1398
507.289	1339
507.506	1392
507.722	1404
507.939	1449
508.155	1484
508.372	1345
508.588	1284
508.805	1238
509.021	1224
509.238	1207
509.454	1168
509.67	1225
509.887	1233
510.103	1361
510.319	1340
510.536	1191
510.752	1115
510.968	1059
511.184	1024
511.401	1045
511.617	1046
511.833	1044
512.049	1074
512.265	1125
512.481	1160
512.698	1289
512.914	1390
513.13	1241
513.346	1127
513.562	1192
513.778	1173
513.994	1175
514.21	1312
514.426	1239
514.642	1176
514.858	1170
515.074	1214
515.29	1311
515.506	1471
515.721	1361
515.937	1251
516.153	1202
516.369	1205
516.585	1237
516.801	1404
517.016	1621
517.232	1594
517.448	1561
517.664	1407
517.879	1331
518.095	1290
518.311	1294
518.527	1343
518.742	1369
518.958	1492
519.173	1436
519.389	1405
519.605	1418
519.82	1506
520.036	1810
520.251	1764
520.467	1628
520.682	2488
520.898	3041
521.113	2888
521.329	1774
521.544	1552
521.76	1539
521.975	1358
522.19	1303
522.406	1352
522.621	1533
522.836	1579
523.052	1616
523.267	1294
523.482	1332
523.698	1460
523.913	1370
524.128	1237
524.343	1227
524.559	1235
524.774	1182
524.989	1161
525.204	1194
525.419	1354
525.634	1241
525.849	1295
526.064	1281
526.28	1303
526.495	1548
526.71	1593
526.925	1398
527.14	1451
527.355	1380
527.57	1169
527.785	1240
527.999	1150
528.214	1083
528.429	1101
528.644	1072
528.859	1032
529.074	1016
529.289	1011
529.503	997
529.718	1042
529.933	1204
530.148	1230
530.363	1096
530.577	1032
530.792	1006
531.007	987
531.221	1000
531.436	1015
531.651	985
531.865	1032
532.08	1062
532.295	1012
532.509	1025
532.724	1207
532.938	1335
533.153	1558
533.367	1234
533.582	1209
533.796	1086
534.011	1062
534.225	1092
534.44	1108
534.654	1112
534.868	1287
535.083	1156
535.297	1017
535.511	1033
535.726	1150
535.94	1093
536.154	1038
536.369	1008
536.583	976
536.797	1060
537.011	1064
537.225	1131
537.44	1205
537.654	1067
537.868	1054
538.082	1066
538.296	1030
538.51	1114
538.724	1118
538.938	1065
539.153	1019
539.367	998
539.581	1040
539.795	1070
540.009	1193
540.222	1081
540.436	1101
540.65	1222
540.864	1200
541.078	1220
541.292	1420
541.506	1117
541.72	1088
541.934	1067
542.147	1052
542.361	1056
542.575	1070
542.789	1056
543.002	967
543.216	1096
543.43	980
543.644	975
543.857	962
544.071	948
544.285	972
544.498	923
544.712	920
544.925	1032
545.139	990
545.352	924
545.566	912
545.779	1074
545.993	950
546.206	903
546.42	893
546.633	870
546.847	871
547.06	881
547.274	862
547.487	913
547.7	972
547.914	1034
548.127	1123
548.34	1110
548.554	980
548.767	1003
548.98	1087
549.193	1017
549.407	1030
549.62	1188
549.833	1123
550.046	1168
550.259	1179
550.473	1039
550.686	1010
550.899	1001
551.112	999
551.325	1059
551.538	1114
551.751	960
551.964	881
552.177	902
552.39	886
552.603	890
552.816	949
553.029	893
553.242	889
553.455	962
553.667	1031
553.88	994
554.093	912
554.306	878
554.519	818
554.732	810
554.944	784
555.157	770
555.37	783
555.583	805
555.795	793
556.008	817
556.221	832
556.433	808
556.646	779
556.859	800
557.071	834
557.284	826
557.496	856
557.709	840
557.921	798
558.134	750
558.346	737
558.559	780
558.771	798
558.984	866
559.196	789
559.409	762
559.621	722
559.833	704
560.046	740
560.258	708
560.47	777
560.683	720
560.895	699
561.107	677
561.32	713
561.532	699
561.744	798
561.956	784
562.168	719
562.381	710
562.593	701
562.805	755
563.017	713
563.229	667
563.441	660
563.653	689
563.865	700
564.077	715
564.289	694
564.501	700
564.713	743
564.925	729
565.137	707
565.349	706
565.561	708
565.773	750
565.985	769
566.197	802
566.408	842
566.62	882
566.832	833
567.044	839
567.255	934
567.467	996
567.679	872
567.891	878
568.102	902
568.314	894
568.526	867
568.737	822
568.949	890
569.161	776
569.372	716
569.584	692
569.795	691
570.007	694
570.218	778
570.43	753
570.641	715
570.853	678
571.064	674
571.276	684
571.487	718
571.698	675
571.91	667
572.121	678
572.333	631
572.544	610
572.755	652
572.966	632
573.178	616
573.389	655
573.6	634
573.811	631
574.023	590
574.234	588
574.445	590
574.656	572
574.867	589
575.078	608
575.289	603
575.501	633
575.712	596
575.923	560
576.134	540
576.345	561
576.556	579
576.767	524
576.978	540
577.188	522
577.399	496
577.61	520
577.821	547
578.032	543
578.243	570
578.454	604
578.665	595
578.875	575
579.086	564
579.297	555
579.508	570
579.718	582
579.929	563
580.14	540
580.35	513
580.561	492
580.772	494
580.982	492
581.193	489
581.403	502
581.614	483
581.825	457
582.035	494
582.246	483
582.456	468
582.667	468
582.877	477
583.087	480
583.298	461
583.508	467
583.719	449
583.929	471
584.139	468
584.35	484
584.56	505
584.77	472
584.981	482
585.191	474
585.401	470
585.611	508
585.821	498
586.032	490
586.242	468
586.452	480
586.662	474
586.872	505
587.082	489
587.292	480
587.502	471
587.713	427
587.923	487
588.133	515
588.343	480
588.553	477
588.762	463
588.972	448
589.182	451
589.392	447
589.602	466
589.812	481
590.022	528
590.232	508
590.441	465
590.651	449
590.861	471
591.071	451
591.281	444
591.49	434
591.7	451
591.91	454
592.119	436
592.329	462
592.539	461
592.748	464
592.958	493
593.167	498
593.377	482
593.587	496
593.796	488
594.006	460
594.215	477
594.424	490
594.634	496
594.843	498
595.053	475
595.262	463
595.472	442
595.681	432
595.89	435
596.1	434
596.309	476
596.518	434
596.727	432
596.937	425
597.146	436
597.355	476
597.564	451
597.774	420
597.983	410
598.192	425
598.401	410
598.61	388
598.819	393
599.028	399
599.237	384
599.446	384
599.655	389
599.864	364
600.073	372
600.282	386
600.491	394
600.7	386
600.909	392
601.118	381
601.327	414
601.536	382
601.745	410
601.953	419
602.162	412
602.371	417
602.58	419
602.789	411
602.997	385
603.206	399
603.415	402
603.623	378
603.832	375
604.041	367
604.249	373
604.458	389
604.666	376
604.875	355
605.084	337
605.292	358
605.501	376
605.709	392
605.918	373
606.126	350
606.334	368
606.543	367
606.751	378
606.96	353
607.168	350
607.376	348
607.585	351
607.793	355
608.001	359
608.21	358
608.418	366
608.626	376
608.834	362
609.043	336
609.251	339
609.459	319
609.667	358
609.875	354
610.083	358
610.291	354
610.499	340
610.707	367
610.916	324
611.124	355
611.332	335
611.54	347
611.748	342
611.955	340
612.163	345
612.371	354
612.579	316
612.787	339
612.995	326
613.203	313
613.411	343
613.618	325
613.826	356
614.034	353
614.242	322
614.449	329
614.657	335
614.865	328
615.072	319
615.28	331
615.488	322
615.695	334
615.903	314
616.111	332
616.318	321
616.526	338
616.733	322
616.941	330
617.148	342
617.356	321
617.563	308
617.771	316
617.978	342
618.185	316
618.393	290
618.6	324
618.807	312
619.015	321
619.222	326
619.429	320
619.637	336
619.844	324
620.051	315
620.258	304
620.466	298
620.673	299
620.88	299
621.087	288
621.294	283
621.501	289
621.708	282
621.915	297
622.122	298
622.329	298
622.536	296
622.743	297
622.95	290
623.157	288
623.364	300
623.571	318
623.778	306
623.985	312
624.192	305
624.399	296
624.606	297
624.812	299
625.019	303
625.226	325
625.433	297
625.639	291
625.846	280
626.053	281
626.259	276
626.466	300
626.673	313
626.879	290
627.086	265
627.293	291
627.499	276
627.706	290
627.912	262
628.119	271
628.325	262
628.532	256
628.738	274
628.945	270
629.151	268
629.357	264
629.564	261
629.77	258
629.976	254
630.183	269
630.389	272
630.595	262
630.802	254
631.008	258
631.214	267
631.42	265
631.627	257
631.833	262
632.039	261
632.245	246
632.451	243
632.657	245
632.863	248
633.069	238
633.275	254
633.481	231
633.688	259
633.893	264
634.099	238
634.305	231
634.511	235
634.717	231
634.923	228
635.129	225
635.335	240
635.541	249
635.747	223
635.952	259
636.158	246
636.364	240
636.57	250
636.775	245
636.981	219
637.187	224
637.392	232
637.598	220
637.804	239
638.009	243
638.215	234
638.421	230
638.626	218
638.832	227
639.037	219
639.243	221
639.448	256
639.654	236
639.859	239
640.065	226
640.27	246
640.475	228
640.681	230
640.886	211
641.091	235
641.297	226
641.502	230
641.707	216
641.913	213
642.118	234
642.323	229
642.528	218
642.733	225
642.939	233
643.144	220
643.349	226
643.554	219
643.759	216
643.964	212
644.169	206
644.374	210
644.579	215
644.784	211
644.989	222
645.194	218
645.399	223
645.604	219
645.809	224
646.014	229
646.219	214
646.423	199
646.628	230
646.833	210
647.038	208
647.243	212
647.447	225
647.652	198
647.857	208
648.062	211
648.266	216
648.471	214
648.676	211
648.88	216
649.085	218
649.289	214
649.494	216
649.698	220
649.903	215
650.107	206
650.312	186
650.516	189
650.721	185
650.925	196
651.13	199
651.334	195
651.539	191
651.743	184
651.947	179
652.152	188
652.356	184
652.56	179
652.764	182
652.969	169
653.173	168
653.377	178
653.581	166
653.785	162
653.99	185
654.194	175
654.398	161
654.602	162
654.806	175
655.01	178
655.214	167
655.418	154
655.622	153
655.826	168
656.03	162
656.234	152
656.438	176
656.642	158
656.846	166
657.049	161
657.253	156
657.457	126
657.661	138
657.865	131
658.068	129
658.272	124
658.476	135
658.68	141
658.883	121
659.087	125
659.291	107
659.494	118
659.698	111
659.901	117
660.105	106
660.309	104
660.512	101
660.716	101
660.919	98
661.123	106
661.326	97
661.53	99
661.733	93
661.936	103
662.14	84
662.343	93
662.546	102
662.75	103
662.953	91
663.156	79
663.36	89
663.563	83
663.766	89
663.969	85
664.173	86
664.376	83
664.579	75
664.782	94
664.985	87
665.188	76
665.391	93
665.594	92
665.797	87
666	81
666.203	96
666.406	77
666.609	84
666.812	89
667.015	74
667.218	73
667.421	71
667.624	70
667.827	95
668.03	86
668.232	72
668.435	86
668.638	94
668.841	90
669.043	89
669.246	90
669.449	84
669.651	94
669.854	82
670.057	82
670.259	72
670.462	85
670.665	89
670.867	93
671.07	79
671.272	76
671.475	92
671.677	99
671.88	96
672.082	90
672.284	76
672.487	95
672.689	97
672.892	73
