Data from NickelSpatula.Lamp.E5.5.P2_HRD10591_11-51-11-562.txt Node
Date: Tue Jul 23 11:51:11 EDT 2019
User: cochatt
Spectrometer: HR+D1059
Trigger mode: 1
Integration Time (sec): 1.000000E-1
Scans to average: 1
Electric dark correction enabled: true
Nonlinearity correction enabled: false
Boxcar width: 0
XAxis mode: Wavelengths
Number of Pixels in Spectrum: 2048
>>>>>Begin Spectral Data<<<<<
223.165	-19.69
223.4	-19.69
223.635	-19.69
223.869	-13.69
224.104	-21.69
224.338	-28.69
224.573	-1.69
224.808	-20.69
225.042	-18.69
225.277	2.31
225.511	2.31
225.746	9.31
225.98	3.31
226.215	9.31
226.449	12.31
226.683	12.31
226.918	38.31
227.152	35.31
227.387	37.31
227.621	22.31
227.856	46.31
228.09	50.31
228.324	44.31
228.559	65.31
228.793	57.31
229.027	58.31
229.262	80.31
229.496	77.31
229.73	70.31
229.964	81.31
230.199	84.31
230.433	95.31
230.667	83.31
230.901	82.31
231.136	89.31
231.37	89.31
231.604	103.31
231.838	103.31
232.072	93.31
232.306	89.31
232.541	94.31
232.775	85.31
233.009	114.31
233.243	95.31
233.477	103.31
233.711	117.31
233.945	118.31
234.179	114.31
234.413	110.31
234.647	122.31
234.881	126.31
235.115	118.31
235.349	122.31
235.583	111.31
235.817	131.31
236.051	126.31
236.285	114.31
236.519	126.31
236.753	128.31
236.987	119.31
237.221	130.31
237.455	135.31
237.689	118.31
237.922	126.31
238.156	144.31
238.39	150.31
238.624	156.31
238.858	164.31
239.091	125.31
239.325	133.31
239.559	125.31
239.793	131.31
240.027	173.31
240.26	147.31
240.494	141.31
240.728	150.31
240.961	164.31
241.195	170.31
241.429	169.31
241.662	169.31
241.896	147.31
242.13	122.31
242.363	118.31
242.597	125.31
242.83	148.31
243.064	134.31
243.298	150.31
243.531	150.31
243.765	150.31
243.998	169.31
244.232	149.31
244.465	154.31
244.699	129.31
244.932	157.31
245.166	161.31
245.399	151.31
245.633	144.31
245.866	139.31
246.099	151.31
246.333	142.31
246.566	168.31
246.8	179.31
247.033	171.31
247.266	165.31
247.5	157.31
247.733	158.31
247.966	156.31
248.2	156.31
248.433	166.31
248.666	181.31
248.899	202.31
249.133	156.31
249.366	212.31
249.599	210.31
249.832	208.31
250.066	183.31
250.299	182.31
250.532	182.31
250.765	181.31
250.998	170.31
251.231	164.31
251.465	181.31
251.698	172.31
251.931	179.31
252.164	189.31
252.397	211.31
252.63	213.31
252.863	216.31
253.096	238.31
253.329	230.31
253.562	225.31
253.795	232.31
254.028	255.31
254.261	281.31
254.494	235.31
254.727	217.31
254.96	208.31
255.193	245.31
255.426	245.31
255.659	202.31
255.892	193.31
256.124	188.31
256.357	222.31
256.59	251.31
256.823	232.31
257.056	205.31
257.289	193.31
257.521	195.31
257.754	253.31
257.987	277.31
258.22	259.31
258.452	219.31
258.685	242.31
258.918	258.31
259.151	259.31
259.383	260.31
259.616	313.31
259.849	326.31
260.081	312.31
260.314	349.31
260.547	297.31
260.779	289.31
261.012	343.31
261.244	325.31
261.477	334.31
261.71	294.31
261.942	271.31
262.175	259.31
262.407	242.31
262.64	253.31
262.872	285.31
263.105	308.31
263.337	327.31
263.57	295.31
263.802	222.31
264.035	196.31
264.267	202.31
264.499	181.31
264.732	171.31
264.964	173.31
265.197	157.31
265.429	181.31
265.661	187.31
265.894	202.31
266.126	199.31
266.358	219.31
266.591	275.31
266.823	282.31
267.055	269.31
267.287	258.31
267.52	261.31
267.752	285.31
267.984	297.31
268.216	281.31
268.448	229.31
268.681	236.31
268.913	243.31
269.145	255.31
269.377	249.31
269.609	266.31
269.841	254.31
270.073	278.31
270.306	286.31
270.538	297.31
270.77	297.31
271.002	284.31
271.234	292.31
271.466	302.31
271.698	299.31
271.93	263.31
272.162	263.31
272.394	283.31
272.626	259.31
272.858	278.31
273.09	276.31
273.322	263.31
273.553	229.31
273.785	271.31
274.017	324.31
274.249	437.31
274.481	419.31
274.713	482.31
274.945	536.31
275.176	554.31
275.408	476.31
275.64	431.31
275.872	460.31
276.104	414.31
276.335	352.31
276.567	370.31
276.799	368.31
277.031	383.31
277.262	317.31
277.494	257.31
277.726	246.31
277.957	269.31
278.189	278.31
278.421	289.31
278.652	276.31
278.884	269.31
279.115	240.31
279.347	246.31
279.579	254.31
279.81	254.31
280.042	254.31
280.273	261.31
280.505	257.31
280.736	209.31
280.968	225.31
281.199	238.31
281.431	252.31
281.662	262.31
281.894	248.31
282.125	260.31
282.356	279.31
282.588	273.31
282.819	271.31
283.051	272.31
283.282	313.31
283.513	358.31
283.745	372.31
283.976	383.31
284.207	373.31
284.439	405.31
284.67	359.31
284.901	320.31
285.132	377.31
285.364	365.31
285.595	333.31
285.826	351.31
286.057	374.31
286.288	363.31
286.52	368.31
286.751	377.31
286.982	381.31
287.213	343.31
287.444	337.31
287.675	346.31
287.906	354.31
288.138	305.31
288.369	281.31
288.6	267.31
288.831	267.31
289.062	310.31
289.293	337.31
289.524	305.31
289.755	320.31
289.986	341.31
290.217	293.31
290.448	259.31
290.679	219.31
290.91	205.31
291.141	213.31
291.371	218.31
291.602	206.31
291.833	196.31
292.064	232.31
292.295	245.31
292.526	267.31
292.757	286.31
292.987	319.31
293.218	318.31
293.449	318.31
293.68	346.31
293.91	298.31
294.141	363.31
294.372	304.31
294.603	270.31
294.833	310.31
295.064	377.31
295.295	340.31
295.525	294.31
295.756	254.31
295.987	243.31
296.217	228.31
296.448	228.31
296.679	229.31
296.909	227.31
297.14	273.31
297.37	287.31
297.601	271.31
297.831	242.31
298.062	269.31
298.292	281.31
298.523	303.31
298.753	340.31
298.984	324.31
299.214	271.31
299.445	227.31
299.675	228.31
299.905	226.31
300.136	208.31
300.366	244.31
300.597	252.31
300.827	221.31
301.057	221.31
301.288	228.31
301.518	231.31
301.748	283.31
301.979	279.31
302.209	279.31
302.439	277.31
302.669	267.31
302.9	274.31
303.13	236.31
303.36	242.31
303.59	232.31
303.82	227.31
304.051	251.31
304.281	271.31
304.511	272.31
304.741	268.31
304.971	259.31
305.201	257.31
305.431	254.31
305.661	242.31
305.891	221.31
306.121	241.31
306.352	196.31
306.582	193.31
306.812	201.31
307.042	191.31
307.272	177.31
307.502	183.31
307.731	200.31
307.961	214.31
308.191	194.31
308.421	186.31
308.651	182.31
308.881	180.31
309.111	183.31
309.341	199.31
309.571	187.31
309.8	223.31
310.03	197.31
310.26	225.31
310.49	213.31
310.72	186.31
310.949	194.31
311.179	199.31
311.409	209.31
311.639	234.31
311.868	282.31
312.098	313.31
312.328	353.31
312.557	333.31
312.787	338.31
313.017	334.31
313.246	338.31
313.476	367.31
313.706	319.31
313.935	265.31
314.165	237.31
314.394	211.31
314.624	211.31
314.853	225.31
315.083	219.31
315.312	226.31
315.542	237.31
315.771	213.31
316.001	193.31
316.23	182.31
316.46	196.31
316.689	196.31
316.919	204.31
317.148	198.31
317.377	191.31
317.607	205.31
317.836	201.31
318.065	222.31
318.295	261.31
318.524	251.31
318.753	203.31
318.983	206.31
319.212	198.31
319.441	197.31
319.67	217.31
319.9	229.31
320.129	234.31
320.358	196.31
320.587	210.31
320.816	218.31
321.046	237.31
321.275	259.31
321.504	251.31
321.733	250.31
321.962	247.31
322.191	227.31
322.42	218.31
322.649	235.31
322.878	221.31
323.108	228.31
323.337	211.31
323.566	231.31
323.795	212.31
324.024	231.31
324.253	203.31
324.482	203.31
324.71	231.31
324.939	235.31
325.168	244.31
325.397	231.31
325.626	201.31
325.855	198.31
326.084	217.31
326.313	194.31
326.542	200.31
326.77	198.31
326.999	199.31
327.228	205.31
327.457	214.31
327.686	216.31
327.914	197.31
328.143	190.31
328.372	182.31
328.6	198.31
328.829	188.31
329.058	194.31
329.287	205.31
329.515	202.31
329.744	212.31
329.972	191.31
330.201	192.31
330.43	201.31
330.658	200.31
330.887	216.31
331.115	211.31
331.344	210.31
331.572	237.31
331.801	210.31
332.03	196.31
332.258	217.31
332.486	220.31
332.715	219.31
332.943	215.31
333.172	210.31
333.4	208.31
333.629	249.31
333.857	231.31
334.085	249.31
334.314	247.31
334.542	239.31
334.771	201.31
334.999	225.31
335.227	208.31
335.455	206.31
335.684	233.31
335.912	259.31
336.14	272.31
336.369	265.31
336.597	253.31
336.825	271.31
337.053	306.31
337.281	271.31
337.51	225.31
337.738	209.31
337.966	234.31
338.194	231.31
338.422	215.31
338.65	201.31
338.878	203.31
339.106	205.31
339.334	225.31
339.562	220.31
339.79	205.31
340.018	229.31
340.246	217.31
340.474	240.31
340.702	254.31
340.93	272.31
341.158	285.31
341.386	231.31
341.614	223.31
341.842	230.31
342.07	236.31
342.298	251.31
342.526	253.31
342.754	236.31
342.981	224.31
343.209	225.31
343.437	230.31
343.665	263.31
343.893	255.31
344.12	296.31
344.348	324.31
344.576	309.31
344.804	252.31
345.031	216.31
345.259	220.31
345.487	215.31
345.714	218.31
345.942	224.31
346.17	234.31
346.397	241.31
346.625	207.31
346.853	214.31
347.08	202.31
347.308	209.31
347.535	247.31
347.763	226.31
347.99	215.31
348.218	227.31
348.445	233.31
348.673	225.31
348.9	220.31
349.128	238.31
349.355	224.31
349.583	222.31
349.81	207.31
350.037	224.31
350.265	197.31
350.492	178.31
350.72	182.31
350.947	199.31
351.174	190.31
351.402	212.31
351.629	205.31
351.856	210.31
352.083	195.31
352.311	204.31
352.538	213.31
352.765	246.31
352.992	218.31
353.22	224.31
353.447	210.31
353.674	194.31
353.901	209.31
354.128	201.31
354.355	208.31
354.583	225.31
354.81	216.31
355.037	225.31
355.264	214.31
355.491	226.31
355.718	230.31
355.945	242.31
356.172	228.31
356.399	231.31
356.626	274.31
356.853	313.31
357.08	315.31
357.307	335.31
357.534	261.31
357.761	273.31
357.988	339.31
358.215	404.31
358.441	361.31
358.668	311.31
358.895	294.31
359.122	263.31
359.349	257.31
359.576	293.31
359.802	243.31
360.029	199.31
360.256	231.31
360.483	246.31
360.709	331.31
360.936	317.31
361.163	308.31
361.39	228.31
361.616	238.31
361.843	245.31
362.07	287.31
362.296	269.31
362.523	213.31
362.749	201.31
362.976	198.31
363.203	244.31
363.429	265.31
363.656	241.31
363.882	233.31
364.109	226.31
364.335	200.31
364.562	207.31
364.788	217.31
365.015	236.31
365.241	237.31
365.468	209.31
365.694	201.31
365.92	195.31
366.147	184.31
366.373	193.31
366.599	186.31
366.826	187.31
367.052	194.31
367.278	181.31
367.505	194.31
367.731	199.31
367.957	212.31
368.184	221.31
368.41	207.31
368.636	230.31
368.862	223.31
369.089	209.31
369.315	198.31
369.541	199.31
369.767	190.31
369.993	208.31
370.219	197.31
370.445	215.31
370.672	224.31
370.898	233.31
371.124	229.31
371.35	217.31
371.576	205.31
371.802	209.31
372.028	232.31
372.254	267.31
372.48	257.31
372.706	212.31
372.932	227.31
373.158	233.31
373.384	267.31
373.61	319.31
373.835	363.31
374.061	287.31
374.287	252.31
374.513	281.31
374.739	317.31
374.965	323.31
375.191	305.31
375.416	251.31
375.642	237.31
375.868	256.31
376.094	277.31
376.319	245.31
376.545	251.31
376.771	249.31
376.997	238.31
377.222	197.31
377.448	203.31
377.674	195.31
377.899	204.31
378.125	197.31
378.35	187.31
378.576	193.31
378.802	214.31
379.027	199.31
379.253	203.31
379.478	218.31
379.704	212.31
379.929	227.31
380.155	228.31
380.38	213.31
380.606	218.31
380.831	252.31
381.057	228.31
381.282	203.31
381.507	230.31
381.733	277.31
381.958	292.31
382.184	307.31
382.409	313.31
382.634	327.31
382.86	324.31
383.085	285.31
383.31	242.31
383.535	257.31
383.761	266.31
383.986	238.31
384.211	283.31
384.436	267.31
384.662	233.31
384.887	233.31
385.112	233.31
385.337	225.31
385.562	225.31
385.787	237.31
386.013	284.31
386.238	263.31
386.463	233.31
386.688	243.31
386.913	241.31
387.138	206.31
387.363	235.31
387.588	232.31
387.813	219.31
388.038	238.31
388.263	225.31
388.488	211.31
388.713	249.31
388.938	261.31
389.163	242.31
389.387	199.31
389.612	222.31
389.837	217.31
390.062	220.31
390.287	234.31
390.512	222.31
390.736	195.31
390.961	201.31
391.186	202.31
391.411	211.31
391.636	210.31
391.86	228.31
392.085	233.31
392.31	239.31
392.534	232.31
392.759	217.31
392.984	215.31
393.208	234.31
393.433	207.31
393.658	217.31
393.882	205.31
394.107	191.31
394.331	210.31
394.556	193.31
394.78	196.31
395.005	200.31
395.229	211.31
395.454	223.31
395.678	206.31
395.903	224.31
396.127	214.31
396.352	209.31
396.576	238.31
396.801	223.31
397.025	227.31
397.249	252.31
397.474	219.31
397.698	230.31
397.922	229.31
398.147	214.31
398.371	207.31
398.595	247.31
398.82	230.31
399.044	240.31
399.268	252.31
399.492	262.31
399.717	279.31
399.941	294.31
400.165	261.31
400.389	253.31
400.613	231.31
400.837	229.31
401.062	227.31
401.286	220.31
401.51	224.31
401.734	226.31
401.958	225.31
402.182	241.31
402.406	239.31
402.63	244.31
402.854	261.31
403.078	276.31
403.302	349.31
403.526	357.31
403.75	341.31
403.974	296.31
404.198	268.31
404.422	290.31
404.645	305.31
404.869	343.31
405.093	273.31
405.317	247.31
405.541	245.31
405.765	248.31
405.988	245.31
406.212	261.31
406.436	263.31
406.66	320.31
406.883	260.31
407.107	284.31
407.331	305.31
407.555	313.31
407.778	279.31
408.002	274.31
408.226	282.31
408.449	276.31
408.673	267.31
408.896	243.31
409.12	228.31
409.344	240.31
409.567	212.31
409.791	222.31
410.014	238.31
410.238	229.31
410.461	239.31
410.685	247.31
410.908	247.31
411.132	232.31
411.355	221.31
411.578	223.31
411.802	213.31
412.025	244.31
412.249	249.31
412.472	218.31
412.695	224.31
412.919	214.31
413.142	236.31
413.365	223.31
413.589	234.31
413.812	235.31
414.035	240.31
414.258	247.31
414.482	253.31
414.705	250.31
414.928	238.31
415.151	221.31
415.374	216.31
415.597	220.31
415.821	202.31
416.044	226.31
416.267	218.31
416.49	219.31
416.713	218.31
416.936	224.31
417.159	222.31
417.382	222.31
417.605	242.31
417.828	226.31
418.051	244.31
418.274	229.31
418.497	229.31
418.72	243.31
418.943	241.31
419.166	261.31
419.389	246.31
419.611	258.31
419.834	240.31
420.057	254.31
420.28	238.31
420.503	238.31
420.726	216.31
420.948	244.31
421.171	227.31
421.394	234.31
421.617	218.31
421.839	228.31
422.062	222.31
422.285	237.31
422.507	227.31
422.73	226.31
422.953	231.31
423.175	231.31
423.398	250.31
423.621	258.31
423.843	261.31
424.066	245.31
424.288	232.31
424.511	252.31
424.733	233.31
424.956	261.31
425.178	265.31
425.401	269.31
425.623	351.31
425.846	282.31
426.068	251.31
426.291	263.31
426.513	254.31
426.735	225.31
426.958	224.31
427.18	245.31
427.402	321.31
427.625	333.31
427.847	297.31
428.069	233.31
428.292	216.31
428.514	219.31
428.736	218.31
428.958	256.31
429.181	291.31
429.403	249.31
429.625	227.31
429.847	231.31
430.069	223.31
430.292	219.31
430.514	199.31
430.736	237.31
430.958	277.31
431.18	231.31
431.402	210.31
431.624	212.31
431.846	219.31
432.068	213.31
432.29	220.31
432.512	212.31
432.734	272.31
432.956	255.31
433.178	236.31
433.4	214.31
433.622	213.31
433.844	241.31
434.066	247.31
434.287	231.31
434.509	231.31
434.731	259.31
434.953	253.31
435.175	243.31
435.397	269.31
435.618	250.31
435.84	220.31
436.062	216.31
436.284	221.31
436.505	212.31
436.727	202.31
436.949	213.31
437.17	217.31
437.392	213.31
437.614	202.31
437.835	221.31
438.057	220.31
438.278	230.31
438.5	316.31
438.721	288.31
438.943	229.31
439.165	209.31
439.386	194.31
439.608	217.31
439.829	204.31
440.05	201.31
440.272	208.31
440.493	239.31
440.715	266.31
440.936	247.31
441.158	226.31
441.379	221.31
441.6	255.31
441.822	265.31
442.043	219.31
442.264	229.31
442.486	220.31
442.707	216.31
442.928	213.31
443.149	241.31
443.371	214.31
443.592	235.31
443.813	236.31
444.034	230.31
444.255	235.31
444.476	247.31
444.698	251.31
444.919	238.31
445.14	341.31
445.361	281.31
445.582	233.31
445.803	240.31
446.024	256.31
446.245	255.31
446.466	243.31
446.687	222.31
446.908	220.31
447.129	204.31
447.35	212.31
447.571	217.31
447.792	215.31
448.013	222.31
448.234	199.31
448.455	214.31
448.675	223.31
448.896	213.31
449.117	205.31
449.338	210.31
449.559	219.31
449.779	218.31
450	223.31
450.221	209.31
450.442	209.31
450.662	220.31
450.883	205.31
451.104	215.31
451.324	224.31
451.545	217.31
451.766	212.31
451.986	188.31
452.207	188.31
452.428	189.31
452.648	199.31
452.869	207.31
453.089	197.31
453.31	229.31
453.53	206.31
453.751	199.31
453.971	201.31
454.192	207.31
454.412	209.31
454.633	198.31
454.853	202.31
455.073	203.31
455.294	188.31
455.514	205.31
455.734	185.31
455.955	203.31
456.175	210.31
456.395	194.31
456.616	188.31
456.836	193.31
457.056	192.31
457.276	193.31
457.497	197.31
457.717	189.31
457.937	179.31
458.157	180.31
458.377	203.31
458.598	181.31
458.818	191.31
459.038	221.31
459.258	224.31
459.478	221.31
459.698	229.31
459.918	231.31
460.138	229.31
460.358	239.31
460.578	233.31
460.798	236.31
461.018	240.31
461.238	242.31
461.458	226.31
461.678	219.31
461.898	263.31
462.118	233.31
462.338	241.31
462.558	241.31
462.777	267.31
462.997	278.31
463.217	286.31
463.437	287.31
463.657	272.31
463.876	249.31
464.096	277.31
464.316	263.31
464.536	265.31
464.755	286.31
464.975	279.31
465.195	258.31
465.414	261.31
465.634	245.31
465.854	206.31
466.073	229.31
466.293	219.31
466.512	217.31
466.732	213.31
466.951	227.31
467.171	237.31
467.391	221.31
467.61	208.31
467.829	213.31
468.049	217.31
468.268	217.31
468.488	220.31
468.707	240.31
468.927	257.31
469.146	257.31
469.365	239.31
469.585	233.31
469.804	230.31
470.023	251.31
470.243	249.31
470.462	224.31
470.681	233.31
470.901	212.31
471.12	254.31
471.339	239.31
471.558	221.31
471.777	229.31
471.997	229.31
472.216	257.31
472.435	270.31
472.654	238.31
472.873	232.31
473.092	226.31
473.311	222.31
473.53	200.31
473.749	218.31
473.968	227.31
474.187	219.31
474.406	227.31
474.625	219.31
474.844	210.31
475.063	242.31
475.282	235.31
475.501	259.31
475.72	271.31
475.939	253.31
476.158	238.31
476.377	301.31
476.596	311.31
476.814	325.31
477.033	271.31
477.252	253.31
477.471	245.31
477.69	230.31
477.908	265.31
478.127	260.31
478.346	256.31
478.564	284.31
478.783	267.31
479.002	245.31
479.22	269.31
479.439	321.31
479.658	285.31
479.876	260.31
480.095	277.31
480.313	292.31
480.532	282.31
480.751	278.31
480.969	250.31
481.188	284.31
481.406	288.31
481.624	288.31
481.843	261.31
482.061	240.31
482.28	275.31
482.498	337.31
482.717	327.31
482.935	261.31
483.153	268.31
483.372	245.31
483.59	253.31
483.808	258.31
484.027	257.31
484.245	240.31
484.463	236.31
484.681	261.31
484.9	245.31
485.118	277.31
485.336	233.31
485.554	236.31
485.772	256.31
485.99	261.31
486.209	282.31
486.427	281.31
486.645	262.31
486.863	281.31
487.081	266.31
487.299	295.31
487.517	297.31
487.735	259.31
487.953	262.31
488.171	275.31
488.389	254.31
488.607	255.31
488.825	267.31
489.043	271.31
489.261	287.31
489.479	295.31
489.696	273.31
489.914	269.31
490.132	273.31
490.35	263.31
490.568	270.31
490.786	264.31
491.003	245.31
491.221	257.31
491.439	264.31
491.657	249.31
491.874	277.31
492.092	317.31
492.31	342.31
492.527	353.31
492.745	302.31
492.963	286.31
493.18	287.31
493.398	286.31
493.615	288.31
493.833	270.31
494.05	274.31
494.268	271.31
494.485	293.31
494.703	252.31
494.92	274.31
495.138	268.31
495.355	301.31
495.573	288.31
495.79	313.31
496.008	345.31
496.225	308.31
496.442	294.31
496.66	278.31
496.877	315.31
497.094	305.31
497.312	285.31
497.529	305.31
497.746	295.31
497.963	292.31
498.181	332.31
498.398	321.31
498.615	340.31
498.832	373.31
499.049	401.31
499.267	373.31
499.484	390.31
499.701	409.31
499.918	455.31
500.135	499.31
500.352	545.31
500.569	553.31
500.786	531.31
501.003	532.31
501.22	478.31
501.437	450.31
501.654	405.31
501.871	377.31
502.088	359.31
502.305	357.31
502.522	350.31
502.739	351.31
502.956	305.31
503.172	293.31
503.389	309.31
503.606	286.31
503.823	302.31
504.04	297.31
504.256	291.31
504.473	309.31
504.69	341.31
504.907	302.31
505.123	298.31
505.34	319.31
505.557	321.31
505.773	284.31
505.99	272.31
506.207	301.31
506.423	261.31
506.64	273.31
506.856	269.31
507.073	280.31
507.289	295.31
507.506	283.31
507.722	295.31
507.939	310.31
508.155	300.31
508.372	271.31
508.588	285.31
508.805	283.31
509.021	274.31
509.238	251.31
509.454	259.31
509.67	265.31
509.887	268.31
510.103	273.31
510.319	272.31
510.536	263.31
510.752	248.31
510.968	250.31
511.184	236.31
511.401	239.31
511.617	253.31
511.833	239.31
512.049	233.31
512.265	249.31
512.481	249.31
512.698	265.31
512.914	279.31
513.13	275.31
513.346	269.31
513.562	275.31
513.778	271.31
513.994	253.31
514.21	253.31
514.426	255.31
514.642	263.31
514.858	265.31
515.074	273.31
515.29	288.31
515.506	294.31
515.721	293.31
515.937	280.31
516.153	278.31
516.369	262.31
516.585	280.31
516.801	297.31
517.016	323.31
517.232	323.31
517.448	356.31
517.664	316.31
517.879	313.31
518.095	320.31
518.311	292.31
518.527	316.31
518.742	332.31
518.958	329.31
519.173	311.31
519.389	290.31
519.605	293.31
519.82	304.31
520.036	349.31
520.251	337.31
520.467	345.31
520.682	549.31
520.898	661.31
521.113	633.31
521.329	398.31
521.544	333.31
521.76	323.31
521.975	297.31
522.19	290.31
522.406	283.31
522.621	292.31
522.836	302.31
523.052	323.31
523.267	282.31
523.482	264.31
523.698	294.31
523.913	282.31
524.128	274.31
524.343	267.31
524.559	272.31
524.774	243.31
524.989	249.31
525.204	253.31
525.419	275.31
525.634	250.31
525.849	292.31
526.064	279.31
526.28	286.31
526.495	326.31
526.71	331.31
526.925	302.31
527.14	301.31
527.355	316.31
527.57	273.31
527.785	279.31
527.999	268.31
528.214	247.31
528.429	246.31
528.644	251.31
528.859	233.31
529.074	228.31
529.289	251.31
529.503	257.31
529.718	246.31
529.933	285.31
530.148	324.31
530.363	250.31
530.577	253.31
530.792	251.31
531.007	244.31
531.221	225.31
531.436	228.31
531.651	237.31
531.865	239.31
532.08	254.31
532.295	240.31
532.509	237.31
532.724	270.31
532.938	299.31
533.153	353.31
533.367	300.31
533.582	255.31
533.796	272.31
534.011	237.31
534.225	258.31
534.44	269.31
534.654	265.31
534.868	324.31
535.083	269.31
535.297	253.31
535.511	265.31
535.726	260.31
535.94	257.31
536.154	240.31
536.369	232.31
536.583	223.31
536.797	225.31
537.011	247.31
537.225	243.31
537.44	278.31
537.654	253.31
537.868	242.31
538.082	253.31
538.296	243.31
538.51	243.31
538.724	249.31
538.938	231.31
539.153	253.31
539.367	234.31
539.581	226.31
539.795	239.31
540.009	246.31
540.222	251.31
540.436	244.31
540.65	261.31
540.864	275.31
541.078	273.31
541.292	325.31
541.506	270.31
541.72	241.31
541.934	222.31
542.147	229.31
542.361	249.31
542.575	234.31
542.789	231.31
543.002	233.31
543.216	243.31
543.43	229.31
543.644	229.31
543.857	233.31
544.071	214.31
544.285	231.31
544.498	216.31
544.712	219.31
544.925	246.31
545.139	223.31
545.352	203.31
545.566	230.31
545.779	234.31
545.993	233.31
546.206	225.31
546.42	225.31
546.633	215.31
546.847	213.31
547.06	213.31
547.274	220.31
547.487	215.31
547.7	233.31
547.914	231.31
548.127	239.31
548.34	245.31
548.554	230.31
548.767	229.31
548.98	249.31
549.193	229.31
549.407	234.31
549.62	279.31
549.833	259.31
550.046	250.31
550.259	261.31
550.473	256.31
550.686	251.31
550.899	257.31
551.112	231.31
551.325	234.31
551.538	253.31
551.751	232.31
551.964	214.31
552.177	216.31
552.39	224.31
552.603	235.31
552.816	228.31
553.029	227.31
553.242	230.31
553.455	237.31
553.667	284.31
553.88	239.31
554.093	226.31
554.306	223.31
554.519	221.31
554.732	199.31
554.944	210.31
555.157	215.31
555.37	219.31
555.583	222.31
555.795	198.31
556.008	208.31
556.221	202.31
556.433	224.31
556.646	226.31
556.859	195.31
557.071	213.31
557.284	191.31
557.496	207.31
557.709	209.31
557.921	189.31
558.134	195.31
558.346	197.31
558.559	200.31
558.771	216.31
558.984	209.31
559.196	203.31
559.409	194.31
559.621	198.31
559.833	190.31
560.046	207.31
560.258	179.31
560.47	202.31
560.683	194.31
560.895	206.31
561.107	204.31
561.32	189.31
561.532	171.31
561.744	194.31
561.956	211.31
562.168	214.31
562.381	186.31
562.593	192.31
562.805	226.31
563.017	209.31
563.229	185.31
563.441	181.31
563.653	177.31
563.865	198.31
564.077	179.31
564.289	175.31
564.501	186.31
564.713	199.31
564.925	207.31
565.137	200.31
565.349	202.31
565.561	198.31
565.773	205.31
565.985	200.31
566.197	232.31
566.408	257.31
566.62	265.31
566.832	224.31
567.044	241.31
567.255	262.31
567.467	276.31
567.679	241.31
567.891	281.31
568.102	286.31
568.314	284.31
568.526	253.31
568.737	241.31
568.949	243.31
569.161	230.31
569.372	211.31
569.584	211.31
569.795	198.31
570.007	205.31
570.218	204.31
570.43	206.31
570.641	189.31
570.853	193.31
571.064	173.31
571.276	202.31
571.487	190.31
571.698	188.31
571.91	199.31
572.121	196.31
572.333	186.31
572.544	179.31
572.755	181.31
572.966	181.31
573.178	179.31
573.389	193.31
573.6	187.31
573.811	189.31
574.023	163.31
574.234	188.31
574.445	173.31
574.656	159.31
574.867	162.31
575.078	179.31
575.289	179.31
575.501	182.31
575.712	171.31
575.923	172.31
576.134	171.31
576.345	166.31
576.556	165.31
576.767	180.31
576.978	160.31
577.188	163.31
577.399	163.31
577.61	153.31
577.821	160.31
578.032	162.31
578.243	165.31
578.454	164.31
578.665	179.31
578.875	173.31
579.086	166.31
579.297	183.31
579.508	178.31
579.718	164.31
579.929	177.31
580.14	179.31
580.35	163.31
580.561	156.31
580.772	156.31
580.982	148.31
581.193	161.31
581.403	149.31
581.614	160.31
581.825	146.31
582.035	154.31
582.246	151.31
582.456	157.31
582.667	147.31
582.877	174.31
583.087	155.31
583.298	152.31
583.508	155.31
583.719	166.31
583.929	163.31
584.139	150.31
584.35	152.31
584.56	166.31
584.77	158.31
584.981	147.31
585.191	153.31
585.401	146.31
585.611	173.31
585.821	165.31
586.032	156.31
586.242	161.31
586.452	155.31
586.662	161.31
586.872	150.31
587.082	154.31
587.292	150.31
587.502	160.31
587.713	166.31
587.923	160.31
588.133	155.31
588.343	165.31
588.553	157.31
588.762	157.31
588.972	144.31
589.182	153.31
589.392	158.31
589.602	156.31
589.812	153.31
590.022	158.31
590.232	157.31
590.441	175.31
590.651	150.31
590.861	157.31
591.071	167.31
591.281	163.31
591.49	143.31
591.7	148.31
591.91	171.31
592.119	156.31
592.329	167.31
592.539	164.31
592.748	173.31
592.958	169.31
593.167	178.31
593.377	171.31
593.587	180.31
593.796	177.31
594.006	149.31
594.215	187.31
594.424	175.31
594.634	178.31
594.843	190.31
595.053	163.31
595.262	153.31
595.472	150.31
595.681	154.31
595.89	167.31
596.1	157.31
596.309	149.31
596.518	145.31
596.727	152.31
596.937	150.31
597.146	157.31
597.355	165.31
597.564	149.31
597.774	147.31
597.983	154.31
598.192	157.31
598.401	151.31
598.61	151.31
598.819	140.31
599.028	145.31
599.237	141.31
599.446	136.31
599.655	150.31
599.864	145.31
600.073	149.31
600.282	147.31
600.491	147.31
600.7	149.31
600.909	155.31
601.118	143.31
601.327	140.31
601.536	144.31
601.745	137.31
601.953	155.31
602.162	137.31
602.371	152.31
602.58	154.31
602.789	146.31
602.997	137.31
603.206	139.31
603.415	122.31
603.623	140.31
603.832	130.31
604.041	135.31
604.249	134.31
604.458	142.31
604.666	146.31
604.875	135.31
605.084	129.31
605.292	122.31
605.501	115.31
605.709	130.31
605.918	152.31
606.126	149.31
606.334	150.31
606.543	147.31
606.751	141.31
606.96	129.31
607.168	119.31
607.376	133.31
607.585	141.31
607.793	129.31
608.001	125.31
608.21	132.31
608.418	133.31
608.626	130.31
608.834	121.31
609.043	129.31
609.251	125.31
609.459	129.31
609.667	139.31
609.875	149.31
610.083	127.31
610.291	140.31
610.499	124.31
610.707	130.31
610.916	129.31
611.124	125.31
611.332	151.31
611.54	143.31
611.748	129.31
611.955	115.31
612.163	126.31
612.371	136.31
612.579	128.31
612.787	109.31
612.995	150.31
613.203	127.31
613.411	131.31
613.618	143.31
613.826	138.31
614.034	134.31
614.242	138.31
614.449	121.31
614.657	111.31
614.865	117.31
615.072	139.31
615.28	128.31
615.488	121.31
615.695	125.31
615.903	122.31
616.111	127.31
616.318	133.31
616.526	145.31
616.733	137.31
616.941	137.31
617.148	121.31
617.356	144.31
617.563	135.31
617.771	111.31
617.978	139.31
618.185	136.31
618.393	109.31
618.6	132.31
618.807	117.31
619.015	123.31
619.222	116.31
619.429	141.31
619.637	120.31
619.844	133.31
620.051	132.31
620.258	141.31
620.466	133.31
620.673	123.31
620.88	123.31
621.087	130.31
621.294	127.31
621.501	119.31
621.708	124.31
621.915	127.31
622.122	121.31
622.329	115.31
622.536	129.31
622.743	119.31
622.95	101.31
623.157	115.31
623.364	120.31
623.571	131.31
623.778	139.31
623.985	133.31
624.192	111.31
624.399	123.31
624.606	125.31
624.812	136.31
625.019	137.31
625.226	140.31
625.433	117.31
625.639	113.31
625.846	114.31
626.053	127.31
626.259	117.31
626.466	126.31
626.673	116.31
626.879	114.31
627.086	122.31
627.293	116.31
627.499	106.31
627.706	123.31
627.912	121.31
628.119	109.31
628.325	117.31
628.532	121.31
628.738	116.31
628.945	117.31
629.151	114.31
629.357	125.31
629.564	121.31
629.77	113.31
629.976	129.31
630.183	115.31
630.389	124.31
630.595	114.31
630.802	119.31
631.008	100.31
631.214	110.31
631.42	120.31
631.627	117.31
631.833	102.31
632.039	110.31
632.245	118.31
632.451	115.31
632.657	109.31
632.863	103.31
633.069	102.31
633.275	113.31
633.481	109.31
633.688	123.31
633.893	127.31
634.099	106.31
634.305	108.31
634.511	117.31
634.717	123.31
634.923	109.31
635.129	103.31
635.335	129.31
635.541	98.31
635.747	102.31
635.952	129.31
636.158	124.31
636.364	112.31
636.57	103.31
636.775	111.31
636.981	107.31
637.187	106.31
637.392	119.31
637.598	120.31
637.804	107.31
638.009	121.31
638.215	105.31
638.421	105.31
638.626	117.31
638.832	110.31
639.037	108.31
639.243	134.31
639.448	119.31
639.654	123.31
639.859	112.31
640.065	108.31
640.27	121.31
640.475	97.31
640.681	115.31
640.886	94.31
641.091	92.31
641.297	109.31
641.502	117.31
641.707	114.31
641.913	103.31
642.118	117.31
642.323	116.31
642.528	112.31
642.733	107.31
642.939	122.31
643.144	113.31
643.349	106.31
643.554	103.31
643.759	98.31
643.964	122.31
644.169	94.31
644.374	105.31
644.579	102.31
644.784	108.31
644.989	101.31
645.194	107.31
645.399	99.31
645.604	102.31
645.809	119.31
646.014	109.31
646.219	119.31
646.423	100.31
646.628	107.31
646.833	100.31
647.038	95.31
647.243	116.31
647.447	106.31
647.652	101.31
647.857	110.31
648.062	110.31
648.266	98.31
648.471	103.31
648.676	114.31
648.88	117.31
649.085	117.31
649.289	116.31
649.494	115.31
649.698	106.31
649.903	92.31
650.107	111.31
650.312	92.31
650.516	92.31
650.721	93.31
650.925	89.31
651.13	111.31
651.334	99.31
651.539	89.31
651.743	106.31
651.947	95.31
652.152	97.31
652.356	107.31
652.56	92.31
652.764	100.31
652.969	90.31
653.173	95.31
653.377	92.31
653.581	80.31
653.785	98.31
653.99	89.31
654.194	87.31
654.398	89.31
654.602	89.31
654.806	88.31
655.01	105.31
655.214	94.31
655.418	105.31
655.622	94.31
655.826	94.31
656.03	105.31
656.234	101.31
656.438	86.31
656.642	91.31
656.846	110.31
657.049	100.31
657.253	94.31
657.457	94.31
657.661	100.31
657.865	81.31
658.068	87.31
658.272	97.31
658.476	106.31
658.68	92.31
658.883	97.31
659.087	86.31
659.291	76.31
659.494	88.31
659.698	79.31
659.901	77.31
660.105	83.31
660.309	95.31
660.512	92.31
660.716	83.31
660.919	86.31
661.123	87.31
661.326	92.31
661.53	91.31
661.733	96.31
661.936	68.31
662.14	75.31
662.343	67.31
662.546	65.31
662.75	85.31
662.953	60.31
663.156	79.31
663.36	91.31
663.563	75.31
663.766	79.31
663.969	92.31
664.173	90.31
664.376	83.31
664.579	82.31
664.782	84.31
664.985	72.31
665.188	84.31
665.391	85.31
665.594	91.31
665.797	67.31
666	83.31
666.203	81.31
666.406	67.31
666.609	77.31
666.812	62.31
667.015	86.31
667.218	86.31
667.421	80.31
667.624	70.31
667.827	71.31
668.03	67.31
668.232	73.31
668.435	81.31
668.638	83.31
668.841	75.31
669.043	76.31
669.246	77.31
669.449	79.31
669.651	77.31
669.854	77.31
670.057	66.31
670.259	69.31
670.462	68.31
670.665	79.31
670.867	93.31
671.07	75.31
671.272	72.31
671.475	80.31
671.677	84.31
671.88	86.31
672.082	68.31
672.284	66.31
672.487	56.31
672.689	97.31
672.892	73.31
