Data from NickelSpatula_HRD10591_16-35-34-126.txt Node
Date: Mon Jul 22 16:35:34 EDT 2019
User: cochatt
Spectrometer: HR+D1059
Trigger mode: 1
Integration Time (sec): 1.000000E-1
Scans to average: 1
Electric dark correction enabled: true
Nonlinearity correction enabled: false
Boxcar width: 0
XAxis mode: Wavelengths
Number of Pixels in Spectrum: 2048
>>>>>Begin Spectral Data<<<<<
223.165	-25
223.4	-25
223.635	-25
223.869	-13
224.104	-16
224.338	-5
224.573	-9
224.808	-21
225.042	-4
225.277	4
225.511	-2
225.746	-1
225.98	1
226.215	12
226.449	17
226.683	11
226.918	27
227.152	24
227.387	27
227.621	41
227.856	47
228.09	48
228.324	48
228.559	75
228.793	71
229.027	66
229.262	85
229.496	97
229.73	87
229.964	99
230.199	84
230.433	86
230.667	85
230.901	94
231.136	91
231.37	96
231.604	88
231.838	111
232.072	104
232.306	103
232.541	109
232.775	106
233.009	109
233.243	109
233.477	110
233.711	123
233.945	105
234.179	110
234.413	116
234.647	121
234.881	132
235.115	127
235.349	117
235.583	106
235.817	119
236.051	125
236.285	135
236.519	140
236.753	125
236.987	122
237.221	119
237.455	118
237.689	131
237.922	144
238.156	137
238.39	140
238.624	153
238.858	152
239.091	140
239.325	137
239.559	131
239.793	135
240.027	168
240.26	151
240.494	151
240.728	148
240.961	147
241.195	143
241.429	154
241.662	156
241.896	145
242.13	129
242.363	124
242.597	143
242.83	145
243.064	140
243.298	150
243.531	164
243.765	159
243.998	143
244.232	151
244.465	157
244.699	150
244.932	156
245.166	161
245.399	132
245.633	151
245.866	144
246.099	139
246.333	179
246.566	192
246.8	194
247.033	173
247.266	169
247.5	157
247.733	167
247.966	167
248.2	172
248.433	159
248.666	163
248.899	182
249.133	183
249.366	197
249.599	221
249.832	204
250.066	185
250.299	198
250.532	171
250.765	174
250.998	169
251.231	191
251.465	185
251.698	194
251.931	177
252.164	173
252.397	200
252.63	216
252.863	244
253.096	239
253.329	248
253.562	233
253.795	239
254.028	273
254.261	252
254.494	248
254.727	250
254.96	238
255.193	217
255.426	235
255.659	187
255.892	198
256.124	227
256.357	222
256.59	242
256.823	238
257.056	213
257.289	211
257.521	227
257.754	238
257.987	234
258.22	237
258.452	227
258.685	243
258.918	267
259.151	256
259.383	269
259.616	303
259.849	309
260.081	317
260.314	332
260.547	280
260.779	301
261.012	299
261.244	320
261.477	334
261.71	298
261.942	250
262.175	270
262.407	263
262.64	258
262.872	282
263.105	315
263.337	312
263.57	287
263.802	250
264.035	196
264.267	212
264.499	198
264.732	161
264.964	160
265.197	161
265.429	204
265.661	207
265.894	200
266.126	194
266.358	244
266.591	266
266.823	305
267.055	297
267.287	267
267.52	264
267.752	298
267.984	303
268.216	284
268.448	258
268.681	240
268.913	271
269.145	272
269.377	287
269.609	293
269.841	264
270.073	285
270.306	297
270.538	302
270.77	314
271.002	331
271.234	327
271.466	311
271.698	282
271.93	279
272.162	294
272.394	277
272.626	269
272.858	270
273.09	296
273.322	242
273.553	240
273.785	277
274.017	319
274.249	403
274.481	405
274.713	440
274.945	535
275.176	533
275.408	497
275.64	455
275.872	468
276.104	407
276.335	377
276.567	367
276.799	379
277.031	384
277.262	305
277.494	254
277.726	252
277.957	268
278.189	300
278.421	299
278.652	283
278.884	259
279.115	263
279.347	256
279.579	255
279.81	263
280.042	265
280.273	281
280.505	245
280.736	239
280.968	215
281.199	243
281.431	260
281.662	264
281.894	250
282.125	251
282.356	288
282.588	269
282.819	263
283.051	283
283.282	311
283.513	360
283.745	422
283.976	419
284.207	387
284.439	393
284.67	381
284.901	344
285.132	357
285.364	380
285.595	348
285.826	355
286.057	377
286.288	368
286.52	385
286.751	381
286.982	407
287.213	335
287.444	331
287.675	357
287.906	364
288.138	318
288.369	292
288.6	281
288.831	279
289.062	331
289.293	375
289.524	334
289.755	343
289.986	327
290.217	301
290.448	226
290.679	228
290.91	216
291.141	190
291.371	209
291.602	208
291.833	225
292.064	217
292.295	249
292.526	268
292.757	277
292.987	299
293.218	338
293.449	343
293.68	365
293.91	332
294.141	358
294.372	323
294.603	311
294.833	327
295.064	364
295.295	368
295.525	268
295.756	236
295.987	209
296.217	214
296.448	205
296.679	218
296.909	229
297.14	248
297.37	263
297.601	269
297.831	234
298.062	259
298.292	286
298.523	297
298.753	323
298.984	301
299.214	256
299.445	228
299.675	212
299.905	200
300.136	207
300.366	215
300.597	219
300.827	207
301.057	196
301.288	192
301.518	215
301.748	243
301.979	254
302.209	256
302.439	272
302.669	231
302.9	246
303.13	241
303.36	214
303.59	216
303.82	229
304.051	233
304.281	268
304.511	281
304.741	240
304.971	223
305.201	264
305.431	232
305.661	223
305.891	194
306.121	213
306.352	194
306.582	187
306.812	172
307.042	185
307.272	170
307.502	175
307.731	178
307.961	192
308.191	179
308.421	176
308.651	171
308.881	176
309.111	169
309.341	179
309.571	189
309.8	201
310.03	196
310.26	191
310.49	208
310.72	190
310.949	173
311.179	177
311.409	192
311.639	222
311.868	259
312.098	339
312.328	379
312.557	341
312.787	360
313.017	319
313.246	328
313.476	351
313.706	305
313.935	246
314.165	205
314.394	192
314.624	191
314.853	198
315.083	212
315.312	220
315.542	190
315.771	181
316.001	185
316.23	179
316.46	177
316.689	151
316.919	187
317.148	169
317.377	181
317.607	181
317.836	188
318.065	230
318.295	222
318.524	223
318.753	186
318.983	176
319.212	177
319.441	176
319.67	215
319.9	241
320.129	220
320.358	205
320.587	206
320.816	186
321.046	238
321.275	236
321.504	229
321.733	224
321.962	230
322.191	213
322.42	212
322.649	211
322.878	215
323.108	244
323.337	215
323.566	194
323.795	208
324.024	202
324.253	192
324.482	192
324.71	202
324.939	215
325.168	221
325.397	190
325.626	179
325.855	172
326.084	190
326.313	189
326.542	171
326.77	193
326.999	186
327.228	173
327.457	189
327.686	169
327.914	176
328.143	168
328.372	162
328.6	157
328.829	180
329.058	171
329.287	183
329.515	169
329.744	188
329.972	181
330.201	174
330.43	143
330.658	189
330.887	214
331.115	199
331.344	196
331.572	191
331.801	179
332.03	172
332.258	181
332.486	183
332.715	190
332.943	194
333.172	195
333.4	187
333.629	199
333.857	207
334.085	229
334.314	228
334.542	198
334.771	191
334.999	198
335.227	191
335.455	185
335.684	192
335.912	242
336.14	239
336.369	263
336.597	223
336.825	257
337.053	271
337.281	222
337.51	199
337.738	197
337.966	208
338.194	227
338.422	226
338.65	186
338.878	164
339.106	182
339.334	197
339.562	210
339.79	196
340.018	182
340.246	199
340.474	213
340.702	212
340.93	244
341.158	231
341.386	198
341.614	204
341.842	195
342.07	214
342.298	252
342.526	264
342.754	209
342.981	199
343.209	197
343.437	229
343.665	236
343.893	215
344.12	251
344.348	287
344.576	268
344.804	230
345.031	185
345.259	200
345.487	181
345.714	203
345.942	202
346.17	225
346.397	229
346.625	203
346.853	182
347.08	171
347.308	198
347.535	219
347.763	207
347.99	188
348.218	185
348.445	206
348.673	196
348.9	187
349.128	202
349.355	205
349.583	182
349.81	203
350.037	192
350.265	159
350.492	172
350.72	166
350.947	168
351.174	168
351.402	187
351.629	172
351.856	187
352.083	163
352.311	185
352.538	193
352.765	199
352.992	201
353.22	209
353.447	213
353.674	189
353.901	194
354.128	183
354.355	176
354.583	213
354.81	223
355.037	222
355.264	184
355.491	206
355.718	215
355.945	203
356.172	215
356.399	200
356.626	235
356.853	284
357.08	283
357.307	308
357.534	259
357.761	256
357.988	309
358.215	336
358.441	307
358.668	283
358.895	260
359.122	228
359.349	235
359.576	249
359.802	222
360.029	182
360.256	211
360.483	255
360.709	279
360.936	300
361.163	259
361.39	207
361.616	190
361.843	213
362.07	234
362.296	228
362.523	195
362.749	189
362.976	173
363.203	214
363.429	239
363.656	213
363.882	187
364.109	191
364.335	197
364.562	183
364.788	203
365.015	222
365.241	213
365.468	175
365.694	171
365.92	155
366.147	159
366.373	156
366.599	165
366.826	163
367.052	151
367.278	158
367.505	163
367.731	181
367.957	177
368.184	195
368.41	181
368.636	197
368.862	195
369.089	175
369.315	168
369.541	163
369.767	174
369.993	168
370.219	151
370.445	182
370.672	196
370.898	203
371.124	195
371.35	197
371.576	190
371.802	177
372.028	219
372.254	220
372.48	215
372.706	187
372.932	195
373.158	205
373.384	224
373.61	283
373.835	279
374.061	225
374.287	213
374.513	255
374.739	263
374.965	278
375.191	267
375.416	205
375.642	193
375.868	223
376.094	230
376.319	199
376.545	218
376.771	224
376.997	205
377.222	156
377.448	165
377.674	144
377.899	148
378.125	149
378.35	154
378.576	151
378.802	179
379.027	187
379.253	191
379.478	195
379.704	185
379.929	196
380.155	208
380.38	186
380.606	181
380.831	227
381.057	192
381.282	185
381.507	237
381.733	243
381.958	240
382.184	267
382.409	271
382.634	297
382.86	287
383.085	233
383.31	226
383.535	232
383.761	217
383.986	225
384.211	259
384.436	237
384.662	199
384.887	208
385.112	213
385.337	199
385.562	203
385.787	207
386.013	224
386.238	212
386.463	202
386.688	200
386.913	167
387.138	180
387.363	185
387.588	188
387.813	190
388.038	200
388.263	190
388.488	199
388.713	203
388.938	234
389.163	190
389.387	164
389.612	177
389.837	191
390.062	183
390.287	204
390.512	180
390.736	181
390.961	183
391.186	180
391.411	178
391.636	192
391.86	191
392.085	200
392.31	204
392.534	182
392.759	194
392.984	198
393.208	197
393.433	169
393.658	161
393.882	159
394.107	159
394.331	173
394.556	165
394.78	167
395.005	184
395.229	170
395.454	173
395.678	170
395.903	163
396.127	165
396.352	177
396.576	202
396.801	199
397.025	214
397.249	217
397.474	195
397.698	190
397.922	205
398.147	183
398.371	189
398.595	199
398.82	214
399.044	180
399.268	204
399.492	216
399.717	222
399.941	203
400.165	195
400.389	206
400.613	200
400.837	197
401.062	177
401.286	193
401.51	165
401.734	171
401.958	174
402.182	181
402.406	191
402.63	174
402.854	195
403.078	231
403.302	288
403.526	294
403.75	255
403.974	226
404.198	223
404.422	222
404.645	252
404.869	268
405.093	232
405.317	199
405.541	186
405.765	223
405.988	217
406.212	207
406.436	231
406.66	269
406.883	212
407.107	195
407.331	219
407.555	253
407.778	214
408.002	219
408.226	206
408.449	204
408.673	204
408.896	169
409.12	202
409.344	191
409.567	174
409.791	179
410.014	173
410.238	171
410.461	191
410.685	191
410.908	191
411.132	183
411.355	171
411.578	184
411.802	180
412.025	200
412.249	213
412.472	172
412.695	199
412.919	190
413.142	186
413.365	198
413.589	222
413.812	203
414.035	192
414.258	189
414.482	193
414.705	184
414.928	174
415.151	194
415.374	183
415.597	163
415.821	187
416.044	178
416.267	172
416.49	181
416.713	187
416.936	161
417.159	181
417.382	201
417.605	176
417.828	194
418.051	168
418.274	177
418.497	189
418.72	197
418.943	182
419.166	204
419.389	200
419.611	175
419.834	200
420.057	216
420.28	223
420.503	194
420.726	181
420.948	176
421.171	185
421.394	190
421.617	174
421.839	174
422.062	188
422.285	163
422.507	177
422.73	187
422.953	187
423.175	187
423.398	192
423.621	207
423.843	222
424.066	200
424.288	198
424.511	173
424.733	167
424.956	197
425.178	210
425.401	241
425.623	271
425.846	244
426.068	193
426.291	209
426.513	212
426.735	191
426.958	195
427.18	229
427.402	295
427.625	285
427.847	249
428.069	185
428.292	196
428.514	182
428.736	181
428.958	187
429.181	254
429.403	212
429.625	189
429.847	182
430.069	195
430.292	183
430.514	173
430.736	185
430.958	214
431.18	189
431.402	160
431.624	177
431.846	170
432.068	173
432.29	175
432.512	179
432.734	233
432.956	199
433.178	171
433.4	166
433.622	185
433.844	183
434.066	203
434.287	200
434.509	190
434.731	209
434.953	181
435.175	187
435.397	216
435.618	187
435.84	180
436.062	180
436.284	170
436.505	157
436.727	163
436.949	164
437.17	187
437.392	176
437.614	168
437.835	163
438.057	187
438.278	189
438.5	239
438.721	240
438.943	189
439.165	177
439.386	155
439.608	169
439.829	157
440.05	157
440.272	174
440.493	187
440.715	225
440.936	202
441.158	180
441.379	179
441.6	212
441.822	199
442.043	171
442.264	175
442.486	198
442.707	171
442.928	179
443.149	182
443.371	182
443.592	194
443.813	191
444.034	170
444.255	176
444.476	189
444.698	190
444.919	207
445.14	298
445.361	252
445.582	201
445.803	201
446.024	207
446.245	207
446.466	200
446.687	196
446.908	192
447.129	165
447.35	166
447.571	162
447.792	177
448.013	179
448.234	172
448.455	169
448.675	172
448.896	176
449.117	185
449.338	170
449.559	179
449.779	167
450	195
450.221	188
450.442	169
450.662	166
450.883	173
451.104	155
451.324	159
451.545	183
451.766	168
451.986	173
452.207	155
452.428	167
452.648	162
452.869	166
453.089	184
453.31	200
453.53	170
453.751	165
453.971	161
454.192	167
454.412	170
454.633	172
454.853	175
455.073	143
455.294	158
455.514	170
455.734	147
455.955	169
456.175	182
456.395	158
456.616	171
456.836	155
457.056	169
457.276	141
457.497	138
457.717	148
457.937	172
458.157	157
458.377	158
458.598	157
458.818	172
459.038	152
459.258	161
459.478	172
459.698	203
459.918	175
460.138	181
460.358	177
460.578	181
460.798	193
461.018	184
461.238	179
461.458	190
461.678	199
461.898	206
462.118	200
462.338	192
462.558	191
462.777	199
462.997	208
463.217	179
463.437	204
463.657	196
463.876	204
464.096	192
464.316	196
464.536	204
464.755	219
464.975	210
465.195	205
465.414	214
465.634	199
465.854	185
466.073	176
466.293	173
466.512	186
466.732	197
466.951	209
467.171	183
467.391	182
467.61	196
467.829	186
468.049	193
468.268	165
468.488	178
468.707	177
468.927	198
469.146	211
469.365	210
469.585	183
469.804	188
470.023	215
470.243	208
470.462	191
470.681	188
470.901	180
471.12	193
471.339	195
471.558	167
471.777	187
471.997	231
472.216	218
472.435	208
472.654	179
472.873	196
473.092	211
473.311	201
473.53	206
473.749	199
473.968	198
474.187	218
474.406	183
474.625	181
474.844	169
475.063	192
475.282	207
475.501	234
475.72	244
475.939	218
476.158	209
476.377	268
476.596	299
476.814	298
477.033	255
477.252	189
477.471	197
477.69	203
477.908	215
478.127	220
478.346	204
478.564	251
478.783	240
479.002	234
479.22	251
479.439	253
479.658	236
479.876	208
480.095	219
480.313	215
480.532	215
480.751	218
480.969	209
481.188	230
481.406	249
481.624	233
481.843	208
482.061	217
482.28	228
482.498	293
482.717	303
482.935	236
483.153	225
483.372	197
483.59	207
483.808	201
484.027	217
484.245	199
484.463	182
484.681	212
484.9	195
485.118	226
485.336	208
485.554	195
485.772	216
485.99	225
486.209	223
486.427	225
486.645	216
486.863	207
487.081	213
487.299	270
487.517	257
487.735	214
487.953	225
488.171	233
488.389	219
488.607	207
488.825	223
489.043	232
489.261	278
489.479	265
489.696	229
489.914	215
490.132	193
490.35	212
490.568	229
490.786	205
491.003	200
491.221	204
491.439	204
491.657	209
491.874	235
492.092	288
492.31	332
492.527	318
492.745	274
492.963	234
493.18	228
493.398	241
493.615	237
493.833	226
494.05	223
494.268	236
494.485	244
494.703	218
494.92	217
495.138	220
495.355	220
495.573	225
495.79	261
496.008	326
496.225	259
496.442	248
496.66	251
496.877	255
497.094	239
497.312	237
497.529	244
497.746	236
497.963	219
498.181	258
498.398	274
498.615	273
498.832	304
499.049	294
499.267	270
499.484	274
499.701	305
499.918	311
500.135	348
500.352	343
500.569	369
500.786	365
501.003	361
501.22	330
501.437	299
501.654	297
501.871	294
502.088	295
502.305	282
502.522	247
502.739	259
502.956	257
503.172	273
503.389	231
503.606	247
503.823	236
504.04	240
504.256	252
504.473	243
504.69	252
504.907	257
505.123	244
505.34	259
505.557	239
505.773	238
505.99	227
506.207	231
506.423	225
506.64	214
506.856	230
507.073	244
507.289	252
507.506	261
507.722	252
507.939	248
508.155	269
508.372	228
508.588	223
508.805	233
509.021	233
509.238	232
509.454	214
509.67	214
509.887	228
510.103	219
510.319	244
510.536	238
510.752	225
510.968	205
511.184	181
511.401	207
511.617	211
511.833	207
512.049	240
512.265	205
512.481	229
512.698	246
512.914	241
513.13	237
513.346	217
513.562	230
513.778	214
513.994	212
514.21	248
514.426	222
514.642	215
514.858	222
515.074	232
515.29	252
515.506	272
515.721	262
515.937	219
516.153	216
516.369	209
516.585	226
516.801	259
517.016	302
517.232	276
517.448	279
517.664	255
517.879	245
518.095	259
518.311	255
518.527	265
518.742	273
518.958	269
519.173	265
519.389	285
519.605	273
519.82	264
520.036	295
520.251	300
520.467	300
520.682	517
520.898	623
521.113	587
521.329	345
521.544	311
521.76	295
521.975	253
522.19	250
522.406	257
522.621	263
522.836	295
523.052	309
523.267	253
523.482	257
523.698	255
523.913	251
524.128	251
524.343	234
524.559	231
524.774	220
524.989	218
525.204	234
525.419	221
525.634	243
525.849	251
526.064	237
526.28	243
526.495	275
526.71	319
526.925	272
527.14	292
527.355	269
527.57	244
527.785	273
527.999	237
528.214	221
528.429	209
528.644	206
528.859	202
529.074	202
529.289	201
529.503	204
529.718	225
529.933	279
530.148	311
530.363	233
530.577	222
530.792	208
531.007	228
531.221	213
531.436	202
531.651	190
531.865	204
532.08	213
532.295	204
532.509	213
532.724	223
532.938	264
533.153	330
533.367	256
533.582	262
533.796	223
534.011	215
534.225	213
534.44	234
534.654	223
534.868	298
535.083	266
535.297	223
535.511	211
535.726	220
535.94	221
536.154	207
536.369	195
536.583	217
536.797	214
537.011	199
537.225	234
537.44	254
537.654	187
537.868	212
538.082	216
538.296	203
538.51	216
538.724	230
538.938	226
539.153	223
539.367	197
539.581	217
539.795	227
540.009	229
540.222	217
540.436	228
540.65	245
540.864	257
541.078	268
541.292	303
541.506	245
541.72	222
541.934	220
542.147	208
542.361	232
542.575	205
542.789	211
543.002	205
543.216	212
543.43	185
543.644	193
543.857	203
544.071	206
544.285	193
544.498	202
544.712	206
544.925	219
545.139	206
545.352	195
545.566	202
545.779	205
545.993	193
546.206	176
546.42	185
546.633	187
546.847	165
547.06	189
547.274	187
547.487	190
547.7	204
547.914	212
548.127	206
548.34	212
548.554	201
548.767	203
548.98	233
549.193	204
549.407	200
549.62	223
549.833	230
550.046	224
550.259	227
550.473	214
550.686	201
550.899	204
551.112	213
551.325	222
551.538	215
551.751	190
551.964	216
552.177	204
552.39	201
552.603	188
552.816	204
553.029	189
553.242	185
553.455	195
553.667	218
553.88	193
554.093	200
554.306	179
554.519	179
554.732	169
554.944	171
555.157	168
555.37	166
555.583	171
555.795	173
556.008	176
556.221	199
556.433	177
556.646	161
556.859	180
557.071	179
557.284	180
557.496	189
557.709	176
557.921	170
558.134	171
558.346	169
558.559	170
558.771	188
558.984	183
559.196	169
559.409	169
559.621	175
559.833	169
560.046	172
560.258	182
560.47	163
560.683	162
560.895	163
561.107	164
561.32	167
561.532	158
561.744	177
561.956	176
562.168	163
562.381	161
562.593	172
562.805	163
563.017	171
563.229	172
563.441	164
563.653	155
563.865	161
564.077	173
564.289	156
564.501	169
564.713	186
564.925	160
565.137	164
565.349	167
565.561	163
565.773	167
565.985	171
566.197	172
566.408	186
566.62	175
566.832	189
567.044	191
567.255	191
567.467	214
567.679	215
567.891	206
568.102	208
568.314	211
568.526	176
568.737	159
568.949	192
569.161	177
569.372	173
569.584	190
569.795	156
570.007	181
570.218	174
570.43	173
570.641	165
570.853	170
571.064	167
571.276	170
571.487	156
571.698	161
571.91	150
572.121	172
572.333	159
572.544	165
572.755	160
572.966	143
573.178	159
573.389	170
573.6	169
573.811	158
574.023	146
574.234	166
574.445	154
574.656	141
574.867	151
575.078	166
575.289	161
575.501	170
575.712	164
575.923	147
576.134	139
576.345	127
576.556	156
576.767	152
576.978	139
577.188	150
577.399	153
577.61	136
577.821	143
578.032	139
578.243	156
578.454	149
578.665	161
578.875	164
579.086	175
579.297	159
579.508	182
579.718	139
579.929	165
580.14	159
580.35	159
580.561	127
580.772	140
580.982	139
581.193	148
581.403	125
581.614	129
581.825	136
582.035	143
582.246	133
582.456	141
582.667	129
582.877	126
583.087	135
583.298	124
583.508	146
583.719	140
583.929	149
584.139	129
584.35	127
584.56	138
584.77	141
584.981	140
585.191	147
585.401	151
585.611	139
585.821	135
586.032	144
586.242	143
586.452	145
586.662	149
586.872	141
587.082	150
587.292	135
587.502	155
587.713	142
587.923	116
588.133	159
588.343	137
588.553	158
588.762	144
588.972	139
589.182	117
589.392	148
589.602	145
589.812	138
590.022	145
590.232	139
590.441	125
590.651	123
590.861	144
591.071	143
591.281	137
591.49	129
591.7	135
591.91	142
592.119	117
592.329	140
592.539	129
592.748	128
592.958	140
593.167	147
593.377	139
593.587	143
593.796	155
594.006	151
594.215	151
594.424	141
594.634	157
594.843	151
595.053	135
595.262	145
595.472	141
595.681	130
595.89	138
596.1	135
596.309	127
596.518	132
596.727	108
596.937	126
597.146	139
597.355	141
597.564	133
597.774	112
597.983	115
598.192	134
598.401	124
598.61	127
598.819	118
599.028	128
599.237	109
599.446	119
599.655	127
599.864	129
600.073	102
600.282	123
600.491	123
600.7	120
600.909	127
601.118	123
601.327	141
601.536	142
601.745	135
601.953	148
602.162	128
602.371	145
602.58	153
602.789	123
602.997	123
603.206	130
603.415	132
603.623	112
603.832	117
604.041	108
604.249	108
604.458	111
604.666	127
604.875	113
605.084	111
605.292	148
605.501	120
605.709	120
605.918	126
606.126	125
606.334	122
606.543	130
606.751	118
606.96	124
607.168	133
607.376	121
607.585	120
607.793	127
608.001	115
608.21	109
608.418	135
608.626	120
608.834	115
609.043	128
609.251	132
609.459	121
609.667	121
609.875	124
610.083	125
610.291	133
610.499	126
610.707	126
610.916	130
611.124	111
611.332	113
611.54	129
611.748	115
611.955	129
612.163	129
612.371	120
612.579	112
612.787	135
612.995	114
613.203	121
613.411	131
613.618	108
613.826	133
614.034	102
614.242	121
614.449	111
614.657	118
614.865	103
615.072	126
615.28	115
615.488	118
615.695	127
615.903	118
616.111	131
616.318	115
616.526	123
616.733	121
616.941	114
617.148	106
617.356	103
617.563	112
617.771	116
617.978	105
618.185	104
618.393	101
618.6	118
618.807	119
619.015	127
619.222	104
619.429	111
619.637	127
619.844	125
620.051	123
620.258	126
620.466	123
620.673	121
620.88	121
621.087	107
621.294	115
621.501	128
621.708	104
621.915	107
622.122	115
622.329	108
622.536	118
622.743	102
622.95	115
623.157	112
623.364	129
623.571	115
623.778	115
623.985	122
624.192	114
624.399	123
624.606	115
624.812	119
625.019	116
625.226	125
625.433	127
625.639	96
625.846	117
626.053	104
626.259	124
626.466	110
626.673	131
626.879	106
627.086	95
627.293	118
627.499	110
627.706	96
627.912	109
628.119	109
628.325	105
628.532	111
628.738	100
628.945	99
629.151	126
629.357	103
629.564	109
629.77	102
629.976	114
630.183	110
630.389	119
630.595	115
630.802	115
631.008	122
631.214	114
631.42	115
631.627	110
631.833	89
632.039	88
632.245	101
632.451	117
632.657	107
632.863	108
633.069	103
633.275	103
633.481	92
633.688	87
633.893	114
634.099	105
634.305	100
634.511	110
634.717	115
634.923	99
635.129	93
635.335	123
635.541	90
635.747	96
635.952	95
636.158	113
636.364	95
636.57	109
636.775	101
636.981	96
637.187	125
637.392	108
637.598	107
637.804	100
638.009	101
638.215	88
638.421	107
638.626	105
638.832	110
639.037	99
639.243	107
639.448	102
639.654	104
639.859	108
640.065	115
640.27	123
640.475	109
640.681	107
640.886	101
641.091	110
641.297	104
641.502	98
641.707	124
641.913	101
642.118	91
642.323	99
642.528	86
642.733	107
642.939	119
643.144	115
643.349	106
643.554	109
643.759	106
643.964	111
644.169	88
644.374	109
644.579	93
644.784	87
644.989	93
645.194	102
645.399	102
645.604	95
645.809	93
646.014	98
646.219	106
646.423	110
646.628	95
646.833	108
647.038	87
647.243	116
647.447	112
647.652	119
647.857	99
648.062	90
648.266	109
648.471	102
648.676	105
648.88	109
649.085	115
649.289	105
649.494	108
649.698	106
649.903	108
650.107	106
650.312	94
650.516	100
650.721	118
650.925	99
651.13	101
651.334	102
651.539	92
651.743	101
651.947	94
652.152	117
652.356	105
652.56	101
652.764	95
652.969	96
653.173	106
653.377	98
653.581	94
653.785	95
653.99	85
654.194	88
654.398	107
654.602	91
654.806	105
655.01	95
655.214	88
655.418	94
655.622	99
655.826	85
656.03	87
656.234	95
656.438	89
656.642	95
656.846	87
657.049	101
657.253	101
657.457	78
657.661	115
657.865	91
658.068	83
658.272	90
658.476	90
658.68	95
658.883	85
659.087	99
659.291	99
659.494	88
659.698	97
659.901	89
660.105	88
660.309	95
660.512	95
660.716	95
660.919	101
661.123	95
661.326	95
661.53	96
661.733	82
661.936	89
662.14	69
662.343	95
662.546	93
662.75	79
662.953	92
663.156	91
663.36	93
663.563	87
663.766	96
663.969	84
664.173	88
664.376	97
664.579	96
664.782	90
664.985	99
665.188	80
665.391	84
665.594	92
665.797	85
666	91
666.203	80
666.406	77
666.609	85
666.812	89
667.015	95
667.218	86
667.421	87
667.624	88
667.827	84
668.03	77
668.232	86
668.435	79
668.638	67
668.841	94
669.043	70
669.246	90
669.449	81
669.651	79
669.854	97
670.057	84
670.259	77
670.462	86
670.665	89
670.867	90
671.07	85
671.272	74
671.475	88
671.677	93
671.88	90
672.082	89
672.284	101
672.487	80
672.689	91
672.892	75
