Data from NickelSpatula.Lamp.E10.P2_HRD10591_11-57-21-533.txt Node
Date: Tue Jul 23 11:57:21 EDT 2019
User: cochatt
Spectrometer: HR+D1059
Trigger mode: 1
Integration Time (sec): 1.000000E-1
Scans to average: 1
Electric dark correction enabled: true
Nonlinearity correction enabled: false
Boxcar width: 0
XAxis mode: Wavelengths
Number of Pixels in Spectrum: 2048
>>>>>Begin Spectral Data<<<<<
223.165	-17
223.4	-17
223.635	-17
223.869	-4
224.104	-9
224.338	-7
224.573	-21
224.808	-4
225.042	-4
225.277	-17
225.511	-17
225.746	8
225.98	3
226.215	15
226.449	5
226.683	12
226.918	23
227.152	34
227.387	48
227.621	39
227.856	46
228.09	49
228.324	31
228.559	47
228.793	79
229.027	136
229.262	140
229.496	151
229.73	155
229.964	202
230.199	207
230.433	231
230.667	216
230.901	216
231.136	194
231.37	199
231.604	223
231.838	224
232.072	251
232.306	243
232.541	235
232.775	259
233.009	242
233.243	293
233.477	303
233.711	327
233.945	325
234.179	317
234.413	364
234.647	381
234.881	440
235.115	408
235.349	371
235.583	351
235.817	335
236.051	344
236.285	401
236.519	431
236.753	421
236.987	419
237.221	383
237.455	397
237.689	404
237.922	439
238.156	449
238.39	522
238.624	636
238.858	550
239.091	482
239.325	484
239.559	475
239.793	522
240.027	627
240.26	593
240.494	559
240.728	548
240.961	676
241.195	621
241.429	612
241.662	586
241.896	506
242.13	463
242.363	429
242.597	466
242.83	533
243.064	515
243.298	554
243.531	608
243.765	621
243.998	616
244.232	579
244.465	580
244.699	566
244.932	616
245.166	583
245.399	540
245.633	525
245.866	550
246.099	562
246.333	676
246.566	742
246.8	739
247.033	743
247.266	660
247.5	662
247.733	650
247.966	628
248.2	665
248.433	728
248.666	804
248.899	809
249.133	815
249.366	937
249.599	995
249.832	895
250.066	765
250.299	807
250.532	812
250.765	785
250.998	699
251.231	685
251.465	728
251.698	790
251.931	764
252.164	800
252.397	901
252.63	1024
252.863	1112
253.096	1112
253.329	1083
253.562	1043
253.795	1170
254.028	1277
254.261	1321
254.494	1202
254.727	1079
254.96	1036
255.193	1112
255.426	1087
255.659	803
255.892	744
256.124	804
256.357	985
256.59	1145
256.823	1101
257.056	918
257.289	852
257.521	945
257.754	1071
257.987	1269
258.22	1069
258.452	949
258.685	1103
258.918	1216
259.151	1214
259.383	1270
259.616	1446
259.849	1495
260.081	1652
260.314	1807
260.547	1391
260.779	1448
261.012	1659
261.244	1563
261.477	1544
261.71	1475
261.942	1260
262.175	1231
262.407	1166
262.64	1211
262.872	1473
263.105	1581
263.337	1636
263.57	1480
263.802	989
264.035	839
264.267	842
264.499	750
264.732	673
264.964	654
265.197	671
265.429	767
265.661	787
265.894	811
266.126	893
266.358	972
266.591	1219
266.823	1399
267.055	1316
267.287	1171
267.52	1213
267.752	1258
267.984	1390
268.216	1333
268.448	1093
268.681	1061
268.913	1110
269.145	1203
269.377	1265
269.609	1259
269.841	1199
270.073	1243
270.306	1317
270.538	1330
270.77	1368
271.002	1381
271.234	1399
271.466	1431
271.698	1376
271.93	1354
272.162	1363
272.394	1344
272.626	1281
272.858	1375
273.09	1403
273.322	1251
273.553	1197
273.785	1394
274.017	1912
274.249	2311
274.481	2423
274.713	2629
274.945	2930
275.176	3077
275.408	2733
275.64	2505
275.872	2499
276.104	2085
276.335	1847
276.567	1823
276.799	1895
277.031	1984
277.262	1509
277.494	1197
277.726	1143
277.957	1293
278.189	1396
278.421	1371
278.652	1345
278.884	1314
279.115	1221
279.347	1153
279.579	1151
279.81	1151
280.042	1151
280.273	1155
280.505	1078
280.736	965
280.968	972
281.199	1080
281.431	1181
281.662	1165
281.894	1132
282.125	1213
282.356	1292
282.588	1342
282.819	1169
283.051	1344
283.282	1630
283.513	1840
283.745	2067
283.976	2097
284.207	1903
284.439	1956
284.67	1929
284.901	1690
285.132	1883
285.364	1939
285.595	1783
285.826	1905
286.057	1936
286.288	1859
286.52	1874
286.751	1987
286.982	1959
287.213	1712
287.444	1685
287.675	1757
287.906	1706
288.138	1450
288.369	1289
288.6	1223
288.831	1259
289.062	1490
289.293	1638
289.524	1542
289.755	1547
289.986	1562
290.217	1401
290.448	1070
290.679	948
290.91	904
291.141	880
291.371	915
291.602	915
291.833	949
292.064	1014
292.295	1142
292.526	1317
292.757	1367
292.987	1478
293.218	1477
293.449	1531
293.68	1620
293.91	1560
294.141	1554
294.372	1448
294.603	1364
294.833	1520
295.064	1746
295.295	1687
295.525	1256
295.756	1077
295.987	954
296.217	947
296.448	960
296.679	1044
296.909	1155
297.14	1218
297.37	1337
297.601	1271
297.831	1112
298.062	1203
298.292	1365
298.523	1481
298.753	1654
298.984	1489
299.214	1183
299.445	1010
299.675	979
299.905	943
300.136	1018
300.366	1081
300.597	1083
300.827	944
301.057	884
301.288	957
301.518	1024
301.748	1139
301.979	1201
302.209	1331
302.439	1323
302.669	1152
302.9	1145
303.13	1100
303.36	1023
303.59	992
303.82	1076
304.051	1144
304.281	1265
304.511	1225
304.741	1102
304.971	1129
305.201	1227
305.431	1129
305.661	1005
305.891	972
306.121	1020
306.352	911
306.582	831
306.812	806
307.042	819
307.272	761
307.502	776
307.731	818
307.961	879
308.191	822
308.421	773
308.651	742
308.881	717
309.111	729
309.341	792
309.571	877
309.8	905
310.03	876
310.26	929
310.49	885
310.72	820
310.949	793
311.179	879
311.409	855
311.639	1048
311.868	1311
312.098	1694
312.328	1824
312.557	1803
312.787	1789
313.017	1573
313.246	1694
313.476	1857
313.706	1536
313.935	1212
314.165	1003
314.394	899
314.624	925
314.853	997
315.083	976
315.312	965
315.542	959
315.771	873
316.001	799
316.23	821
316.46	806
316.689	809
316.919	859
317.148	860
317.377	837
317.607	847
317.836	913
318.065	1043
318.295	1154
318.524	1065
318.753	957
318.983	893
319.212	882
319.441	938
319.67	1023
319.9	1095
320.129	1064
320.358	916
320.587	889
320.816	945
321.046	1095
321.275	1220
321.504	1264
321.733	1201
321.962	1120
322.191	1080
322.42	992
322.649	1034
322.878	1130
323.108	1112
323.337	1048
323.566	1022
323.795	1009
324.024	974
324.253	917
324.482	919
324.71	990
324.939	1111
325.168	1059
325.397	879
325.626	869
325.855	839
326.084	881
326.313	860
326.542	789
326.77	821
326.999	864
327.228	903
327.457	946
327.686	943
327.914	869
328.143	813
328.372	793
328.6	799
328.829	857
329.058	815
329.287	854
329.515	859
329.744	836
329.972	775
330.201	775
330.43	780
330.658	868
330.887	977
331.115	957
331.344	944
331.572	927
331.801	832
332.03	829
332.258	861
332.486	919
332.715	959
332.943	883
333.172	876
333.4	893
333.629	960
333.857	1042
334.085	1063
334.314	1043
334.542	1017
334.771	943
334.999	911
335.227	882
335.455	884
335.684	1003
335.912	1115
336.14	1224
336.369	1229
336.597	1179
336.825	1289
337.053	1440
337.281	1134
337.51	965
337.738	933
337.966	1026
338.194	1124
338.422	1019
338.65	886
338.878	854
339.106	874
339.334	967
339.562	1010
339.79	957
340.018	895
340.246	995
340.474	1127
340.702	1180
340.93	1218
341.158	1201
341.386	1031
341.614	1061
341.842	1036
342.07	1057
342.298	1227
342.526	1285
342.754	1085
342.981	1048
343.209	992
343.437	1078
343.665	1124
343.893	1104
344.12	1270
344.348	1460
344.576	1310
344.804	1101
345.031	963
345.259	939
345.487	943
345.714	959
345.942	1033
346.17	1112
346.397	1073
346.625	940
346.853	917
347.08	900
347.308	929
347.535	1049
347.763	1075
347.99	936
348.218	887
348.445	920
348.673	909
348.9	941
349.128	983
349.355	996
349.583	973
349.81	997
350.037	894
350.265	795
350.492	770
350.72	768
350.947	792
351.174	834
351.402	889
351.629	923
351.856	883
352.083	832
352.311	905
352.538	995
352.765	1069
352.992	960
353.22	907
353.447	919
353.674	878
353.901	886
354.128	900
354.355	928
354.583	915
354.81	927
355.037	917
355.264	932
355.491	991
355.718	1073
355.945	1036
356.172	1007
356.399	1038
356.626	1225
356.853	1461
357.08	1537
357.307	1573
357.534	1232
357.761	1256
357.988	1576
358.215	1794
358.441	1705
358.668	1476
358.895	1353
359.122	1092
359.349	1116
359.576	1193
359.802	982
360.029	919
360.256	977
360.483	1154
360.709	1417
360.936	1525
361.163	1286
361.39	1032
361.616	969
361.843	1100
362.07	1360
362.296	1231
362.523	1019
362.749	870
362.976	911
363.203	1096
363.429	1222
363.656	990
363.882	930
364.109	924
364.335	905
364.562	899
364.788	987
365.015	1178
365.241	1056
365.468	880
365.694	775
365.92	774
366.147	751
366.373	776
366.599	761
366.826	753
367.052	774
367.278	789
367.505	772
367.731	852
367.957	934
368.184	955
368.41	933
368.636	949
368.862	983
369.089	940
369.315	849
369.541	843
369.767	826
369.993	820
370.219	824
370.445	867
370.672	933
370.898	994
371.124	972
371.35	901
371.576	832
371.802	910
372.028	1090
372.254	1217
372.48	1054
372.706	959
372.932	999
373.158	1064
373.384	1253
373.61	1608
373.835	1661
374.061	1250
374.287	1083
374.513	1227
374.739	1456
374.965	1510
375.191	1516
375.416	1055
375.642	964
375.868	1103
376.094	1224
376.319	1062
376.545	1161
376.771	1213
376.997	1055
377.222	809
377.448	715
377.674	736
377.899	727
378.125	742
378.35	716
378.576	733
378.802	832
379.027	888
379.253	839
379.478	851
379.704	959
379.929	977
380.155	997
380.38	886
380.606	929
380.831	1027
381.057	934
381.282	908
381.507	1067
381.733	1293
381.958	1344
382.184	1478
382.409	1519
382.634	1491
382.86	1602
383.085	1302
383.31	1060
383.535	1094
383.761	1113
383.986	1087
384.211	1308
384.436	1249
384.662	992
384.887	928
385.112	951
385.337	966
385.562	946
385.787	1035
386.013	1127
386.238	1153
386.463	943
386.688	943
386.913	888
387.138	865
387.363	923
387.588	911
387.813	932
388.038	1009
388.263	916
388.488	913
388.713	1018
388.938	1103
389.163	968
389.387	867
389.612	856
389.837	875
390.062	905
390.287	939
390.512	932
390.736	904
390.961	885
391.186	847
391.411	807
391.636	837
391.86	888
392.085	903
392.31	924
392.534	897
392.759	869
392.984	931
393.208	913
393.433	827
393.658	767
393.882	779
394.107	781
394.331	768
394.556	748
394.78	773
395.005	801
395.229	825
395.454	809
395.678	851
395.903	851
396.127	823
396.352	869
396.576	913
396.801	920
397.025	1031
397.249	1067
397.474	891
397.698	880
397.922	911
398.147	824
398.371	882
398.595	909
398.82	877
399.044	927
399.268	1006
399.492	1015
399.717	1028
399.941	1059
400.165	1035
400.389	1024
400.613	1019
400.837	988
401.062	909
401.286	887
401.51	861
401.734	879
401.958	867
402.182	906
402.406	862
402.63	902
402.854	911
403.078	1005
403.302	1220
403.526	1216
403.75	1145
403.974	1039
404.198	1075
404.422	1150
404.645	1304
404.869	1444
405.093	1124
405.317	945
405.541	934
405.765	967
405.988	973
406.212	1021
406.436	1230
406.66	1302
406.883	1085
407.107	1105
407.331	1280
407.555	1205
407.778	1062
408.002	1024
408.226	1013
408.449	1010
408.673	1004
408.896	908
409.12	891
409.344	869
409.567	861
409.791	884
410.014	875
410.238	838
410.461	895
410.685	882
410.908	888
411.132	888
411.355	913
411.578	919
411.802	908
412.025	928
412.249	947
412.472	945
412.695	935
412.919	899
413.142	936
413.365	1010
413.589	987
413.812	956
414.035	887
414.258	901
414.482	976
414.705	987
414.928	886
415.151	841
415.374	870
415.597	885
415.821	889
416.044	873
416.267	837
416.49	843
416.713	833
416.936	820
417.159	823
417.382	886
417.605	888
417.828	871
418.051	897
418.274	901
418.497	876
418.72	914
418.943	889
419.166	925
419.389	983
419.611	968
419.834	967
420.057	1023
420.28	1033
420.503	989
420.726	885
420.948	852
421.171	869
421.394	864
421.617	838
421.839	867
422.062	915
422.285	881
422.507	896
422.73	910
422.953	946
423.175	916
423.398	913
423.621	964
423.843	1007
424.066	940
424.288	902
424.511	881
424.733	869
424.956	909
425.178	1015
425.401	1166
425.623	1280
425.846	1083
426.068	963
426.291	1034
426.513	976
426.735	925
426.958	955
427.18	1074
427.402	1335
427.625	1327
427.847	1088
428.069	876
428.292	859
428.514	865
428.736	838
428.958	898
429.181	1060
429.403	921
429.625	855
429.847	841
430.069	861
430.292	884
430.514	817
430.736	899
430.958	1101
431.18	1004
431.402	818
431.624	785
431.846	797
432.068	799
432.29	789
432.512	884
432.734	1112
432.956	1087
433.178	859
433.4	829
433.622	833
433.844	837
434.066	896
434.287	864
434.509	861
434.731	888
434.953	855
435.175	886
435.397	983
435.618	846
435.84	806
436.062	800
436.284	823
436.505	782
436.727	784
436.949	765
437.17	814
437.392	829
437.614	800
437.835	800
438.057	811
438.278	916
438.5	1282
438.721	1268
438.943	864
439.165	763
439.386	761
439.608	775
439.829	771
440.05	792
440.272	838
440.493	961
440.715	1126
440.936	935
441.158	835
441.379	832
441.6	942
441.822	979
442.043	856
442.264	827
442.486	842
442.707	859
442.928	843
443.149	885
443.371	859
443.592	897
443.813	901
444.034	892
444.255	908
444.476	925
444.698	910
444.919	934
445.14	1023
445.361	966
445.582	893
445.803	891
446.024	910
446.245	903
446.466	872
446.687	840
446.908	845
447.129	827
447.35	765
447.571	767
447.792	794
448.013	788
448.234	765
448.455	775
448.675	795
448.896	815
449.117	801
449.338	791
449.559	819
449.779	867
450	854
450.221	801
450.442	807
450.662	818
450.883	760
451.104	797
451.324	800
451.545	795
451.766	797
451.986	780
452.207	747
452.428	744
452.648	755
452.869	783
453.089	802
453.31	788
453.53	717
453.751	712
453.971	735
454.192	739
454.412	771
454.633	738
454.853	750
455.073	717
455.294	724
455.514	707
455.734	743
455.955	781
456.175	815
456.395	740
456.616	681
456.836	693
457.056	674
457.276	667
457.497	688
457.717	686
457.937	713
458.157	704
458.377	705
458.598	731
458.818	736
459.038	789
459.258	795
459.478	806
459.698	857
459.918	852
460.138	831
460.358	856
460.578	832
460.798	873
461.018	879
461.238	857
461.458	845
461.678	863
461.898	938
462.118	889
462.338	891
462.558	958
462.777	943
462.997	995
463.217	999
463.437	1008
463.657	989
463.876	940
464.096	934
464.316	939
464.536	973
464.755	996
464.975	968
465.195	919
465.414	977
465.634	936
465.854	912
466.073	856
466.293	836
466.512	897
466.732	988
466.951	1003
467.171	927
467.391	878
467.61	847
467.829	913
468.049	911
468.268	843
468.488	825
468.707	860
468.927	1045
469.146	1111
469.365	995
469.585	914
469.804	963
470.023	1058
470.243	941
470.462	911
470.681	898
470.901	873
471.12	935
471.339	932
471.558	920
471.777	921
471.997	961
472.216	1071
472.435	1041
472.654	952
472.873	912
473.092	991
473.311	1019
473.53	931
473.749	900
473.968	939
474.187	915
474.406	899
474.625	880
474.844	928
475.063	1016
475.282	1015
475.501	1041
475.72	1080
475.939	1046
476.158	1063
476.377	1192
476.596	1340
476.814	1421
477.033	1211
477.252	1027
477.471	988
477.69	982
477.908	1051
478.127	1112
478.346	1003
478.564	1116
478.783	1077
479.002	1091
479.22	1222
479.439	1402
479.658	1193
479.876	1105
480.095	1173
480.313	1198
480.532	1078
480.751	1078
480.969	1068
481.188	1225
481.406	1286
481.624	1196
481.843	1114
482.061	1036
482.28	1147
482.498	1390
482.717	1335
482.935	1181
483.153	1101
483.372	1052
483.59	1011
483.808	999
484.027	992
484.245	1006
484.463	942
484.681	989
484.9	1076
485.118	1114
485.336	1078
485.554	1035
485.772	1063
485.99	1130
486.209	1177
486.427	1179
486.645	1176
486.863	1204
487.081	1201
487.299	1295
487.517	1285
487.735	1203
487.953	1197
488.171	1248
488.389	1121
488.607	1084
488.825	1099
489.043	1199
489.261	1357
489.479	1440
489.696	1235
489.914	1124
490.132	1067
490.35	1127
490.568	1107
490.786	1112
491.003	1110
491.221	1151
491.439	1140
491.657	1089
491.874	1195
492.092	1419
492.31	1617
492.527	1638
492.745	1455
492.963	1281
493.18	1250
493.398	1238
493.615	1246
493.833	1190
494.05	1175
494.268	1201
494.485	1209
494.703	1144
494.92	1199
495.138	1170
495.355	1152
495.573	1203
495.79	1340
496.008	1616
496.225	1474
496.442	1323
496.66	1329
496.877	1375
497.094	1344
497.312	1267
497.529	1286
497.746	1287
497.963	1350
498.181	1413
498.398	1543
498.615	1544
498.832	1644
499.049	1664
499.267	1497
499.484	1535
499.701	1602
499.918	1684
500.135	1824
500.352	1831
500.569	1911
500.786	1940
501.003	1952
501.22	1725
501.437	1645
501.654	1592
501.871	1555
502.088	1580
502.305	1429
502.522	1451
502.739	1459
502.956	1377
503.172	1332
503.389	1279
503.606	1235
503.823	1267
504.04	1323
504.256	1279
504.473	1329
504.69	1317
504.907	1308
505.123	1290
505.34	1406
505.557	1367
505.773	1298
505.99	1252
506.207	1342
506.423	1202
506.64	1140
506.856	1196
507.073	1313
507.289	1288
507.506	1293
507.722	1348
507.939	1389
508.155	1397
508.372	1263
508.588	1224
508.805	1199
509.021	1195
509.238	1119
509.454	1151
509.67	1127
509.887	1165
510.103	1270
510.319	1277
510.536	1145
510.752	1048
510.968	1043
511.184	997
511.401	1037
511.617	993
511.833	1010
512.049	1023
512.265	1037
512.481	1103
512.698	1200
512.914	1327
513.13	1209
513.346	1107
513.562	1159
513.778	1103
513.994	1113
514.21	1194
514.426	1170
514.642	1100
514.858	1083
515.074	1141
515.29	1243
515.506	1390
515.721	1309
515.937	1213
516.153	1145
516.369	1143
516.585	1164
516.801	1308
517.016	1483
517.232	1450
517.448	1455
517.664	1329
517.879	1247
518.095	1209
518.311	1233
518.527	1295
518.742	1344
518.958	1436
519.173	1310
519.389	1277
519.605	1367
519.82	1451
520.036	1653
520.251	1643
520.467	1513
520.682	2136
520.898	2601
521.113	2440
521.329	1618
521.544	1494
521.76	1464
521.975	1269
522.19	1234
522.406	1249
522.621	1406
522.836	1439
523.052	1464
523.267	1225
523.482	1238
523.698	1305
523.913	1289
524.128	1202
524.343	1120
524.559	1119
524.774	1094
524.989	1145
525.204	1139
525.419	1295
525.634	1180
525.849	1185
526.064	1218
526.28	1221
526.495	1414
526.71	1413
526.925	1243
527.14	1279
527.355	1252
527.57	1096
527.785	1153
527.999	1089
528.214	1043
528.429	1041
528.644	1021
528.859	973
529.074	953
529.289	971
529.503	965
529.718	996
529.933	1113
530.148	1147
530.363	1041
530.577	991
530.792	959
531.007	966
531.221	935
531.436	958
531.651	929
531.865	964
532.08	992
532.295	958
532.509	987
532.724	1114
532.938	1230
533.153	1389
533.367	1149
533.582	1125
533.796	1059
534.011	1024
534.225	1021
534.44	1020
534.654	1069
534.868	1169
535.083	1067
535.297	980
535.511	996
535.726	1107
535.94	1065
536.154	988
536.369	955
536.583	959
536.797	975
537.011	988
537.225	1049
537.44	1087
537.654	992
537.868	1000
538.082	978
538.296	963
538.51	1043
538.724	1029
538.938	984
539.153	947
539.367	939
539.581	968
539.795	1013
540.009	1073
540.222	1000
540.436	981
540.65	1064
540.864	1091
541.078	1162
541.292	1251
541.506	1061
541.72	1045
541.934	976
542.147	1012
542.361	1010
542.575	1051
542.789	1003
543.002	928
543.216	992
543.43	911
543.644	881
543.857	896
544.071	902
544.285	943
544.498	881
544.712	898
544.925	964
545.139	921
545.352	884
545.566	900
545.779	1024
545.993	937
546.206	852
546.42	872
546.633	860
546.847	832
547.06	832
547.274	827
547.487	875
547.7	941
547.914	977
548.127	1078
548.34	1023
548.554	958
548.767	966
548.98	1025
549.193	964
549.407	977
549.62	1157
549.833	1067
550.046	1132
550.259	1139
550.473	985
550.686	968
550.899	977
551.112	958
551.325	999
551.538	1054
551.751	944
551.964	909
552.177	889
552.39	877
552.603	893
552.816	931
553.029	880
553.242	823
553.455	924
553.667	990
553.88	947
554.093	850
554.306	820
554.519	761
554.732	793
554.944	766
555.157	769
555.37	780
555.583	747
555.795	763
556.008	772
556.221	774
556.433	744
556.646	738
556.859	785
557.071	782
557.284	797
557.496	797
557.709	791
557.921	775
558.134	698
558.346	719
558.559	699
558.771	773
558.984	780
559.196	744
559.409	737
559.621	695
559.833	688
560.046	692
560.258	696
560.47	752
560.683	695
560.895	674
561.107	657
561.32	653
561.532	679
561.744	745
561.956	737
562.168	677
562.381	672
562.593	728
562.805	706
563.017	684
563.229	668
563.441	666
563.653	675
563.865	658
564.077	690
564.289	672
564.501	664
564.713	721
564.925	711
565.137	693
565.349	688
565.561	683
565.773	681
565.985	727
566.197	768
566.408	805
566.62	854
566.832	834
567.044	833
567.255	862
567.467	945
567.679	853
567.891	894
568.102	885
568.314	859
568.526	851
568.737	819
568.949	861
569.161	745
569.372	678
569.584	669
569.795	674
570.007	673
570.218	721
570.43	712
570.641	679
570.853	655
571.064	641
571.276	685
571.487	691
571.698	648
571.91	653
572.121	685
572.333	617
572.544	615
572.755	630
572.966	597
573.178	603
573.389	624
573.6	621
573.811	604
574.023	551
574.234	583
574.445	556
574.656	553
574.867	561
575.078	560
575.289	569
575.501	603
575.712	563
575.923	540
576.134	529
576.345	536
576.556	548
576.767	526
576.978	501
577.188	491
577.399	522
577.61	511
577.821	530
578.032	546
578.243	557
578.454	555
578.665	551
578.875	558
579.086	551
579.297	548
579.508	544
579.718	537
579.929	523
580.14	525
580.35	502
580.561	499
580.772	479
580.982	484
581.193	472
581.403	469
581.614	439
581.825	476
582.035	459
582.246	459
582.456	451
582.667	457
582.877	471
583.087	459
583.298	467
583.508	459
583.719	439
583.929	461
584.139	447
584.35	455
584.56	486
584.77	476
584.981	465
585.191	461
585.401	457
585.611	467
585.821	484
586.032	466
586.242	444
586.452	459
586.662	466
586.872	503
587.082	481
587.292	459
587.502	455
587.713	439
587.923	466
588.133	493
588.343	488
588.553	437
588.762	450
588.972	441
589.182	453
589.392	451
589.602	457
589.812	464
590.022	519
590.232	498
590.441	469
590.651	447
590.861	445
591.071	462
591.281	454
591.49	452
591.7	450
591.91	441
592.119	443
592.329	462
592.539	445
592.748	438
592.958	457
593.167	472
593.377	480
593.587	484
593.796	492
594.006	467
594.215	465
594.424	478
594.634	511
594.843	477
595.053	457
595.262	436
595.472	409
595.681	420
595.89	397
596.1	408
596.309	431
596.518	432
596.727	420
596.937	401
597.146	453
597.355	471
597.564	440
597.774	412
597.983	419
598.192	413
598.401	378
598.61	374
598.819	392
599.028	375
599.237	383
599.446	377
599.655	358
599.864	373
600.073	365
600.282	369
600.491	376
600.7	359
600.909	379
601.118	376
601.327	358
601.536	375
601.745	370
601.953	391
602.162	378
602.371	388
602.58	384
602.789	375
602.997	383
603.206	357
603.415	360
603.623	338
603.832	367
604.041	349
604.249	369
604.458	381
604.666	370
604.875	331
605.084	347
605.292	335
605.501	363
605.709	369
605.918	351
606.126	337
606.334	343
606.543	356
606.751	347
606.96	336
607.168	353
607.376	348
607.585	333
607.793	348
608.001	343
608.21	351
608.418	368
608.626	348
608.834	322
609.043	334
609.251	337
609.459	334
609.667	342
609.875	346
610.083	339
610.291	344
610.499	368
610.707	327
610.916	340
611.124	320
611.332	327
611.54	329
611.748	325
611.955	329
612.163	334
612.371	320
612.579	325
612.787	315
612.995	333
613.203	316
613.411	324
613.618	331
613.826	355
614.034	350
614.242	329
614.449	320
614.657	321
614.865	316
615.072	324
615.28	309
615.488	315
615.695	313
615.903	301
616.111	295
616.318	317
616.526	316
616.733	312
616.941	312
617.148	311
617.356	306
617.563	319
617.771	316
617.978	315
618.185	321
618.393	325
618.6	308
618.807	313
619.015	327
619.222	318
619.429	310
619.637	312
619.844	303
620.051	290
620.258	293
620.466	290
620.673	298
620.88	297
621.087	269
621.294	277
621.501	278
621.708	291
621.915	284
622.122	297
622.329	294
622.536	274
622.743	287
622.95	285
623.157	281
623.364	296
623.571	291
623.778	285
623.985	310
624.192	283
624.399	304
624.606	311
624.812	303
625.019	303
625.226	301
625.433	300
625.639	265
625.846	291
626.053	269
626.259	277
626.466	270
626.673	280
626.879	285
627.086	271
627.293	259
627.499	281
627.706	276
627.912	259
628.119	251
628.325	253
628.532	265
628.738	279
628.945	255
629.151	264
629.357	274
629.564	271
629.77	228
629.976	269
630.183	251
630.389	253
630.595	253
630.802	252
631.008	258
631.214	247
631.42	260
631.627	245
631.833	235
632.039	241
632.245	229
632.451	241
632.657	255
632.863	238
633.069	223
633.275	253
633.481	223
633.688	245
633.893	235
634.099	235
634.305	231
634.511	221
634.717	227
634.923	215
635.129	236
635.335	216
635.541	228
635.747	227
635.952	240
636.158	231
636.364	242
636.57	237
636.775	216
636.981	218
637.187	215
637.392	220
637.598	231
637.804	235
638.009	229
638.215	224
638.421	215
638.626	224
638.832	220
639.037	225
639.243	214
639.448	221
639.654	232
639.859	227
640.065	212
640.27	221
640.475	220
640.681	219
640.886	220
641.091	207
641.297	209
641.502	224
641.707	219
641.913	220
642.118	212
642.323	232
642.528	214
642.733	228
642.939	209
643.144	192
643.349	218
643.554	217
643.759	219
643.964	219
644.169	206
644.374	199
644.579	198
644.784	195
644.989	211
645.194	209
645.399	205
645.604	204
645.809	220
646.014	199
646.219	208
646.423	207
646.628	195
646.833	200
647.038	185
647.243	203
647.447	209
647.652	204
647.857	207
648.062	204
648.266	212
648.471	214
648.676	215
648.88	207
649.085	211
649.289	206
649.494	192
649.698	230
649.903	208
650.107	220
650.312	212
650.516	193
650.721	212
650.925	185
651.13	182
651.334	197
651.539	183
651.743	176
651.947	192
652.152	183
652.356	177
652.56	164
652.764	179
652.969	177
653.173	164
653.377	174
653.581	171
653.785	178
653.99	155
654.194	162
654.398	151
654.602	166
654.806	168
655.01	167
655.214	160
655.418	166
655.622	141
655.826	145
656.03	152
656.234	165
656.438	156
656.642	147
656.846	147
657.049	143
657.253	151
657.457	132
657.661	122
657.865	120
658.068	118
658.272	119
658.476	115
658.68	126
658.883	114
659.087	112
659.291	111
659.494	107
659.698	105
659.901	108
660.105	86
660.309	81
660.512	86
660.716	85
660.919	104
661.123	97
661.326	98
661.53	102
661.733	87
661.936	85
662.14	101
662.343	77
662.546	83
662.75	73
662.953	93
663.156	91
663.36	88
663.563	79
663.766	76
663.969	77
664.173	92
664.376	72
664.579	89
664.782	81
664.985	67
665.188	75
665.391	78
665.594	75
665.797	69
666	77
666.203	77
666.406	85
666.609	63
666.812	71
667.015	77
667.218	92
667.421	84
667.624	75
667.827	107
668.03	80
668.232	80
668.435	70
668.638	80
668.841	82
669.043	81
669.246	92
669.449	63
669.651	77
669.854	88
670.057	88
670.259	73
670.462	77
670.665	79
670.867	79
671.07	84
671.272	78
671.475	79
671.677	61
671.88	74
672.082	82
672.284	65
672.487	82
672.689	93
672.892	82
