Data from NickelSpatula.Lamp.E5.5.P2_HRD10591_11-54-00-554.txt Node
Date: Tue Jul 23 11:54:00 EDT 2019
User: cochatt
Spectrometer: HR+D1059
Trigger mode: 1
Integration Time (sec): 1.000000E-1
Scans to average: 1
Electric dark correction enabled: true
Nonlinearity correction enabled: false
Boxcar width: 0
XAxis mode: Wavelengths
Number of Pixels in Spectrum: 2048
>>>>>Begin Spectral Data<<<<<
223.165	-8
223.4	-8
223.635	-8
223.869	-19
224.104	-24
224.338	-7
224.573	-18
224.808	-17
225.042	-18
225.277	1
225.511	-4
225.746	4
225.98	3
226.215	4
226.449	21
226.683	26
226.918	33
227.152	23
227.387	35
227.621	42
227.856	42
228.09	61
228.324	38
228.559	52
228.793	49
229.027	74
229.262	83
229.496	70
229.73	78
229.964	84
230.199	92
230.433	99
230.667	94
230.901	98
231.136	94
231.37	113
231.604	88
231.838	100
232.072	99
232.306	94
232.541	102
232.775	107
233.009	100
233.243	100
233.477	110
233.711	135
233.945	118
234.179	112
234.413	115
234.647	108
234.881	141
235.115	128
235.349	133
235.583	98
235.817	103
236.051	115
236.285	135
236.519	122
236.753	127
236.987	121
237.221	123
237.455	136
237.689	124
237.922	130
238.156	126
238.39	152
238.624	170
238.858	147
239.091	133
239.325	129
239.559	120
239.793	129
240.027	160
240.26	152
240.494	139
240.728	157
240.961	151
241.195	145
241.429	172
241.662	159
241.896	126
242.13	130
242.363	114
242.597	126
242.83	147
243.064	141
243.298	160
243.531	148
243.765	138
243.998	143
244.232	156
244.465	145
244.699	147
244.932	167
245.166	163
245.399	151
245.633	136
245.866	144
246.099	158
246.333	170
246.566	178
246.8	181
247.033	164
247.266	178
247.5	178
247.733	165
247.966	160
248.2	162
248.433	176
248.666	197
248.899	205
249.133	191
249.366	199
249.599	215
249.832	213
250.066	189
250.299	187
250.532	174
250.765	193
250.998	168
251.231	166
251.465	182
251.698	188
251.931	183
252.164	188
252.397	193
252.63	226
252.863	231
253.096	246
253.329	246
253.562	237
253.795	241
254.028	310
254.261	289
254.494	262
254.727	234
254.96	242
255.193	238
255.426	229
255.659	193
255.892	182
256.124	189
256.357	226
256.59	233
256.823	238
257.056	220
257.289	221
257.521	220
257.754	233
257.987	270
258.22	240
258.452	210
258.685	229
258.918	272
259.151	264
259.383	266
259.616	302
259.849	323
260.081	332
260.314	357
260.547	304
260.779	295
261.012	326
261.244	314
261.477	337
261.71	320
261.942	265
262.175	262
262.407	242
262.64	257
262.872	287
263.105	314
263.337	321
263.57	306
263.802	230
264.035	200
264.267	216
264.499	198
264.732	176
264.964	163
265.197	165
265.429	185
265.661	183
265.894	191
266.126	204
266.358	227
266.591	271
266.823	306
267.055	286
267.287	269
267.52	277
267.752	273
267.984	325
268.216	270
268.448	231
268.681	242
268.913	254
269.145	274
269.377	266
269.609	276
269.841	250
270.073	274
270.306	287
270.538	273
270.77	273
271.002	276
271.234	283
271.466	304
271.698	278
271.93	250
272.162	269
272.394	278
272.626	261
272.858	283
273.09	303
273.322	262
273.553	250
273.785	292
274.017	351
274.249	420
274.481	447
274.713	470
274.945	536
275.176	554
275.408	486
275.64	450
275.872	453
276.104	403
276.335	342
276.567	343
276.799	364
277.031	387
277.262	312
277.494	252
277.726	241
277.957	261
278.189	278
278.421	270
278.652	281
278.884	279
279.115	244
279.347	232
279.579	243
279.81	261
280.042	259
280.273	255
280.505	233
280.736	206
280.968	221
281.199	235
281.431	265
281.662	245
281.894	244
282.125	251
282.356	283
282.588	265
282.819	248
283.051	262
283.282	318
283.513	358
283.745	414
283.976	394
284.207	371
284.439	388
284.67	384
284.901	351
285.132	360
285.364	367
285.595	343
285.826	357
286.057	364
286.288	370
286.52	349
286.751	392
286.982	398
287.213	338
287.444	335
287.675	344
287.906	351
288.138	308
288.369	284
288.6	266
288.831	286
289.062	324
289.293	342
289.524	328
289.755	302
289.986	326
290.217	286
290.448	244
290.679	217
290.91	217
291.141	217
291.371	201
291.602	207
291.833	227
292.064	238
292.295	250
292.526	287
292.757	288
292.987	308
293.218	311
293.449	312
293.68	330
293.91	312
294.141	340
294.372	320
294.603	278
294.833	306
295.064	367
295.295	348
295.525	271
295.756	244
295.987	218
296.217	215
296.448	239
296.679	231
296.909	263
297.14	262
297.37	290
297.601	267
297.831	237
298.062	255
298.292	300
298.523	301
298.753	322
298.984	310
299.214	268
299.445	221
299.675	230
299.905	232
300.136	224
300.366	253
300.597	244
300.827	223
301.057	221
301.288	224
301.518	233
301.748	283
301.979	284
302.209	296
302.439	274
302.669	240
302.9	252
303.13	257
303.36	240
303.59	246
303.82	235
304.051	246
304.281	269
304.511	263
304.741	243
304.971	249
305.201	265
305.431	256
305.661	233
305.891	234
306.121	231
306.352	208
306.582	201
306.812	199
307.042	196
307.272	187
307.502	191
307.731	194
307.961	206
308.191	207
308.421	193
308.651	190
308.881	185
309.111	199
309.341	186
309.571	196
309.8	197
310.03	196
310.26	216
310.49	228
310.72	211
310.949	196
311.179	198
311.409	214
311.639	225
311.868	284
312.098	322
312.328	364
312.557	328
312.787	354
313.017	316
313.246	347
313.476	374
313.706	308
313.935	270
314.165	222
314.394	195
314.624	220
314.853	219
315.083	224
315.312	225
315.542	207
315.771	215
316.001	201
316.23	194
316.46	191
316.689	199
316.919	192
317.148	207
317.377	193
317.607	196
317.836	202
318.065	224
318.295	244
318.524	205
318.753	209
318.983	195
319.212	199
319.441	206
319.67	208
319.9	229
320.129	220
320.358	200
320.587	196
320.816	214
321.046	234
321.275	253
321.504	252
321.733	239
321.962	245
322.191	216
322.42	233
322.649	231
322.878	239
323.108	247
323.337	229
323.566	236
323.795	238
324.024	227
324.253	200
324.482	210
324.71	209
324.939	258
325.168	242
325.397	197
325.626	229
325.855	209
326.084	212
326.313	210
326.542	204
326.77	210
326.999	203
327.228	198
327.457	220
327.686	222
327.914	189
328.143	188
328.372	186
328.6	198
328.829	200
329.058	196
329.287	196
329.515	191
329.744	204
329.972	180
330.201	184
330.43	189
330.658	205
330.887	229
331.115	217
331.344	217
331.572	214
331.801	216
332.03	179
332.258	196
332.486	212
332.715	208
332.943	208
333.172	232
333.4	222
333.629	232
333.857	238
334.085	242
334.314	249
334.542	239
334.771	229
334.999	223
335.227	202
335.455	217
335.684	221
335.912	249
336.14	242
336.369	265
336.597	259
336.825	274
337.053	312
337.281	249
337.51	228
337.738	223
337.966	231
338.194	234
338.422	224
338.65	198
338.878	196
339.106	205
339.334	225
339.562	249
339.79	214
340.018	214
340.246	217
340.474	227
340.702	249
340.93	258
341.158	250
341.386	231
341.614	224
341.842	238
342.07	238
342.298	265
342.526	276
342.754	226
342.981	232
343.209	194
343.437	248
343.665	260
343.893	255
344.12	292
344.348	318
344.576	293
344.804	255
345.031	223
345.259	214
345.487	225
345.714	222
345.942	224
346.17	244
346.397	248
346.625	213
346.853	206
347.08	214
347.308	210
347.535	248
347.763	246
347.99	229
348.218	220
348.445	200
348.673	212
348.9	217
349.128	215
349.355	246
349.583	225
349.81	206
350.037	210
350.265	200
350.492	198
350.72	191
350.947	196
351.174	201
351.402	222
351.629	208
351.856	224
352.083	199
352.311	216
352.538	224
352.765	231
352.992	213
353.22	208
353.447	232
353.674	204
353.901	215
354.128	205
354.355	203
354.583	218
354.81	219
355.037	237
355.264	230
355.491	229
355.718	253
355.945	238
356.172	239
356.399	239
356.626	281
356.853	309
357.08	320
357.307	324
357.534	292
357.761	291
357.988	342
358.215	389
358.441	379
358.668	325
358.895	300
359.122	274
359.349	266
359.576	302
359.802	242
360.029	202
360.256	232
360.483	267
360.709	340
360.936	356
361.163	307
361.39	249
361.616	228
361.843	258
362.07	294
362.296	278
362.523	228
362.749	200
362.976	217
363.203	248
363.429	276
363.656	220
363.882	216
364.109	226
364.335	209
364.562	212
364.788	227
365.015	244
365.241	236
365.468	225
365.694	211
365.92	200
366.147	188
366.373	165
366.599	196
366.826	180
367.052	211
367.278	222
367.505	192
367.731	188
367.957	214
368.184	224
368.41	205
368.636	220
368.862	220
369.089	218
369.315	204
369.541	203
369.767	209
369.993	203
370.219	188
370.445	209
370.672	229
370.898	252
371.124	227
371.35	218
371.576	225
371.802	210
372.028	258
372.254	270
372.48	256
372.706	226
372.932	251
373.158	252
373.384	275
373.61	345
373.835	364
374.061	284
374.287	242
374.513	289
374.739	340
374.965	340
375.191	328
375.416	274
375.642	223
375.868	249
376.094	275
376.319	241
376.545	265
376.771	292
376.997	255
377.222	202
377.448	177
377.674	183
377.899	191
378.125	188
378.35	182
378.576	184
378.802	204
379.027	205
379.253	213
379.478	208
379.704	230
379.929	246
380.155	233
380.38	221
380.606	215
380.831	230
381.057	246
381.282	218
381.507	245
381.733	281
381.958	299
382.184	316
382.409	344
382.634	348
382.86	340
383.085	292
383.31	251
383.535	268
383.761	266
383.986	253
384.211	296
384.436	289
384.662	248
384.887	240
385.112	245
385.337	246
385.562	228
385.787	241
386.013	265
386.238	260
386.463	238
386.688	222
386.913	230
387.138	214
387.363	230
387.588	218
387.813	229
388.038	223
388.263	240
388.488	224
388.713	247
388.938	273
389.163	228
389.387	221
389.612	218
389.837	220
390.062	230
390.287	222
390.512	221
390.736	229
390.961	208
391.186	197
391.411	185
391.636	218
391.86	221
392.085	247
392.31	236
392.534	224
392.759	232
392.984	248
393.208	240
393.433	213
393.658	206
393.882	211
394.107	204
394.331	191
394.556	196
394.78	200
395.005	185
395.229	205
395.454	206
395.678	202
395.903	224
396.127	207
396.352	206
396.576	247
396.801	223
397.025	232
397.249	273
397.474	227
397.698	218
397.922	220
398.147	223
398.371	199
398.595	221
398.82	232
399.044	238
399.268	249
399.492	274
399.717	301
399.941	284
400.165	262
400.389	258
400.613	246
400.837	237
401.062	230
401.286	217
401.51	213
401.734	227
401.958	224
402.182	210
402.406	227
402.63	239
402.854	233
403.078	287
403.302	348
403.526	366
403.75	312
403.974	272
404.198	272
404.422	288
404.645	294
404.869	337
405.093	280
405.317	243
405.541	237
405.765	258
405.988	258
406.212	247
406.436	265
406.66	300
406.883	278
407.107	277
407.331	305
407.555	297
407.778	277
408.002	269
408.226	249
408.449	261
408.673	243
408.896	248
409.12	236
409.344	242
409.567	239
409.791	245
410.014	236
410.238	239
410.461	230
410.685	233
410.908	238
411.132	229
411.355	220
411.578	216
411.802	254
412.025	216
412.249	236
412.472	230
412.695	237
412.919	238
413.142	225
413.365	237
413.589	246
413.812	239
414.035	239
414.258	226
414.482	231
414.705	258
414.928	232
415.151	224
415.374	220
415.597	225
415.821	222
416.044	216
416.267	216
416.49	215
416.713	233
416.936	213
417.159	245
417.382	228
417.605	229
417.828	227
418.051	226
418.274	246
418.497	222
418.72	244
418.943	229
419.166	222
419.389	237
419.611	236
419.834	249
420.057	268
420.28	252
420.503	259
420.726	223
420.948	227
421.171	215
421.394	222
421.617	220
421.839	223
422.062	221
422.285	225
422.507	234
422.73	234
422.953	233
423.175	231
423.398	245
423.621	262
423.843	258
424.066	251
424.288	224
424.511	244
424.733	249
424.956	252
425.178	263
425.401	303
425.623	342
425.846	297
426.068	255
426.291	269
426.513	241
426.735	231
426.958	239
427.18	264
427.402	324
427.625	340
427.847	292
428.069	231
428.292	236
428.514	235
428.736	230
428.958	251
429.181	304
429.403	269
429.625	220
429.847	226
430.069	236
430.292	249
430.514	215
430.736	221
430.958	263
431.18	243
431.402	208
431.624	213
431.846	216
432.068	207
432.29	225
432.512	240
432.734	280
432.956	246
433.178	214
433.4	210
433.622	213
433.844	228
434.066	235
434.287	213
434.509	238
434.731	256
434.953	245
435.175	228
435.397	256
435.618	229
435.84	202
436.062	208
436.284	231
436.505	212
436.727	212
436.949	204
437.17	209
437.392	214
437.614	219
437.835	202
438.057	217
438.278	242
438.5	316
438.721	312
438.943	240
439.165	202
439.386	212
439.608	220
439.829	209
440.05	198
440.272	216
440.493	231
440.715	286
440.936	217
441.158	213
441.379	231
441.6	240
441.822	270
442.043	223
442.264	236
442.486	235
442.707	223
442.928	224
443.149	221
443.371	210
443.592	221
443.813	243
444.034	233
444.255	233
444.476	247
444.698	240
444.919	243
445.14	326
445.361	280
445.582	253
445.803	232
446.024	250
446.245	240
446.466	235
446.687	221
446.908	216
447.129	240
447.35	206
447.571	198
447.792	198
448.013	203
448.234	201
448.455	201
448.675	201
448.896	186
449.117	202
449.338	200
449.559	211
449.779	212
450	201
450.221	207
450.442	207
450.662	219
450.883	205
451.104	213
451.324	210
451.545	210
451.766	204
451.986	215
452.207	189
452.428	207
452.648	205
452.869	192
453.089	215
453.31	200
453.53	213
453.751	206
453.971	199
454.192	196
454.412	206
454.633	196
454.853	191
455.073	208
455.294	193
455.514	200
455.734	200
455.955	201
456.175	189
456.395	218
456.616	187
456.836	183
457.056	174
457.276	159
457.497	190
457.717	188
457.937	200
458.157	193
458.377	184
458.598	190
458.818	209
459.038	204
459.258	213
459.478	225
459.698	232
459.918	250
460.138	223
460.358	259
460.578	231
460.798	230
461.018	222
461.238	238
461.458	221
461.678	231
461.898	237
462.118	240
462.338	241
462.558	242
462.777	254
462.997	257
463.217	281
463.437	298
463.657	260
463.876	261
464.096	252
464.316	269
464.536	281
464.755	261
464.975	250
465.195	259
465.414	263
465.634	241
465.854	210
466.073	215
466.293	218
466.512	223
466.732	241
466.951	249
467.171	236
467.391	221
467.61	223
467.829	246
468.049	216
468.268	230
468.488	218
468.707	224
468.927	249
469.146	257
469.365	247
469.585	230
469.804	226
470.023	236
470.243	212
470.462	236
470.681	218
470.901	236
471.12	221
471.339	234
471.558	212
471.777	212
471.997	229
472.216	267
472.435	252
472.654	237
472.873	210
473.092	242
473.311	231
473.53	231
473.749	231
473.968	238
474.187	215
474.406	228
474.625	209
474.844	217
475.063	230
475.282	247
475.501	252
475.72	277
475.939	272
476.158	268
476.377	282
476.596	319
476.814	310
477.033	286
477.252	254
477.471	218
477.69	234
477.908	244
478.127	250
478.346	250
478.564	293
478.783	260
479.002	259
479.22	278
479.439	297
479.658	288
479.876	252
480.095	272
480.313	289
480.532	273
480.751	255
480.969	262
481.188	279
481.406	274
481.624	265
481.843	268
482.061	234
482.28	282
482.498	321
482.717	316
482.935	284
483.153	262
483.372	255
483.59	241
483.808	215
484.027	241
484.245	240
484.463	238
484.681	237
484.9	260
485.118	262
485.336	260
485.554	256
485.772	259
485.99	273
486.209	291
486.427	274
486.645	280
486.863	284
487.081	294
487.299	302
487.517	291
487.735	280
487.953	267
488.171	279
488.389	247
488.607	241
488.825	263
489.043	283
489.261	297
489.479	311
489.696	303
489.914	257
490.132	242
490.35	262
490.568	257
490.786	265
491.003	272
491.221	264
491.439	250
491.657	256
491.874	256
492.092	310
492.31	350
492.527	313
492.745	313
492.963	280
493.18	275
493.398	260
493.615	293
493.833	282
494.05	276
494.268	256
494.485	273
494.703	270
494.92	264
495.138	264
495.355	265
495.573	274
495.79	295
496.008	361
496.225	303
496.442	289
496.66	286
496.877	289
497.094	295
497.312	277
497.529	275
497.746	289
497.963	288
498.181	316
498.398	344
498.615	344
498.832	348
499.049	376
499.267	341
499.484	367
499.701	400
499.918	413
500.135	479
500.352	508
500.569	514
500.786	533
501.003	503
501.22	468
501.437	415
501.654	373
501.871	360
502.088	328
502.305	328
502.522	311
502.739	323
502.956	321
503.172	294
503.389	290
503.606	290
503.823	284
504.04	304
504.256	308
504.473	302
504.69	319
504.907	307
505.123	300
505.34	307
505.557	297
505.773	284
505.99	297
506.207	293
506.423	256
506.64	274
506.856	277
507.073	283
507.289	284
507.506	288
507.722	275
507.939	316
508.155	313
508.372	276
508.588	258
508.805	240
509.021	272
509.238	263
509.454	256
509.67	258
509.887	264
510.103	282
510.319	278
510.536	269
510.752	256
510.968	240
511.184	224
511.401	244
511.617	217
511.833	249
512.049	238
512.265	236
512.481	245
512.698	266
512.914	305
513.13	270
513.346	245
513.562	244
513.778	258
513.994	258
514.21	258
514.426	267
514.642	267
514.858	252
515.074	257
515.29	290
515.506	324
515.721	292
515.937	280
516.153	271
516.369	268
516.585	287
516.801	295
517.016	327
517.232	326
517.448	330
517.664	305
517.879	323
518.095	302
518.311	294
518.527	310
518.742	306
518.958	330
519.173	325
519.389	286
519.605	304
519.82	295
520.036	348
520.251	351
520.467	370
520.682	564
520.898	691
521.113	678
521.329	396
521.544	333
521.76	319
521.975	316
522.19	262
522.406	309
522.621	291
522.836	308
523.052	308
523.267	289
523.482	278
523.698	287
523.913	275
524.128	270
524.343	256
524.559	259
524.774	252
524.989	265
525.204	270
525.419	295
525.634	282
525.849	272
526.064	278
526.28	285
526.495	323
526.71	337
526.925	279
527.14	302
527.355	303
527.57	256
527.785	285
527.999	280
528.214	247
528.429	242
528.644	239
528.859	229
529.074	241
529.289	244
529.503	226
529.718	229
529.933	302
530.148	300
530.363	233
530.577	257
530.792	245
531.007	247
531.221	238
531.436	252
531.651	223
531.865	239
532.08	239
532.295	240
532.509	262
532.724	272
532.938	312
533.153	336
533.367	285
533.582	271
533.796	249
534.011	251
534.225	246
534.44	243
534.654	262
534.868	315
535.083	284
535.297	258
535.511	256
535.726	264
535.94	255
536.154	240
536.369	238
536.583	233
536.797	244
537.011	238
537.225	246
537.44	251
537.654	246
537.868	250
538.082	221
538.296	211
538.51	253
538.724	252
538.938	244
539.153	219
539.367	246
539.581	238
539.795	237
540.009	267
540.222	232
540.436	234
540.65	255
540.864	254
541.078	292
541.292	316
541.506	280
541.72	249
541.934	252
542.147	233
542.361	221
542.575	238
542.789	224
543.002	213
543.216	252
543.43	232
543.644	240
543.857	220
544.071	221
544.285	220
544.498	228
544.712	212
544.925	254
545.139	242
545.352	207
545.566	226
545.779	235
545.993	222
546.206	211
546.42	216
546.633	209
546.847	216
547.06	221
547.274	212
547.487	221
547.7	229
547.914	214
548.127	266
548.34	250
548.554	222
548.767	236
548.98	248
549.193	255
549.407	238
549.62	276
549.833	240
550.046	259
550.259	280
550.473	235
550.686	238
550.899	262
551.112	227
551.325	248
551.538	248
551.751	225
551.964	218
552.177	222
552.39	222
552.603	209
552.816	238
553.029	237
553.242	217
553.455	238
553.667	249
553.88	242
554.093	228
554.306	202
554.519	212
554.732	200
554.944	189
555.157	188
555.37	198
555.583	208
555.795	195
556.008	202
556.221	211
556.433	181
556.646	200
556.859	192
557.071	212
557.284	194
557.496	208
557.709	195
557.921	195
558.134	179
558.346	184
558.559	200
558.771	201
558.984	191
559.196	202
559.409	177
559.621	185
559.833	198
560.046	195
560.258	197
560.47	198
560.683	214
560.895	180
561.107	203
561.32	183
561.532	183
561.744	195
561.956	216
562.168	208
562.381	185
562.593	215
562.805	190
563.017	191
563.229	190
563.441	188
563.653	176
563.865	186
564.077	208
564.289	183
564.501	195
564.713	201
564.925	197
565.137	199
565.349	205
565.561	194
565.773	212
565.985	206
566.197	220
566.408	223
566.62	228
566.832	233
567.044	222
567.255	256
567.467	280
567.679	264
567.891	266
568.102	289
568.314	271
568.526	232
568.737	241
568.949	221
569.161	210
569.372	195
569.584	190
569.795	202
570.007	197
570.218	196
570.43	216
570.641	190
570.853	183
571.064	181
571.276	193
571.487	208
571.698	195
571.91	187
572.121	188
572.333	200
572.544	174
572.755	170
572.966	195
573.178	184
573.389	191
573.6	187
573.811	178
574.023	160
574.234	169
574.445	176
574.656	161
574.867	154
575.078	174
575.289	186
575.501	164
575.712	158
575.923	182
576.134	162
576.345	162
576.556	173
576.767	180
576.978	164
577.188	182
577.399	170
577.61	165
577.821	174
578.032	168
578.243	178
578.454	180
578.665	170
578.875	172
579.086	173
579.297	170
579.508	172
579.718	181
579.929	164
580.14	173
580.35	165
580.561	173
580.772	157
580.982	162
581.193	144
581.403	154
581.614	153
581.825	147
582.035	158
582.246	166
582.456	165
582.667	151
582.877	152
583.087	140
583.298	130
583.508	171
583.719	149
583.929	150
584.139	144
584.35	158
584.56	153
584.77	161
584.981	166
585.191	157
585.401	149
585.611	152
585.821	151
586.032	146
586.242	154
586.452	153
586.662	166
586.872	147
587.082	143
587.292	163
587.502	151
587.713	153
587.923	140
588.133	160
588.343	163
588.553	169
588.762	163
588.972	160
589.182	153
589.392	150
589.602	161
589.812	161
590.022	167
590.232	161
590.441	149
590.651	151
590.861	149
591.071	161
591.281	148
591.49	152
591.7	144
591.91	151
592.119	146
592.329	161
592.539	175
592.748	154
592.958	182
593.167	178
593.377	180
593.587	192
593.796	188
594.006	168
594.215	159
594.424	160
594.634	173
594.843	159
595.053	168
595.262	161
595.472	140
595.681	153
595.89	153
596.1	143
596.309	161
596.518	137
596.727	150
596.937	144
597.146	142
597.355	136
597.564	135
597.774	143
597.983	134
598.192	140
598.401	146
598.61	150
598.819	146
599.028	143
599.237	130
599.446	144
599.655	142
599.864	130
600.073	135
600.282	153
600.491	153
600.7	146
600.909	146
601.118	142
601.327	153
601.536	142
601.745	138
601.953	158
602.162	143
602.371	154
602.58	147
602.789	153
602.997	140
603.206	154
603.415	142
603.623	128
603.832	126
604.041	136
604.249	135
604.458	144
604.666	133
604.875	135
605.084	123
605.292	138
605.501	133
605.709	144
605.918	140
606.126	138
606.334	129
606.543	129
606.751	127
606.96	132
607.168	148
607.376	132
607.585	139
607.793	119
608.001	121
608.21	118
608.418	151
608.626	130
608.834	135
609.043	120
609.251	147
609.459	132
609.667	120
609.875	120
610.083	137
610.291	129
610.499	119
610.707	136
610.916	125
611.124	135
611.332	139
611.54	131
611.748	143
611.955	144
612.163	130
612.371	128
612.579	134
612.787	120
612.995	132
613.203	130
613.411	123
613.618	133
613.826	138
614.034	138
614.242	143
614.449	128
614.657	132
614.865	125
615.072	127
615.28	128
615.488	135
615.695	125
615.903	126
616.111	131
616.318	150
616.526	137
616.733	152
616.941	130
617.148	137
617.356	118
617.563	129
617.771	132
617.978	120
618.185	128
618.393	133
618.6	125
618.807	124
619.015	127
619.222	113
619.429	133
619.637	128
619.844	133
620.051	128
620.258	136
620.466	141
620.673	118
620.88	129
621.087	132
621.294	120
621.501	121
621.708	139
621.915	133
622.122	118
622.329	119
622.536	117
622.743	123
622.95	114
623.157	116
623.364	142
623.571	124
623.778	113
623.985	135
624.192	139
624.399	126
624.606	140
624.812	137
625.019	115
625.226	131
625.433	129
625.639	116
625.846	128
626.053	129
626.259	128
626.466	113
626.673	150
626.879	120
627.086	116
627.293	109
627.499	126
627.706	105
627.912	125
628.119	118
628.325	126
628.532	122
628.738	120
628.945	122
629.151	119
629.357	102
629.564	118
629.77	118
629.976	116
630.183	125
630.389	116
630.595	102
630.802	108
631.008	97
631.214	112
631.42	124
631.627	119
631.833	141
632.039	121
632.245	123
632.451	115
632.657	128
632.863	116
633.069	111
633.275	104
633.481	108
633.688	126
633.893	117
634.099	121
634.305	121
634.511	124
634.717	120
634.923	113
635.129	124
635.335	116
635.541	115
635.747	102
635.952	122
636.158	112
636.364	122
636.57	109
636.775	122
636.981	114
637.187	114
637.392	114
637.598	125
637.804	125
638.009	109
638.215	116
638.421	120
638.626	111
638.832	119
639.037	109
639.243	105
639.448	108
639.654	128
639.859	121
640.065	117
640.27	124
640.475	110
640.681	120
640.886	116
641.091	113
641.297	121
641.502	111
641.707	109
641.913	114
642.118	111
642.323	98
642.528	118
642.733	104
642.939	118
643.144	108
643.349	111
643.554	116
643.759	110
643.964	111
644.169	113
644.374	111
644.579	112
644.784	126
644.989	106
645.194	112
645.399	109
645.604	108
645.809	111
646.014	106
646.219	116
646.423	115
646.628	103
646.833	105
647.038	96
647.243	105
647.447	119
647.652	105
647.857	119
648.062	118
648.266	118
648.471	101
648.676	129
648.88	103
649.085	117
649.289	96
649.494	108
649.698	103
649.903	120
650.107	115
650.312	100
650.516	97
650.721	103
650.925	105
651.13	110
651.334	100
651.539	93
651.743	98
651.947	113
652.152	105
652.356	86
652.56	113
652.764	113
652.969	94
653.173	99
653.377	102
653.581	110
653.785	117
653.99	105
654.194	93
654.398	95
654.602	81
654.806	98
655.01	89
655.214	87
655.418	98
655.622	97
655.826	100
656.03	96
656.234	105
656.438	103
656.642	98
656.846	105
657.049	98
657.253	95
657.457	92
657.661	96
657.865	87
658.068	89
658.272	97
658.476	99
658.68	92
658.883	98
659.087	77
659.291	81
659.494	80
659.698	83
659.901	99
660.105	93
660.309	89
660.512	82
660.716	94
660.919	80
661.123	81
661.326	83
661.53	85
661.733	93
661.936	86
662.14	61
662.343	71
662.546	85
662.75	82
662.953	77
663.156	80
663.36	73
663.563	85
663.766	83
663.969	74
664.173	79
664.376	79
664.579	85
664.782	92
664.985	75
665.188	81
665.391	69
665.594	81
665.797	69
666	69
666.203	76
666.406	77
666.609	73
666.812	85
667.015	93
667.218	89
667.421	82
667.624	64
667.827	86
668.03	77
668.232	88
668.435	93
668.638	88
668.841	78
669.043	81
669.246	77
669.449	63
669.651	82
669.854	79
670.057	85
670.259	81
670.462	94
670.665	77
670.867	94
671.07	80
671.272	92
671.475	80
671.677	89
671.88	65
672.082	83
672.284	96
672.487	85
672.689	88
672.892	97
