Data from NickelSpatula.Lamp.E10.P2_HRD10591_11-57-59-530.txt Node
Date: Tue Jul 23 11:57:59 EDT 2019
User: cochatt
Spectrometer: HR+D1059
Trigger mode: 1
Integration Time (sec): 1.000000E-1
Scans to average: 1
Electric dark correction enabled: true
Nonlinearity correction enabled: false
Boxcar width: 0
XAxis mode: Wavelengths
Number of Pixels in Spectrum: 2048
>>>>>Begin Spectral Data<<<<<
223.165	-15
223.4	-15
223.635	-15
223.869	-16
224.104	-18
224.338	-9
224.573	-15
224.808	-27
225.042	-10
225.277	3
225.511	1
225.746	3
225.98	2
226.215	15
226.449	12
226.683	21
226.918	23
227.152	30
227.387	38
227.621	35
227.856	39
228.09	40
228.324	46
228.559	59
228.793	87
229.027	149
229.262	166
229.496	157
229.73	166
229.964	186
230.199	206
230.433	220
230.667	213
230.901	201
231.136	211
231.37	187
231.604	221
231.838	236
232.072	254
232.306	274
232.541	257
232.775	237
233.009	258
233.243	308
233.477	307
233.711	338
233.945	335
234.179	330
234.413	362
234.647	379
234.881	447
235.115	431
235.349	403
235.583	344
235.817	337
236.051	372
236.285	433
236.519	481
236.753	428
236.987	440
237.221	408
237.455	415
237.689	411
237.922	473
238.156	476
238.39	551
238.624	671
238.858	612
239.091	496
239.325	527
239.559	482
239.793	558
240.027	658
240.26	628
240.494	588
240.728	611
240.961	683
241.195	651
241.429	634
241.662	629
241.896	518
242.13	502
242.363	456
242.597	483
242.83	549
243.064	549
243.298	576
243.531	630
243.765	642
243.998	632
244.232	622
244.465	608
244.699	582
244.932	669
245.166	624
245.399	577
245.633	558
245.866	594
246.099	596
246.333	704
246.566	793
246.8	770
247.033	746
247.266	683
247.5	684
247.733	674
247.966	649
248.2	687
248.433	760
248.666	841
248.899	850
249.133	878
249.366	983
249.599	1061
249.832	980
250.066	816
250.299	870
250.532	797
250.765	826
250.998	743
251.231	725
251.465	796
251.698	835
251.931	791
252.164	848
252.397	928
252.63	1082
252.863	1180
253.096	1237
253.329	1135
253.562	1111
253.795	1226
254.028	1394
254.261	1404
254.494	1242
254.727	1148
254.96	1124
255.193	1182
255.426	1139
255.659	858
255.892	784
256.124	869
256.357	1034
256.59	1224
256.823	1159
257.056	948
257.289	924
257.521	990
257.754	1141
257.987	1310
258.22	1127
258.452	1044
258.685	1175
258.918	1310
259.151	1249
259.383	1312
259.616	1490
259.849	1559
260.081	1732
260.314	1912
260.547	1458
260.779	1487
261.012	1723
261.244	1633
261.477	1638
261.71	1514
261.942	1300
262.175	1293
262.407	1266
262.64	1278
262.872	1523
263.105	1684
263.337	1756
263.57	1536
263.802	1044
264.035	944
264.267	872
264.499	797
264.732	714
264.964	678
265.197	731
265.429	782
265.661	842
265.894	862
266.126	948
266.358	1051
266.591	1280
266.823	1553
267.055	1408
267.287	1263
267.52	1252
267.752	1300
267.984	1462
268.216	1392
268.448	1139
268.681	1115
268.913	1215
269.145	1260
269.377	1310
269.609	1314
269.841	1214
270.073	1251
270.306	1365
270.538	1398
270.77	1431
271.002	1412
271.234	1486
271.466	1494
271.698	1451
271.93	1434
272.162	1473
272.394	1455
272.626	1438
272.858	1472
273.09	1525
273.322	1361
273.553	1292
273.785	1516
274.017	2046
274.249	2441
274.481	2568
274.713	2734
274.945	3222
275.176	3242
275.408	2859
275.64	2606
275.872	2626
276.104	2262
276.335	1957
276.567	1926
276.799	1966
277.031	2108
277.262	1660
277.494	1262
277.726	1214
277.957	1360
278.189	1494
278.421	1460
278.652	1398
278.884	1364
279.115	1260
279.347	1196
279.579	1213
279.81	1232
280.042	1222
280.273	1267
280.505	1140
280.736	1043
280.968	1003
281.199	1086
281.431	1230
281.662	1235
281.894	1206
282.125	1276
282.356	1396
282.588	1448
282.819	1270
283.051	1389
283.282	1702
283.513	1944
283.745	2196
283.976	2210
284.207	1968
284.439	2083
284.67	2020
284.901	1782
285.132	1954
285.364	2028
285.595	1872
285.826	1997
286.057	2056
286.288	1938
286.52	2009
286.751	2130
286.982	2145
287.213	1856
287.444	1786
287.675	1911
287.906	1842
288.138	1566
288.369	1342
288.6	1301
288.831	1396
289.062	1552
289.293	1745
289.524	1624
289.755	1629
289.986	1618
290.217	1460
290.448	1125
290.679	972
290.91	931
291.141	948
291.371	981
291.602	965
291.833	991
292.064	1051
292.295	1202
292.526	1364
292.757	1458
292.987	1582
293.218	1567
293.449	1613
293.68	1727
293.91	1640
294.141	1653
294.372	1539
294.603	1435
294.833	1602
295.064	1843
295.295	1724
295.525	1322
295.756	1166
295.987	978
296.217	1029
296.448	1054
296.679	1123
296.909	1239
297.14	1300
297.37	1458
297.601	1378
297.831	1216
298.062	1264
298.292	1417
298.523	1576
298.753	1804
298.984	1595
299.214	1277
299.445	1124
299.675	1037
299.905	1022
300.136	1095
300.366	1188
300.597	1164
300.827	1047
301.057	1010
301.288	1018
301.518	1104
301.748	1245
301.979	1322
302.209	1450
302.439	1456
302.669	1245
302.9	1247
303.13	1156
303.36	1106
303.59	1043
303.82	1130
304.051	1246
304.281	1348
304.511	1306
304.741	1167
304.971	1233
305.201	1300
305.431	1228
305.661	1063
305.891	1059
306.121	1070
306.352	956
306.582	895
306.812	839
307.042	882
307.272	814
307.502	814
307.731	891
307.961	917
308.191	840
308.421	808
308.651	800
308.881	775
309.111	781
309.341	825
309.571	890
309.8	921
310.03	927
310.26	1018
310.49	967
310.72	862
310.949	874
311.179	890
311.409	935
311.639	1131
311.868	1384
312.098	1837
312.328	1960
312.557	1840
312.787	1892
313.017	1700
313.246	1762
313.476	1974
313.706	1626
313.935	1317
314.165	1066
314.394	966
314.624	995
314.853	1004
315.083	1044
315.312	1015
315.542	1013
315.771	943
316.001	858
316.23	832
316.46	829
316.689	839
316.919	895
317.148	905
317.377	896
317.607	864
317.836	959
318.065	1117
318.295	1234
318.524	1166
318.753	972
318.983	922
319.212	894
319.441	997
319.67	1156
319.9	1206
320.129	1151
320.358	1022
320.587	942
320.816	1018
321.046	1154
321.275	1323
321.504	1317
321.733	1278
321.962	1253
322.191	1178
322.42	1114
322.649	1142
322.878	1211
323.108	1202
323.337	1142
323.566	1125
323.795	1070
324.024	1048
324.253	1009
324.482	982
324.71	1091
324.939	1208
325.168	1131
325.397	944
325.626	910
325.855	935
326.084	927
326.313	878
326.542	847
326.77	880
326.999	906
327.228	958
327.457	1015
327.686	1011
327.914	876
328.143	851
328.372	846
328.6	835
328.829	906
329.058	922
329.287	875
329.515	926
329.744	883
329.972	842
330.201	793
330.43	854
330.658	964
330.887	1072
331.115	1056
331.344	988
331.572	978
331.801	902
332.03	860
332.258	901
332.486	969
332.715	1010
332.943	929
333.172	902
333.4	940
333.629	1045
333.857	1086
334.085	1095
334.314	1119
334.542	1041
334.771	979
334.999	956
335.227	946
335.455	938
335.684	1014
335.912	1167
336.14	1341
336.369	1272
336.597	1240
336.825	1381
337.053	1533
337.281	1248
337.51	1031
337.738	990
337.966	1071
338.194	1199
338.422	1124
338.65	973
338.878	871
339.106	961
339.334	1066
339.562	1085
339.79	1029
340.018	945
340.246	1033
340.474	1215
340.702	1288
340.93	1325
341.158	1292
341.386	1132
341.614	1132
341.842	1115
342.07	1159
342.298	1328
342.526	1406
342.754	1230
342.981	1110
343.209	1075
343.437	1148
343.665	1186
343.893	1230
344.12	1400
344.348	1625
344.576	1442
344.804	1196
345.031	1051
345.259	1004
345.487	1016
345.714	1039
345.942	1095
346.17	1216
346.397	1132
346.625	1008
346.853	984
347.08	927
347.308	1008
347.535	1111
347.763	1158
347.99	1014
348.218	930
348.445	972
348.673	982
348.9	992
349.128	1066
349.355	1081
349.583	1100
349.81	989
350.037	942
350.265	843
350.492	790
350.72	782
350.947	835
351.174	878
351.402	946
351.629	954
351.856	925
352.083	880
352.311	996
352.538	1052
352.765	1172
352.992	1039
353.22	978
353.447	992
353.674	934
353.901	966
354.128	957
354.355	997
354.583	1008
354.81	971
355.037	1033
355.264	984
355.491	1087
355.718	1180
355.945	1150
356.172	1120
356.399	1103
356.626	1349
356.853	1594
357.08	1707
357.307	1743
357.534	1382
357.761	1409
357.988	1742
358.215	2051
358.441	1968
358.668	1631
358.895	1499
359.122	1223
359.349	1221
359.576	1337
359.802	1072
360.029	938
360.256	1048
360.483	1288
360.709	1654
360.936	1647
361.163	1446
361.39	1110
361.616	1075
361.843	1226
362.07	1491
362.296	1367
362.523	1097
362.749	942
362.976	980
363.203	1194
363.429	1349
363.656	1085
363.882	994
364.109	1008
364.335	1014
364.562	994
364.788	1155
365.015	1318
365.241	1166
365.468	968
365.694	828
365.92	850
366.147	810
366.373	788
366.599	810
366.826	818
367.052	827
367.278	832
367.505	830
367.731	899
367.957	1020
368.184	1057
368.41	1009
368.636	1020
368.862	1082
369.089	1020
369.315	919
369.541	890
369.767	867
369.993	852
370.219	876
370.445	916
370.672	1016
370.898	1109
371.124	1117
371.35	930
371.576	906
371.802	966
372.028	1194
372.254	1347
372.48	1137
372.706	1069
372.932	1079
373.158	1137
373.384	1357
373.61	1840
373.835	1895
374.061	1359
374.287	1203
374.513	1402
374.739	1658
374.965	1715
375.191	1684
375.416	1163
375.642	1019
375.868	1219
376.094	1373
376.319	1195
376.545	1306
376.771	1352
376.997	1184
377.222	860
377.448	751
377.674	730
377.899	776
378.125	770
378.35	776
378.576	789
378.802	855
379.027	956
379.253	894
379.478	944
379.704	1064
379.929	1083
380.155	1076
380.38	944
380.606	1035
380.831	1100
381.057	1030
381.282	1000
381.507	1217
381.733	1435
381.958	1562
382.184	1644
382.409	1710
382.634	1679
382.86	1773
383.085	1458
383.31	1138
383.535	1200
383.761	1235
383.986	1186
384.211	1430
384.436	1398
384.662	1055
384.887	1028
385.112	1053
385.337	1060
385.562	1010
385.787	1119
386.013	1226
386.238	1260
386.463	1018
386.688	978
386.913	944
387.138	925
387.363	982
387.588	991
387.813	987
388.038	1126
388.263	991
388.488	973
388.713	1150
388.938	1239
389.163	1049
389.387	930
389.612	942
389.837	958
390.062	979
390.287	996
390.512	1038
390.736	951
390.961	899
391.186	867
391.411	829
391.636	840
391.86	946
392.085	1024
392.31	1015
392.534	960
392.759	945
392.984	990
393.208	957
393.433	889
393.658	828
393.882	797
394.107	795
394.331	782
394.556	826
394.78	794
395.005	859
395.229	871
395.454	899
395.678	876
395.903	925
396.127	891
396.352	896
396.576	978
396.801	1011
397.025	1143
397.249	1122
397.474	955
397.698	899
397.922	950
398.147	922
398.371	950
398.595	961
398.82	957
399.044	942
399.268	1018
399.492	1044
399.717	1051
399.941	1102
400.165	1065
400.389	1051
400.613	1021
400.837	1020
401.062	915
401.286	886
401.51	914
401.734	912
401.958	919
402.182	903
402.406	904
402.63	935
402.854	984
403.078	1076
403.302	1312
403.526	1391
403.75	1237
403.974	1053
404.198	1093
404.422	1232
404.645	1466
404.869	1582
405.093	1187
405.317	1026
405.541	966
405.765	1039
405.988	1025
406.212	1074
406.436	1317
406.66	1456
406.883	1152
407.107	1194
407.331	1396
407.555	1297
407.778	1104
408.002	1061
408.226	1048
408.449	1055
408.673	1029
408.896	920
409.12	934
409.344	916
409.567	887
409.791	904
410.014	862
410.238	885
410.461	915
410.685	938
410.908	910
411.132	925
411.355	944
411.578	973
411.802	957
412.025	976
412.249	998
412.472	942
412.695	940
412.919	939
413.142	944
413.365	1071
413.589	1042
413.812	960
414.035	930
414.258	949
414.482	1050
414.705	1056
414.928	934
415.151	871
415.374	880
415.597	944
415.821	925
416.044	888
416.267	868
416.49	908
416.713	886
416.936	858
417.159	876
417.382	892
417.605	880
417.828	927
418.051	922
418.274	951
418.497	950
418.72	935
418.943	957
419.166	1008
419.389	1017
419.611	1014
419.834	1032
420.057	1128
420.28	1113
420.503	1036
420.726	923
420.948	904
421.171	895
421.394	843
421.617	826
421.839	882
422.062	957
422.285	954
422.507	918
422.73	981
422.953	971
423.175	947
423.398	943
423.621	1005
423.843	1069
424.066	1006
424.288	928
424.511	919
424.733	940
424.956	952
425.178	1095
425.401	1244
425.623	1391
425.846	1180
426.068	1045
426.291	1135
426.513	1047
426.735	955
426.958	996
427.18	1198
427.402	1484
427.625	1485
427.847	1209
428.069	925
428.292	927
428.514	928
428.736	892
428.958	965
429.181	1164
429.403	1013
429.625	901
429.847	895
430.069	913
430.292	941
430.514	904
430.736	977
430.958	1160
431.18	1118
431.402	834
431.624	823
431.846	818
432.068	813
432.29	839
432.512	922
432.734	1224
432.956	1124
433.178	910
433.4	860
433.622	848
433.844	908
434.066	918
434.287	927
434.509	885
434.731	892
434.953	880
435.175	912
435.397	1014
435.618	922
435.84	831
436.062	855
436.284	836
436.505	788
436.727	814
436.949	811
437.17	849
437.392	871
437.614	834
437.835	838
438.057	858
438.278	1004
438.5	1386
438.721	1359
438.943	942
439.165	833
439.386	805
439.608	792
439.829	797
440.05	785
440.272	857
440.493	1040
440.715	1267
440.936	984
441.158	864
441.379	890
441.6	982
441.822	1063
442.043	889
442.264	867
442.486	883
442.707	880
442.928	887
443.149	887
443.371	901
443.592	935
443.813	913
444.034	904
444.255	904
444.476	945
444.698	954
444.919	963
445.14	1045
445.361	1035
445.582	972
445.803	953
446.024	929
446.245	959
446.466	926
446.687	885
446.908	874
447.129	823
447.35	820
447.571	813
447.792	797
448.013	817
448.234	769
448.455	782
448.675	799
448.896	803
449.117	782
449.338	834
449.559	838
449.779	870
450	879
450.221	867
450.442	826
450.662	832
450.883	834
451.104	825
451.324	811
451.545	815
451.766	828
451.986	802
452.207	764
452.428	786
452.648	773
452.869	816
453.089	876
453.31	866
453.53	756
453.751	752
453.971	750
454.192	769
454.412	798
454.633	771
454.853	737
455.073	731
455.294	760
455.514	740
455.734	767
455.955	821
456.175	842
456.395	758
456.616	723
456.836	718
457.056	711
457.276	692
457.497	714
457.717	715
457.937	712
458.157	696
458.377	708
458.598	725
458.818	795
459.038	834
459.258	831
459.478	851
459.698	908
459.918	922
460.138	883
460.358	914
460.578	871
460.798	924
461.018	862
461.238	847
461.458	889
461.678	901
461.898	926
462.118	937
462.338	951
462.558	926
462.777	1019
462.997	1011
463.217	998
463.437	1030
463.657	1004
463.876	993
464.096	943
464.316	973
464.536	1026
464.755	1060
464.975	1046
465.195	943
465.414	1026
465.634	964
465.854	952
466.073	879
466.293	862
466.512	926
466.732	999
466.951	1054
467.171	926
467.391	874
467.61	886
467.829	932
468.049	964
468.268	912
468.488	850
468.707	895
468.927	1078
469.146	1154
469.365	1044
469.585	960
469.804	1026
470.023	1113
470.243	984
470.462	904
470.681	896
470.901	940
471.12	973
471.339	967
471.558	943
471.777	933
471.997	1029
472.216	1100
472.435	1082
472.654	966
472.873	950
473.092	1000
473.311	1036
473.53	929
473.749	944
473.968	988
474.187	961
474.406	940
474.625	950
474.844	943
475.063	1042
475.282	1008
475.501	1075
475.72	1139
475.939	1095
476.158	1102
476.377	1274
476.596	1491
476.814	1510
477.033	1288
477.252	1049
477.471	983
477.69	1012
477.908	1107
478.127	1168
478.346	1061
478.564	1168
478.783	1110
479.002	1106
479.22	1294
479.439	1417
479.658	1245
479.876	1141
480.095	1227
480.313	1237
480.532	1158
480.751	1101
480.969	1112
481.188	1285
481.406	1336
481.624	1234
481.843	1115
482.061	1072
482.28	1230
482.498	1476
482.717	1370
482.935	1216
483.153	1142
483.372	1082
483.59	1056
483.808	1068
484.027	1056
484.245	1011
484.463	989
484.681	1014
484.9	1123
485.118	1227
485.336	1115
485.554	1025
485.772	1059
485.99	1173
486.209	1235
486.427	1254
486.645	1215
486.863	1271
487.081	1272
487.299	1363
487.517	1327
487.735	1228
487.953	1251
488.171	1273
488.389	1184
488.607	1120
488.825	1180
489.043	1238
489.261	1492
489.479	1556
489.696	1315
489.914	1201
490.132	1125
490.35	1152
490.568	1153
490.786	1150
491.003	1131
491.221	1179
491.439	1134
491.657	1138
491.874	1226
492.092	1516
492.31	1774
492.527	1743
492.745	1545
492.963	1316
493.18	1297
493.398	1296
493.615	1284
493.833	1295
494.05	1261
494.268	1256
494.485	1233
494.703	1199
494.92	1248
495.138	1195
495.355	1223
495.573	1234
495.79	1382
496.008	1780
496.225	1556
496.442	1402
496.66	1350
496.877	1468
497.094	1407
497.312	1311
497.529	1315
497.746	1360
497.963	1408
498.181	1496
498.398	1587
498.615	1656
498.832	1691
499.049	1707
499.267	1561
499.484	1569
499.701	1667
499.918	1794
500.135	1890
500.352	1928
500.569	1994
500.786	2038
501.003	2066
501.22	1824
501.437	1714
501.654	1674
501.871	1655
502.088	1644
502.305	1522
502.522	1542
502.739	1510
502.956	1392
503.172	1370
503.389	1333
503.606	1287
503.823	1326
504.04	1336
504.256	1347
504.473	1338
504.69	1356
504.907	1384
505.123	1388
505.34	1460
505.557	1459
505.773	1358
505.99	1312
506.207	1368
506.423	1261
506.64	1224
506.856	1236
507.073	1389
507.289	1381
507.506	1340
507.722	1440
507.939	1457
508.155	1479
508.372	1337
508.588	1298
508.805	1238
509.021	1228
509.238	1171
509.454	1207
509.67	1185
509.887	1191
510.103	1301
510.319	1305
510.536	1194
510.752	1104
510.968	1040
511.184	1026
511.401	1044
511.617	1038
511.833	1059
512.049	1093
512.265	1134
512.481	1140
512.698	1266
512.914	1408
513.13	1259
513.346	1124
513.562	1166
513.778	1194
513.994	1172
514.21	1248
514.426	1198
514.642	1158
514.858	1153
515.074	1224
515.29	1285
515.506	1414
515.721	1374
515.937	1226
516.153	1157
516.369	1177
516.585	1221
516.801	1390
517.016	1604
517.232	1590
517.448	1540
517.664	1385
517.879	1344
518.095	1320
518.311	1267
518.527	1300
518.742	1403
518.958	1498
519.173	1413
519.389	1368
519.605	1396
519.82	1510
520.036	1734
520.251	1718
520.467	1623
520.682	2406
520.898	2936
521.113	2756
521.329	1762
521.544	1570
521.76	1522
521.975	1340
522.19	1310
522.406	1348
522.621	1467
522.836	1538
523.052	1571
523.267	1286
523.482	1312
523.698	1391
523.913	1334
524.128	1221
524.343	1225
524.559	1198
524.774	1140
524.989	1156
525.204	1188
525.419	1327
525.634	1241
525.849	1324
526.064	1274
526.28	1252
526.495	1503
526.71	1543
526.925	1378
527.14	1447
527.355	1379
527.57	1168
527.785	1196
527.999	1133
528.214	1105
528.429	1102
528.644	1088
528.859	1051
529.074	1008
529.289	1017
529.503	1042
529.718	1022
529.933	1201
530.148	1233
530.363	1067
530.577	1039
530.792	985
531.007	1030
531.221	976
531.436	970
531.651	1039
531.865	1031
532.08	1060
532.295	1014
532.509	1032
532.724	1214
532.938	1315
533.153	1503
533.367	1228
533.582	1189
533.796	1102
534.011	1057
534.225	1063
534.44	1069
534.654	1106
534.868	1265
535.083	1149
535.297	1009
535.511	1036
535.726	1156
535.94	1097
536.154	1030
536.369	1022
536.583	994
536.797	1045
537.011	1062
537.225	1125
537.44	1212
537.654	1040
537.868	1009
538.082	1029
538.296	1029
538.51	1106
538.724	1097
538.938	1052
539.153	979
539.367	975
539.581	978
539.795	1051
540.009	1145
540.222	1082
540.436	1072
540.65	1156
540.864	1201
541.078	1237
541.292	1362
541.506	1089
541.72	1076
541.934	1027
542.147	1036
542.361	1065
542.575	1099
542.789	1035
543.002	974
543.216	1085
543.43	969
543.644	932
543.857	942
544.071	961
544.285	935
544.498	909
544.712	942
544.925	1019
545.139	966
545.352	909
545.566	946
545.779	1063
545.993	971
546.206	893
546.42	888
546.633	891
546.847	849
547.06	866
547.274	885
547.487	885
547.7	952
547.914	1029
548.127	1135
548.34	1080
548.554	983
548.767	986
548.98	1076
549.193	982
549.407	1006
549.62	1166
549.833	1127
550.046	1175
550.259	1174
550.473	1040
550.686	967
550.899	1008
551.112	973
551.325	1032
551.538	1121
551.751	967
551.964	892
552.177	894
552.39	860
552.603	907
552.816	951
553.029	869
553.242	870
553.455	984
553.667	1018
553.88	970
554.093	913
554.306	827
554.519	829
554.732	797
554.944	796
555.157	806
555.37	791
555.583	782
555.795	794
556.008	812
556.221	819
556.433	788
556.646	780
556.859	794
557.071	830
557.284	836
557.496	800
557.709	812
557.921	814
558.134	750
558.346	742
558.559	774
558.771	792
558.984	841
559.196	773
559.409	739
559.621	717
559.833	696
560.046	734
560.258	693
560.47	741
560.683	692
560.895	677
561.107	694
561.32	684
561.532	704
561.744	801
561.956	770
562.168	730
562.381	722
562.593	741
562.805	738
563.017	745
563.229	686
563.441	677
563.653	700
563.865	699
564.077	704
564.289	678
564.501	712
564.713	764
564.925	746
565.137	687
565.349	712
565.561	680
565.773	735
565.985	733
566.197	778
566.408	838
566.62	828
566.832	843
567.044	848
567.255	916
567.467	995
567.679	916
567.891	878
568.102	906
568.314	914
568.526	864
568.737	824
568.949	865
569.161	779
569.372	721
569.584	679
569.795	704
570.007	723
570.218	760
570.43	742
570.641	698
570.853	686
571.064	666
571.276	690
571.487	711
571.698	680
571.91	667
572.121	680
572.333	613
572.544	647
572.755	622
572.966	618
573.178	611
573.389	636
573.6	649
573.811	632
574.023	598
574.234	583
574.445	564
574.656	574
574.867	571
575.078	582
575.289	602
575.501	611
575.712	608
575.923	554
576.134	544
576.345	562
576.556	570
576.767	535
576.978	516
577.188	528
577.399	543
577.61	528
577.821	530
578.032	565
578.243	591
578.454	556
578.665	574
578.875	546
579.086	559
579.297	574
579.508	573
579.718	578
579.929	550
580.14	554
580.35	518
580.561	498
580.772	483
580.982	480
581.193	479
581.403	479
581.614	475
581.825	494
582.035	479
582.246	482
582.456	473
582.667	504
582.877	476
583.087	467
583.298	443
583.508	440
583.719	453
583.929	459
584.139	462
584.35	463
584.56	463
584.77	494
584.981	481
585.191	476
585.401	486
585.611	483
585.821	514
586.032	488
586.242	459
586.452	458
586.662	480
586.872	495
587.082	500
587.292	485
587.502	468
587.713	470
587.923	447
588.133	507
588.343	476
588.553	466
588.762	456
588.972	453
589.182	464
589.392	452
589.602	463
589.812	487
590.022	534
590.232	499
590.441	460
590.651	450
590.861	491
591.071	464
591.281	455
591.49	456
591.7	441
591.91	462
592.119	446
592.329	463
592.539	475
592.748	466
592.958	469
593.167	486
593.377	478
593.587	500
593.796	490
594.006	475
594.215	464
594.424	467
594.634	507
594.843	471
595.053	467
595.262	438
595.472	426
595.681	435
595.89	421
596.1	430
596.309	468
596.518	438
596.727	412
596.937	412
597.146	446
597.355	457
597.564	456
597.774	414
597.983	428
598.192	413
598.401	395
598.61	390
598.819	388
599.028	382
599.237	390
599.446	373
599.655	371
599.864	387
600.073	383
600.282	371
600.491	380
600.7	394
600.909	397
601.118	373
601.327	365
601.536	380
601.745	403
601.953	397
602.162	398
602.371	391
602.58	405
602.789	395
602.997	378
603.206	379
603.415	380
603.623	366
603.832	359
604.041	366
604.249	374
604.458	404
604.666	370
604.875	359
605.084	372
605.292	344
605.501	360
605.709	375
605.918	364
606.126	365
606.334	343
606.543	342
606.751	351
606.96	347
607.168	333
607.376	341
607.585	354
607.793	349
608.001	357
608.21	353
608.418	357
608.626	341
608.834	347
609.043	356
609.251	355
609.459	346
609.667	345
609.875	343
610.083	362
610.291	360
610.499	353
610.707	323
610.916	319
611.124	342
611.332	329
611.54	327
611.748	340
611.955	326
612.163	322
612.371	347
612.579	326
612.787	326
612.995	347
613.203	332
613.411	331
613.618	332
613.826	355
614.034	353
614.242	322
614.449	326
614.657	331
614.865	321
615.072	310
615.28	320
615.488	334
615.695	341
615.903	324
616.111	329
616.318	327
616.526	324
616.733	341
616.941	313
617.148	318
617.356	325
617.563	327
617.771	335
617.978	320
618.185	292
618.393	296
618.6	306
618.807	322
619.015	338
619.222	327
619.429	326
619.637	318
619.844	301
620.051	304
620.258	300
620.466	304
620.673	274
620.88	285
621.087	292
621.294	299
621.501	284
621.708	295
621.915	288
622.122	294
622.329	301
622.536	292
622.743	280
622.95	306
623.157	281
623.364	302
623.571	300
623.778	311
623.985	306
624.192	296
624.399	310
624.606	309
624.812	293
625.019	299
625.226	313
625.433	279
625.639	285
625.846	278
626.053	298
626.259	278
626.466	273
626.673	310
626.879	287
627.086	263
627.293	282
627.499	279
627.706	276
627.912	251
628.119	270
628.325	258
628.532	272
628.738	276
628.945	256
629.151	275
629.357	261
629.564	259
629.77	284
629.976	248
630.183	243
630.389	269
630.595	263
630.802	271
631.008	263
631.214	243
631.42	256
631.627	256
631.833	259
632.039	262
632.245	237
632.451	253
632.657	258
632.863	248
633.069	239
633.275	231
633.481	233
633.688	249
633.893	241
634.099	252
634.305	234
634.511	243
634.717	251
634.923	254
635.129	226
635.335	235
635.541	225
635.747	239
635.952	229
636.158	227
636.364	259
636.57	252
636.775	252
636.981	223
637.187	246
637.392	236
637.598	230
637.804	239
638.009	228
638.215	227
638.421	223
638.626	223
638.832	227
639.037	233
639.243	218
639.448	213
639.654	234
639.859	227
640.065	237
640.27	236
640.475	244
640.681	231
640.886	231
641.091	215
641.297	214
641.502	230
641.707	213
641.913	212
642.118	213
642.323	218
642.528	234
642.733	222
642.939	208
643.144	216
643.349	221
643.554	230
643.759	214
643.964	235
644.169	195
644.374	216
644.579	210
644.784	228
644.989	208
645.194	206
645.399	214
645.604	212
645.809	218
646.014	204
646.219	220
646.423	195
646.628	204
646.833	214
647.038	202
647.243	213
647.447	216
647.652	203
647.857	219
648.062	193
648.266	207
648.471	204
648.676	198
648.88	209
649.085	210
649.289	203
649.494	195
649.698	226
649.903	202
650.107	189
650.312	205
650.516	189
650.721	197
650.925	184
651.13	196
651.334	190
651.539	192
651.743	188
651.947	193
652.152	171
652.356	176
652.56	168
652.764	189
652.969	154
653.173	172
653.377	158
653.581	183
653.785	189
653.99	172
654.194	160
654.398	183
654.602	174
654.806	158
655.01	173
655.214	154
655.418	170
655.622	155
655.826	151
656.03	156
656.234	172
656.438	158
656.642	144
656.846	146
657.049	147
657.253	136
657.457	146
657.661	148
657.865	132
658.068	139
658.272	138
658.476	118
658.68	130
658.883	130
659.087	116
659.291	97
659.494	107
659.698	110
659.901	107
660.105	109
660.309	98
660.512	93
660.716	88
660.919	102
661.123	91
661.326	95
661.53	90
661.733	94
661.936	79
662.14	90
662.343	74
662.546	90
662.75	92
662.953	73
663.156	92
663.36	83
663.563	86
663.766	92
663.969	89
664.173	85
664.376	74
664.579	81
664.782	85
664.985	91
665.188	78
665.391	78
665.594	88
665.797	87
666	79
666.203	81
666.406	75
666.609	50
666.812	94
667.015	91
667.218	87
667.421	87
667.624	77
667.827	78
668.03	78
668.232	74
668.435	79
668.638	70
668.841	81
669.043	88
669.246	76
669.449	92
669.651	72
669.854	80
670.057	82
670.259	76
670.462	83
670.665	81
670.867	75
671.07	83
671.272	80
671.475	87
671.677	76
671.88	89
672.082	73
672.284	76
672.487	77
672.689	85
672.892	82
