Data from NickelSpatula.Lamp.E5.5.P2_HRD10591_11-52-52-590.txt Node
Date: Tue Jul 23 11:52:52 EDT 2019
User: cochatt
Spectrometer: HR+D1059
Trigger mode: 1
Integration Time (sec): 1.000000E-1
Scans to average: 1
Electric dark correction enabled: true
Nonlinearity correction enabled: false
Boxcar width: 0
XAxis mode: Wavelengths
Number of Pixels in Spectrum: 2048
>>>>>Begin Spectral Data<<<<<
223.165	-11.81
223.4	-11.81
223.635	-11.81
223.869	-24.81
224.104	-16.81
224.338	-14.81
224.573	-12.81
224.808	2.19
225.042	-9.81
225.277	-19.81
225.511	-13.81
225.746	1.19
225.98	3.19
226.215	17.19
226.449	27.19
226.683	16.19
226.918	25.19
227.152	32.19
227.387	31.19
227.621	34.19
227.856	46.19
228.09	41.19
228.324	50.19
228.559	49.19
228.793	69.19
229.027	69.19
229.262	85.19
229.496	70.19
229.73	76.19
229.964	95.19
230.199	92.19
230.433	100.19
230.667	103.19
230.901	109.19
231.136	94.19
231.37	102.19
231.604	94.19
231.838	103.19
232.072	103.19
232.306	94.19
232.541	102.19
232.775	103.19
233.009	116.19
233.243	122.19
233.477	116.19
233.711	113.19
233.945	127.19
234.179	143.19
234.413	121.19
234.647	116.19
234.881	152.19
235.115	135.19
235.349	127.19
235.583	122.19
235.817	112.19
236.051	115.19
236.285	139.19
236.519	138.19
236.753	138.19
236.987	158.19
237.221	121.19
237.455	136.19
237.689	143.19
237.922	137.19
238.156	133.19
238.39	141.19
238.624	156.19
238.858	143.19
239.091	144.19
239.325	134.19
239.559	138.19
239.793	142.19
240.027	161.19
240.26	165.19
240.494	166.19
240.728	150.19
240.961	166.19
241.195	164.19
241.429	153.19
241.662	163.19
241.896	154.19
242.13	134.19
242.363	134.19
242.597	134.19
242.83	149.19
243.064	138.19
243.298	148.19
243.531	175.19
243.765	166.19
243.998	175.19
244.232	153.19
244.465	160.19
244.699	150.19
244.932	173.19
245.166	175.19
245.399	163.19
245.633	160.19
245.866	154.19
246.099	150.19
246.333	181.19
246.566	210.19
246.8	190.19
247.033	181.19
247.266	189.19
247.5	182.19
247.733	161.19
247.966	154.19
248.2	196.19
248.433	195.19
248.666	203.19
248.899	211.19
249.133	210.19
249.366	238.19
249.599	237.19
249.832	208.19
250.066	203.19
250.299	213.19
250.532	198.19
250.765	198.19
250.998	180.19
251.231	174.19
251.465	199.19
251.698	200.19
251.931	182.19
252.164	198.19
252.397	233.19
252.63	243.19
252.863	255.19
253.096	260.19
253.329	267.19
253.562	230.19
253.795	265.19
254.028	303.19
254.261	296.19
254.494	279.19
254.727	279.19
254.96	249.19
255.193	267.19
255.426	265.19
255.659	203.19
255.892	203.19
256.124	226.19
256.357	238.19
256.59	277.19
256.823	266.19
257.056	232.19
257.289	214.19
257.521	223.19
257.754	279.19
257.987	310.19
258.22	270.19
258.452	227.19
258.685	267.19
258.918	297.19
259.151	276.19
259.383	291.19
259.616	349.19
259.849	335.19
260.081	352.19
260.314	388.19
260.547	325.19
260.779	335.19
261.012	381.19
261.244	341.19
261.477	334.19
261.71	316.19
261.942	275.19
262.175	299.19
262.407	283.19
262.64	294.19
262.872	305.19
263.105	344.19
263.337	356.19
263.57	329.19
263.802	253.19
264.035	240.19
264.267	229.19
264.499	193.19
264.732	179.19
264.964	184.19
265.197	192.19
265.429	197.19
265.661	201.19
265.894	208.19
266.126	217.19
266.358	236.19
266.591	286.19
266.823	342.19
267.055	307.19
267.287	287.19
267.52	285.19
267.752	306.19
267.984	309.19
268.216	323.19
268.448	275.19
268.681	273.19
268.913	277.19
269.145	294.19
269.377	289.19
269.609	299.19
269.841	284.19
270.073	295.19
270.306	304.19
270.538	328.19
270.77	311.19
271.002	326.19
271.234	336.19
271.466	338.19
271.698	312.19
271.93	297.19
272.162	317.19
272.394	293.19
272.626	304.19
272.858	292.19
273.09	325.19
273.322	283.19
273.553	264.19
273.785	294.19
274.017	383.19
274.249	463.19
274.481	500.19
274.713	522.19
274.945	587.19
275.176	618.19
275.408	534.19
275.64	499.19
275.872	523.19
276.104	465.19
276.335	399.19
276.567	378.19
276.799	410.19
277.031	427.19
277.262	325.19
277.494	270.19
277.726	253.19
277.957	281.19
278.189	323.19
278.421	306.19
278.652	312.19
278.884	295.19
279.115	289.19
279.347	280.19
279.579	269.19
279.81	299.19
280.042	267.19
280.273	298.19
280.505	263.19
280.736	244.19
280.968	251.19
281.199	242.19
281.431	301.19
281.662	290.19
281.894	278.19
282.125	263.19
282.356	295.19
282.588	296.19
282.819	279.19
283.051	295.19
283.282	354.19
283.513	393.19
283.745	435.19
283.976	438.19
284.207	418.19
284.439	434.19
284.67	425.19
284.901	375.19
285.132	390.19
285.364	409.19
285.595	389.19
285.826	401.19
286.057	426.19
286.288	390.19
286.52	414.19
286.751	429.19
286.982	430.19
287.213	377.19
287.444	355.19
287.675	377.19
287.906	385.19
288.138	346.19
288.369	312.19
288.6	294.19
288.831	302.19
289.062	345.19
289.293	378.19
289.524	363.19
289.755	335.19
289.986	350.19
290.217	332.19
290.448	271.19
290.679	243.19
290.91	203.19
291.141	218.19
291.371	230.19
291.602	217.19
291.833	218.19
292.064	250.19
292.295	268.19
292.526	317.19
292.757	318.19
292.987	340.19
293.218	348.19
293.449	372.19
293.68	396.19
293.91	352.19
294.141	352.19
294.372	352.19
294.603	337.19
294.833	346.19
295.064	411.19
295.295	389.19
295.525	308.19
295.756	273.19
295.987	219.19
296.217	247.19
296.448	226.19
296.679	253.19
296.909	275.19
297.14	289.19
297.37	315.19
297.601	307.19
297.831	250.19
298.062	278.19
298.292	307.19
298.523	338.19
298.753	370.19
298.984	343.19
299.214	307.19
299.445	249.19
299.675	247.19
299.905	233.19
300.136	263.19
300.366	263.19
300.597	265.19
300.827	253.19
301.057	224.19
301.288	249.19
301.518	247.19
301.748	290.19
301.979	288.19
302.209	301.19
302.439	310.19
302.669	281.19
302.9	277.19
303.13	249.19
303.36	253.19
303.59	255.19
303.82	264.19
304.051	288.19
304.281	295.19
304.511	293.19
304.741	262.19
304.971	261.19
305.201	294.19
305.431	285.19
305.661	240.19
305.891	265.19
306.121	254.19
306.352	238.19
306.582	212.19
306.812	210.19
307.042	203.19
307.272	202.19
307.502	187.19
307.731	183.19
307.961	215.19
308.191	203.19
308.421	194.19
308.651	204.19
308.881	192.19
309.111	209.19
309.341	204.19
309.571	215.19
309.8	204.19
310.03	207.19
310.26	234.19
310.49	207.19
310.72	208.19
310.949	208.19
311.179	211.19
311.409	227.19
311.639	245.19
311.868	321.19
312.098	375.19
312.328	381.19
312.557	379.19
312.787	389.19
313.017	360.19
313.246	353.19
313.476	406.19
313.706	319.19
313.935	271.19
314.165	257.19
314.394	234.19
314.624	221.19
314.853	226.19
315.083	235.19
315.312	222.19
315.542	228.19
315.771	226.19
316.001	203.19
316.23	187.19
316.46	200.19
316.689	193.19
316.919	215.19
317.148	239.19
317.377	209.19
317.607	205.19
317.836	224.19
318.065	253.19
318.295	271.19
318.524	271.19
318.753	226.19
318.983	217.19
319.212	219.19
319.441	218.19
319.67	232.19
319.9	259.19
320.129	265.19
320.358	234.19
320.587	205.19
320.816	213.19
321.046	241.19
321.275	267.19
321.504	281.19
321.733	277.19
321.962	254.19
322.191	247.19
322.42	240.19
322.649	241.19
322.878	259.19
323.108	254.19
323.337	241.19
323.566	251.19
323.795	237.19
324.024	235.19
324.253	235.19
324.482	224.19
324.71	234.19
324.939	277.19
325.168	257.19
325.397	209.19
325.626	204.19
325.855	215.19
326.084	221.19
326.313	208.19
326.542	228.19
326.77	227.19
326.999	208.19
327.228	242.19
327.457	238.19
327.686	232.19
327.914	225.19
328.143	198.19
328.372	222.19
328.6	193.19
328.829	189.19
329.058	210.19
329.287	203.19
329.515	196.19
329.744	219.19
329.972	191.19
330.201	202.19
330.43	209.19
330.658	228.19
330.887	238.19
331.115	227.19
331.344	232.19
331.572	218.19
331.801	222.19
332.03	203.19
332.258	217.19
332.486	231.19
332.715	243.19
332.943	209.19
333.172	214.19
333.4	213.19
333.629	237.19
333.857	249.19
334.085	269.19
334.314	259.19
334.542	257.19
334.771	214.19
334.999	231.19
335.227	231.19
335.455	230.19
335.684	238.19
335.912	280.19
336.14	284.19
336.369	283.19
336.597	253.19
336.825	309.19
337.053	325.19
337.281	273.19
337.51	225.19
337.738	227.19
337.966	238.19
338.194	250.19
338.422	250.19
338.65	217.19
338.878	207.19
339.106	221.19
339.334	233.19
339.562	264.19
339.79	230.19
340.018	206.19
340.246	240.19
340.474	230.19
340.702	271.19
340.93	266.19
341.158	284.19
341.386	249.19
341.614	240.19
341.842	248.19
342.07	245.19
342.298	282.19
342.526	309.19
342.754	256.19
342.981	253.19
343.209	242.19
343.437	258.19
343.665	271.19
343.893	273.19
344.12	299.19
344.348	360.19
344.576	328.19
344.804	272.19
345.031	227.19
345.259	215.19
345.487	241.19
345.714	233.19
345.942	267.19
346.17	290.19
346.397	278.19
346.625	243.19
346.853	229.19
347.08	204.19
347.308	230.19
347.535	263.19
347.763	264.19
347.99	241.19
348.218	223.19
348.445	230.19
348.673	240.19
348.9	239.19
349.128	259.19
349.355	255.19
349.583	238.19
349.81	238.19
350.037	226.19
350.265	217.19
350.492	194.19
350.72	191.19
350.947	186.19
351.174	238.19
351.402	216.19
351.629	221.19
351.856	221.19
352.083	203.19
352.311	218.19
352.538	234.19
352.765	244.19
352.992	224.19
353.22	240.19
353.447	238.19
353.674	224.19
353.901	216.19
354.128	227.19
354.355	223.19
354.583	215.19
354.81	254.19
355.037	247.19
355.264	230.19
355.491	241.19
355.718	242.19
355.945	251.19
356.172	257.19
356.399	233.19
356.626	277.19
356.853	347.19
357.08	346.19
357.307	370.19
357.534	301.19
357.761	317.19
357.988	362.19
358.215	427.19
358.441	401.19
358.668	346.19
358.895	311.19
359.122	271.19
359.349	287.19
359.576	299.19
359.802	270.19
360.029	233.19
360.256	233.19
360.483	278.19
360.709	346.19
360.936	349.19
361.163	311.19
361.39	269.19
361.616	232.19
361.843	255.19
362.07	330.19
362.296	285.19
362.523	224.19
362.749	215.19
362.976	210.19
363.203	264.19
363.429	268.19
363.656	233.19
363.882	225.19
364.109	223.19
364.335	229.19
364.562	229.19
364.788	258.19
365.015	288.19
365.241	269.19
365.468	227.19
365.694	186.19
365.92	211.19
366.147	210.19
366.373	192.19
366.599	184.19
366.826	206.19
367.052	203.19
367.278	203.19
367.505	201.19
367.731	224.19
367.957	240.19
368.184	237.19
368.41	224.19
368.636	209.19
368.862	225.19
369.089	242.19
369.315	214.19
369.541	214.19
369.767	211.19
369.993	209.19
370.219	207.19
370.445	205.19
370.672	240.19
370.898	250.19
371.124	250.19
371.35	221.19
371.576	208.19
371.802	239.19
372.028	261.19
372.254	299.19
372.48	266.19
372.706	233.19
372.932	233.19
373.158	247.19
373.384	300.19
373.61	381.19
373.835	385.19
374.061	308.19
374.287	269.19
374.513	302.19
374.739	357.19
374.965	333.19
375.191	370.19
375.416	279.19
375.642	255.19
375.868	289.19
376.094	305.19
376.319	251.19
376.545	286.19
376.771	272.19
376.997	254.19
377.222	194.19
377.448	188.19
377.674	177.19
377.899	203.19
378.125	201.19
378.35	198.19
378.576	204.19
378.802	215.19
379.027	222.19
379.253	202.19
379.478	216.19
379.704	237.19
379.929	253.19
380.155	253.19
380.38	230.19
380.606	230.19
380.831	254.19
381.057	230.19
381.282	237.19
381.507	264.19
381.733	290.19
381.958	323.19
382.184	330.19
382.409	358.19
382.634	367.19
382.86	369.19
383.085	325.19
383.31	245.19
383.535	285.19
383.761	276.19
383.986	265.19
384.211	305.19
384.436	312.19
384.662	266.19
384.887	232.19
385.112	245.19
385.337	254.19
385.562	239.19
385.787	263.19
386.013	287.19
386.238	293.19
386.463	243.19
386.688	234.19
386.913	211.19
387.138	218.19
387.363	227.19
387.588	243.19
387.813	231.19
388.038	282.19
388.263	258.19
388.488	240.19
388.713	245.19
388.938	271.19
389.163	257.19
389.387	209.19
389.612	221.19
389.837	225.19
390.062	242.19
390.287	237.19
390.512	233.19
390.736	204.19
390.961	222.19
391.186	225.19
391.411	218.19
391.636	224.19
391.86	245.19
392.085	257.19
392.31	249.19
392.534	231.19
392.759	255.19
392.984	255.19
393.208	238.19
393.433	225.19
393.658	221.19
393.882	214.19
394.107	219.19
394.331	222.19
394.556	212.19
394.78	201.19
395.005	199.19
395.229	214.19
395.454	219.19
395.678	218.19
395.903	225.19
396.127	221.19
396.352	200.19
396.576	221.19
396.801	234.19
397.025	263.19
397.249	255.19
397.474	235.19
397.698	237.19
397.922	237.19
398.147	230.19
398.371	216.19
398.595	234.19
398.82	240.19
399.044	223.19
399.268	240.19
399.492	290.19
399.717	287.19
399.941	301.19
400.165	286.19
400.389	250.19
400.613	257.19
400.837	241.19
401.062	233.19
401.286	227.19
401.51	230.19
401.734	226.19
401.958	253.19
402.182	245.19
402.406	256.19
402.63	227.19
402.854	245.19
403.078	288.19
403.302	372.19
403.526	403.19
403.75	341.19
403.974	286.19
404.198	275.19
404.422	300.19
404.645	320.19
404.869	359.19
405.093	297.19
405.317	268.19
405.541	249.19
405.765	258.19
405.988	255.19
406.212	268.19
406.436	314.19
406.66	329.19
406.883	278.19
407.107	276.19
407.331	315.19
407.555	326.19
407.778	297.19
408.002	276.19
408.226	271.19
408.449	269.19
408.673	259.19
408.896	259.19
409.12	245.19
409.344	241.19
409.567	218.19
409.791	232.19
410.014	238.19
410.238	240.19
410.461	245.19
410.685	238.19
410.908	226.19
411.132	231.19
411.355	233.19
411.578	248.19
411.802	233.19
412.025	238.19
412.249	237.19
412.472	260.19
412.695	232.19
412.919	226.19
413.142	237.19
413.365	244.19
413.589	257.19
413.812	242.19
414.035	230.19
414.258	244.19
414.482	257.19
414.705	262.19
414.928	227.19
415.151	215.19
415.374	231.19
415.597	222.19
415.821	239.19
416.044	251.19
416.267	232.19
416.49	223.19
416.713	220.19
416.936	190.19
417.159	229.19
417.382	222.19
417.605	237.19
417.828	224.19
418.051	228.19
418.274	240.19
418.497	223.19
418.72	222.19
418.943	237.19
419.166	247.19
419.389	266.19
419.611	249.19
419.834	250.19
420.057	259.19
420.28	259.19
420.503	243.19
420.726	225.19
420.948	230.19
421.171	231.19
421.394	217.19
421.617	213.19
421.839	242.19
422.062	231.19
422.285	246.19
422.507	237.19
422.73	234.19
422.953	244.19
423.175	230.19
423.398	234.19
423.621	246.19
423.843	281.19
424.066	257.19
424.288	233.19
424.511	242.19
424.733	235.19
424.956	255.19
425.178	266.19
425.401	296.19
425.623	360.19
425.846	285.19
426.068	257.19
426.291	261.19
426.513	241.19
426.735	240.19
426.958	256.19
427.18	285.19
427.402	354.19
427.625	367.19
427.847	325.19
428.069	230.19
428.292	217.19
428.514	226.19
428.736	213.19
428.958	263.19
429.181	320.19
429.403	269.19
429.625	223.19
429.847	221.19
430.069	229.19
430.292	227.19
430.514	203.19
430.736	217.19
430.958	275.19
431.18	242.19
431.402	215.19
431.624	228.19
431.846	225.19
432.068	201.19
432.29	215.19
432.512	233.19
432.734	272.19
432.956	272.19
433.178	214.19
433.4	193.19
433.622	228.19
433.844	230.19
434.066	239.19
434.287	237.19
434.509	256.19
434.731	263.19
434.953	233.19
435.175	248.19
435.397	270.19
435.618	243.19
435.84	225.19
436.062	226.19
436.284	212.19
436.505	206.19
436.727	205.19
436.949	221.19
437.17	209.19
437.392	230.19
437.614	207.19
437.835	204.19
438.057	214.19
438.278	239.19
438.5	294.19
438.721	322.19
438.943	229.19
439.165	198.19
439.386	192.19
439.608	213.19
439.829	226.19
440.05	226.19
440.272	226.19
440.493	246.19
440.715	278.19
440.936	266.19
441.158	222.19
441.379	225.19
441.6	264.19
441.822	274.19
442.043	210.19
442.264	238.19
442.486	220.19
442.707	238.19
442.928	216.19
443.149	240.19
443.371	237.19
443.592	241.19
443.813	250.19
444.034	234.19
444.255	261.19
444.476	256.19
444.698	245.19
444.919	250.19
445.14	352.19
445.361	314.19
445.582	253.19
445.803	212.19
446.024	243.19
446.245	251.19
446.466	241.19
446.687	227.19
446.908	213.19
447.129	205.19
447.35	219.19
447.571	213.19
447.792	193.19
448.013	199.19
448.234	212.19
448.455	194.19
448.675	204.19
448.896	208.19
449.117	212.19
449.338	218.19
449.559	231.19
449.779	220.19
450	241.19
450.221	221.19
450.442	189.19
450.662	199.19
450.883	215.19
451.104	201.19
451.324	217.19
451.545	202.19
451.766	212.19
451.986	201.19
452.207	205.19
452.428	203.19
452.648	209.19
452.869	221.19
453.089	239.19
453.31	226.19
453.53	221.19
453.751	197.19
453.971	203.19
454.192	217.19
454.412	216.19
454.633	237.19
454.853	221.19
455.073	221.19
455.294	193.19
455.514	196.19
455.734	200.19
455.955	212.19
456.175	203.19
456.395	189.19
456.616	203.19
456.836	199.19
457.056	199.19
457.276	185.19
457.497	169.19
457.717	189.19
457.937	192.19
458.157	186.19
458.377	199.19
458.598	208.19
458.818	197.19
459.038	215.19
459.258	223.19
459.478	224.19
459.698	234.19
459.918	219.19
460.138	247.19
460.358	240.19
460.578	249.19
460.798	230.19
461.018	239.19
461.238	234.19
461.458	230.19
461.678	241.19
461.898	255.19
462.118	240.19
462.338	260.19
462.558	245.19
462.777	271.19
462.997	273.19
463.217	282.19
463.437	282.19
463.657	265.19
463.876	254.19
464.096	266.19
464.316	265.19
464.536	266.19
464.755	267.19
464.975	262.19
465.195	279.19
465.414	288.19
465.634	251.19
465.854	242.19
466.073	228.19
466.293	218.19
466.512	245.19
466.732	252.19
466.951	255.19
467.171	241.19
467.391	223.19
467.61	224.19
467.829	225.19
468.049	229.19
468.268	217.19
468.488	224.19
468.707	221.19
468.927	258.19
469.146	255.19
469.365	257.19
469.585	242.19
469.804	246.19
470.023	276.19
470.243	241.19
470.462	228.19
470.681	224.19
470.901	242.19
471.12	233.19
471.339	241.19
471.558	232.19
471.777	228.19
471.997	247.19
472.216	267.19
472.435	250.19
472.654	228.19
472.873	227.19
473.092	252.19
473.311	250.19
473.53	219.19
473.749	228.19
473.968	217.19
474.187	211.19
474.406	254.19
474.625	219.19
474.844	211.19
475.063	235.19
475.282	241.19
475.501	252.19
475.72	261.19
475.939	262.19
476.158	271.19
476.377	296.19
476.596	328.19
476.814	336.19
477.033	287.19
477.252	257.19
477.471	250.19
477.69	240.19
477.908	257.19
478.127	283.19
478.346	264.19
478.564	295.19
478.783	285.19
479.002	268.19
479.22	290.19
479.439	317.19
479.658	289.19
479.876	271.19
480.095	284.19
480.313	296.19
480.532	287.19
480.751	263.19
480.969	297.19
481.188	291.19
481.406	296.19
481.624	282.19
481.843	259.19
482.061	255.19
482.28	279.19
482.498	356.19
482.717	333.19
482.935	288.19
483.153	253.19
483.372	251.19
483.59	256.19
483.808	239.19
484.027	236.19
484.245	234.19
484.463	234.19
484.681	256.19
484.9	260.19
485.118	271.19
485.336	269.19
485.554	232.19
485.772	255.19
485.99	283.19
486.209	278.19
486.427	305.19
486.645	273.19
486.863	270.19
487.081	289.19
487.299	303.19
487.517	292.19
487.735	269.19
487.953	295.19
488.171	290.19
488.389	280.19
488.607	267.19
488.825	273.19
489.043	294.19
489.261	322.19
489.479	346.19
489.696	302.19
489.914	287.19
490.132	275.19
490.35	277.19
490.568	266.19
490.786	261.19
491.003	271.19
491.221	273.19
491.439	281.19
491.657	281.19
491.874	273.19
492.092	309.19
492.31	369.19
492.527	358.19
492.745	318.19
492.963	301.19
493.18	288.19
493.398	291.19
493.615	287.19
493.833	286.19
494.05	275.19
494.268	286.19
494.485	267.19
494.703	288.19
494.92	282.19
495.138	273.19
495.355	253.19
495.573	282.19
495.79	293.19
496.008	367.19
496.225	331.19
496.442	303.19
496.66	310.19
496.877	327.19
497.094	324.19
497.312	290.19
497.529	309.19
497.746	298.19
497.963	310.19
498.181	322.19
498.398	341.19
498.615	367.19
498.832	359.19
499.049	383.19
499.267	369.19
499.484	390.19
499.701	407.19
499.918	436.19
500.135	473.19
500.352	529.19
500.569	552.19
500.786	566.19
501.003	524.19
501.22	477.19
501.437	435.19
501.654	391.19
501.871	387.19
502.088	365.19
502.305	334.19
502.522	342.19
502.739	331.19
502.956	321.19
503.172	281.19
503.389	305.19
503.606	293.19
503.823	291.19
504.04	321.19
504.256	319.19
504.473	312.19
504.69	329.19
504.907	331.19
505.123	318.19
505.34	317.19
505.557	309.19
505.773	292.19
505.99	271.19
506.207	297.19
506.423	279.19
506.64	263.19
506.856	280.19
507.073	289.19
507.289	303.19
507.506	299.19
507.722	299.19
507.939	297.19
508.155	331.19
508.372	271.19
508.588	285.19
508.805	278.19
509.021	269.19
509.238	279.19
509.454	280.19
509.67	261.19
509.887	279.19
510.103	301.19
510.319	285.19
510.536	275.19
510.752	258.19
510.968	250.19
511.184	237.19
511.401	251.19
511.617	259.19
511.833	252.19
512.049	260.19
512.265	251.19
512.481	258.19
512.698	275.19
512.914	322.19
513.13	292.19
513.346	253.19
513.562	271.19
513.778	277.19
513.994	254.19
514.21	279.19
514.426	285.19
514.642	267.19
514.858	254.19
515.074	288.19
515.29	306.19
515.506	339.19
515.721	297.19
515.937	273.19
516.153	264.19
516.369	262.19
516.585	290.19
516.801	327.19
517.016	353.19
517.232	352.19
517.448	353.19
517.664	341.19
517.879	323.19
518.095	327.19
518.311	326.19
518.527	324.19
518.742	331.19
518.958	339.19
519.173	319.19
519.389	309.19
519.605	312.19
519.82	321.19
520.036	377.19
520.251	379.19
520.467	369.19
520.682	600.19
520.898	758.19
521.113	692.19
521.329	420.19
521.544	346.19
521.76	335.19
521.975	298.19
522.19	305.19
522.406	312.19
522.621	314.19
522.836	335.19
523.052	339.19
523.267	285.19
523.482	290.19
523.698	292.19
523.913	289.19
524.128	278.19
524.343	265.19
524.559	265.19
524.774	260.19
524.989	278.19
525.204	259.19
525.419	283.19
525.634	285.19
525.849	295.19
526.064	281.19
526.28	277.19
526.495	334.19
526.71	362.19
526.925	301.19
527.14	315.19
527.355	313.19
527.57	266.19
527.785	307.19
527.999	289.19
528.214	263.19
528.429	258.19
528.644	281.19
528.859	259.19
529.074	237.19
529.289	227.19
529.503	229.19
529.718	258.19
529.933	305.19
530.148	307.19
530.363	271.19
530.577	259.19
530.792	244.19
531.007	266.19
531.221	252.19
531.436	257.19
531.651	244.19
531.865	253.19
532.08	266.19
532.295	261.19
532.509	266.19
532.724	271.19
532.938	294.19
533.153	377.19
533.367	287.19
533.582	279.19
533.796	261.19
534.011	268.19
534.225	268.19
534.44	268.19
534.654	280.19
534.868	330.19
535.083	295.19
535.297	245.19
535.511	268.19
535.726	290.19
535.94	266.19
536.154	253.19
536.369	245.19
536.583	257.19
536.797	246.19
537.011	241.19
537.225	258.19
537.44	299.19
537.654	256.19
537.868	249.19
538.082	244.19
538.296	238.19
538.51	257.19
538.724	257.19
538.938	248.19
539.153	231.19
539.367	232.19
539.581	232.19
539.795	259.19
540.009	287.19
540.222	250.19
540.436	233.19
540.65	276.19
540.864	269.19
541.078	286.19
541.292	318.19
541.506	264.19
541.72	259.19
541.934	259.19
542.147	277.19
542.361	270.19
542.575	259.19
542.789	255.19
543.002	225.19
543.216	262.19
543.43	235.19
543.644	250.19
543.857	244.19
544.071	247.19
544.285	236.19
544.498	218.19
544.712	243.19
544.925	233.19
545.139	236.19
545.352	232.19
545.566	221.19
545.779	241.19
545.993	226.19
546.206	237.19
546.42	221.19
546.633	241.19
546.847	232.19
547.06	209.19
547.274	217.19
547.487	211.19
547.7	230.19
547.914	233.19
548.127	250.19
548.34	263.19
548.554	245.19
548.767	221.19
548.98	257.19
549.193	237.19
549.407	252.19
549.62	270.19
549.833	275.19
550.046	263.19
550.259	280.19
550.473	253.19
550.686	242.19
550.899	255.19
551.112	246.19
551.325	258.19
551.538	256.19
551.751	246.19
551.964	245.19
552.177	230.19
552.39	223.19
552.603	223.19
552.816	266.19
553.029	229.19
553.242	225.19
553.455	233.19
553.667	268.19
553.88	259.19
554.093	226.19
554.306	211.19
554.519	211.19
554.732	195.19
554.944	212.19
555.157	208.19
555.37	217.19
555.583	210.19
555.795	197.19
556.008	214.19
556.221	199.19
556.433	202.19
556.646	222.19
556.859	213.19
557.071	225.19
557.284	213.19
557.496	217.19
557.709	218.19
557.921	202.19
558.134	203.19
558.346	193.19
558.559	197.19
558.771	200.19
558.984	198.19
559.196	213.19
559.409	206.19
559.621	198.19
559.833	194.19
560.046	207.19
560.258	206.19
560.47	207.19
560.683	181.19
560.895	198.19
561.107	193.19
561.32	181.19
561.532	185.19
561.744	198.19
561.956	208.19
562.168	195.19
562.381	189.19
562.593	209.19
562.805	202.19
563.017	188.19
563.229	194.19
563.441	179.19
563.653	193.19
563.865	200.19
564.077	199.19
564.289	195.19
564.501	199.19
564.713	216.19
564.925	196.19
565.137	211.19
565.349	203.19
565.561	194.19
565.773	204.19
565.985	205.19
566.197	230.19
566.408	253.19
566.62	238.19
566.832	263.19
567.044	246.19
567.255	277.19
567.467	261.19
567.679	264.19
567.891	265.19
568.102	276.19
568.314	270.19
568.526	277.19
568.737	251.19
568.949	264.19
569.161	221.19
569.372	219.19
569.584	221.19
569.795	205.19
570.007	209.19
570.218	211.19
570.43	202.19
570.641	198.19
570.853	196.19
571.064	209.19
571.276	198.19
571.487	210.19
571.698	205.19
571.91	180.19
572.121	202.19
572.333	204.19
572.544	173.19
572.755	182.19
572.966	175.19
573.178	194.19
573.389	192.19
573.6	195.19
573.811	175.19
574.023	176.19
574.234	190.19
574.445	193.19
574.656	186.19
574.867	181.19
575.078	179.19
575.289	181.19
575.501	184.19
575.712	184.19
575.923	170.19
576.134	182.19
576.345	173.19
576.556	162.19
576.767	177.19
576.978	177.19
577.188	170.19
577.399	159.19
577.61	163.19
577.821	163.19
578.032	185.19
578.243	180.19
578.454	190.19
578.665	187.19
578.875	182.19
579.086	171.19
579.297	175.19
579.508	176.19
579.718	181.19
579.929	191.19
580.14	178.19
580.35	170.19
580.561	165.19
580.772	164.19
580.982	166.19
581.193	157.19
581.403	152.19
581.614	159.19
581.825	161.19
582.035	153.19
582.246	171.19
582.456	154.19
582.667	169.19
582.877	158.19
583.087	159.19
583.298	157.19
583.508	156.19
583.719	151.19
583.929	159.19
584.139	153.19
584.35	146.19
584.56	169.19
584.77	180.19
584.981	161.19
585.191	153.19
585.401	154.19
585.611	157.19
585.821	162.19
586.032	167.19
586.242	157.19
586.452	154.19
586.662	163.19
586.872	177.19
587.082	179.19
587.292	165.19
587.502	170.19
587.713	155.19
587.923	162.19
588.133	171.19
588.343	157.19
588.553	152.19
588.762	149.19
588.972	170.19
589.182	161.19
589.392	154.19
589.602	161.19
589.812	157.19
590.022	160.19
590.232	188.19
590.441	160.19
590.651	175.19
590.861	173.19
591.071	161.19
591.281	158.19
591.49	154.19
591.7	145.19
591.91	170.19
592.119	157.19
592.329	157.19
592.539	162.19
592.748	163.19
592.958	165.19
593.167	160.19
593.377	181.19
593.587	189.19
593.796	189.19
594.006	176.19
594.215	169.19
594.424	166.19
594.634	170.19
594.843	168.19
595.053	153.19
595.262	151.19
595.472	168.19
595.681	149.19
595.89	168.19
596.1	151.19
596.309	168.19
596.518	173.19
596.727	167.19
596.937	150.19
597.146	154.19
597.355	146.19
597.564	145.19
597.774	141.19
597.983	149.19
598.192	141.19
598.401	155.19
598.61	147.19
598.819	130.19
599.028	131.19
599.237	134.19
599.446	131.19
599.655	132.19
599.864	143.19
600.073	146.19
600.282	133.19
600.491	151.19
600.7	134.19
600.909	137.19
601.118	146.19
601.327	143.19
601.536	142.19
601.745	137.19
601.953	149.19
602.162	157.19
602.371	166.19
602.58	148.19
602.789	137.19
602.997	134.19
603.206	139.19
603.415	148.19
603.623	137.19
603.832	131.19
604.041	137.19
604.249	155.19
604.458	152.19
604.666	146.19
604.875	145.19
605.084	137.19
605.292	146.19
605.501	126.19
605.709	140.19
605.918	145.19
606.126	153.19
606.334	123.19
606.543	141.19
606.751	140.19
606.96	120.19
607.168	139.19
607.376	144.19
607.585	130.19
607.793	145.19
608.001	127.19
608.21	138.19
608.418	151.19
608.626	125.19
608.834	136.19
609.043	146.19
609.251	130.19
609.459	136.19
609.667	149.19
609.875	131.19
610.083	145.19
610.291	143.19
610.499	133.19
610.707	123.19
610.916	135.19
611.124	142.19
611.332	138.19
611.54	129.19
611.748	136.19
611.955	132.19
612.163	128.19
612.371	133.19
612.579	131.19
612.787	133.19
612.995	129.19
613.203	131.19
613.411	138.19
613.618	146.19
613.826	137.19
614.034	134.19
614.242	147.19
614.449	127.19
614.657	120.19
614.865	122.19
615.072	134.19
615.28	136.19
615.488	126.19
615.695	122.19
615.903	122.19
616.111	148.19
616.318	138.19
616.526	137.19
616.733	138.19
616.941	141.19
617.148	139.19
617.356	131.19
617.563	136.19
617.771	138.19
617.978	134.19
618.185	135.19
618.393	129.19
618.6	139.19
618.807	128.19
619.015	124.19
619.222	105.19
619.429	132.19
619.637	127.19
619.844	132.19
620.051	139.19
620.258	136.19
620.466	114.19
620.673	127.19
620.88	122.19
621.087	132.19
621.294	116.19
621.501	137.19
621.708	128.19
621.915	128.19
622.122	128.19
622.329	134.19
622.536	160.19
622.743	125.19
622.95	119.19
623.157	128.19
623.364	137.19
623.571	127.19
623.778	119.19
623.985	134.19
624.192	131.19
624.399	125.19
624.606	115.19
624.812	130.19
625.019	119.19
625.226	110.19
625.433	135.19
625.639	119.19
625.846	125.19
626.053	125.19
626.259	136.19
626.466	114.19
626.673	127.19
626.879	130.19
627.086	127.19
627.293	117.19
627.499	122.19
627.706	131.19
627.912	122.19
628.119	122.19
628.325	112.19
628.532	105.19
628.738	116.19
628.945	115.19
629.151	119.19
629.357	120.19
629.564	114.19
629.77	129.19
629.976	113.19
630.183	113.19
630.389	126.19
630.595	115.19
630.802	124.19
631.008	112.19
631.214	111.19
631.42	101.19
631.627	117.19
631.833	117.19
632.039	115.19
632.245	114.19
632.451	121.19
632.657	118.19
632.863	127.19
633.069	111.19
633.275	118.19
633.481	102.19
633.688	113.19
633.893	110.19
634.099	119.19
634.305	119.19
634.511	110.19
634.717	125.19
634.923	123.19
635.129	109.19
635.335	107.19
635.541	112.19
635.747	121.19
635.952	122.19
636.158	108.19
636.364	96.19
636.57	116.19
636.775	113.19
636.981	100.19
637.187	110.19
637.392	105.19
637.598	107.19
637.804	113.19
638.009	101.19
638.215	110.19
638.421	125.19
638.626	122.19
638.832	115.19
639.037	124.19
639.243	126.19
639.448	116.19
639.654	109.19
639.859	95.19
640.065	115.19
640.27	125.19
640.475	117.19
640.681	111.19
640.886	125.19
641.091	101.19
641.297	121.19
641.502	113.19
641.707	122.19
641.913	120.19
642.118	134.19
642.323	112.19
642.528	97.19
642.733	119.19
642.939	111.19
643.144	96.19
643.349	117.19
643.554	117.19
643.759	106.19
643.964	103.19
644.169	103.19
644.374	113.19
644.579	125.19
644.784	114.19
644.989	106.19
645.194	98.19
645.399	117.19
645.604	113.19
645.809	114.19
646.014	111.19
646.219	109.19
646.423	103.19
646.628	102.19
646.833	103.19
647.038	113.19
647.243	114.19
647.447	121.19
647.652	125.19
647.857	123.19
648.062	122.19
648.266	101.19
648.471	118.19
648.676	106.19
648.88	120.19
649.085	115.19
649.289	111.19
649.494	110.19
649.698	121.19
649.903	103.19
650.107	87.19
650.312	111.19
650.516	106.19
650.721	113.19
650.925	93.19
651.13	93.19
651.334	106.19
651.539	111.19
651.743	109.19
651.947	96.19
652.152	114.19
652.356	101.19
652.56	100.19
652.764	101.19
652.969	100.19
653.173	103.19
653.377	105.19
653.581	112.19
653.785	102.19
653.99	96.19
654.194	109.19
654.398	93.19
654.602	101.19
654.806	115.19
655.01	102.19
655.214	93.19
655.418	92.19
655.622	106.19
655.826	99.19
656.03	112.19
656.234	92.19
656.438	111.19
656.642	94.19
656.846	96.19
657.049	98.19
657.253	96.19
657.457	92.19
657.661	92.19
657.865	80.19
658.068	90.19
658.272	103.19
658.476	102.19
658.68	106.19
658.883	90.19
659.087	81.19
659.291	78.19
659.494	91.19
659.698	93.19
659.901	92.19
660.105	86.19
660.309	77.19
660.512	70.19
660.716	90.19
660.919	74.19
661.123	94.19
661.326	90.19
661.53	81.19
661.733	84.19
661.936	88.19
662.14	94.19
662.343	89.19
662.546	79.19
662.75	83.19
662.953	61.19
663.156	87.19
663.36	94.19
663.563	83.19
663.766	87.19
663.969	78.19
664.173	75.19
664.376	81.19
664.579	79.19
664.782	74.19
664.985	73.19
665.188	87.19
665.391	79.19
665.594	78.19
665.797	89.19
666	93.19
666.203	89.19
666.406	93.19
666.609	78.19
666.812	85.19
667.015	84.19
667.218	84.19
667.421	95.19
667.624	81.19
667.827	82.19
668.03	81.19
668.232	91.19
668.435	77.19
668.638	88.19
668.841	84.19
669.043	88.19
669.246	100.19
669.449	85.19
669.651	93.19
669.854	83.19
670.057	89.19
670.259	74.19
670.462	80.19
670.665	75.19
670.867	68.19
671.07	85.19
671.272	80.19
671.475	85.19
671.677	81.19
671.88	86.19
672.082	82.19
672.284	82.19
672.487	95.19
672.689	90.19
672.892	74.19
