Data from NiCl2@0.5M.TitratingCurve.Agarose3%dH2O.NegLispCup.LampEnergy10.LIBS07252019_HRD10591_18-20-33-575.txt Node
Date: Thu Jul 25 18:20:33 EDT 2019
User: cochatt
Spectrometer: HR+D1059
Trigger mode: 1
Integration Time (sec): 1.000000E-1
Scans to average: 1
Electric dark correction enabled: true
Nonlinearity correction enabled: false
Boxcar width: 0
XAxis mode: Wavelengths
Number of Pixels in Spectrum: 2048
>>>>>Begin Spectral Data<<<<<
223.165	-11
223.4	-11
223.635	-11
223.869	-31
224.104	-13
224.338	-28
224.573	-5
224.808	-17
225.042	-10
225.277	-6
225.511	2
225.746	14
225.98	12
226.215	4
226.449	21
226.683	21
226.918	14
227.152	33
227.387	36
227.621	40
227.856	48
228.09	55
228.324	45
228.559	57
228.793	80
229.027	152
229.262	175
229.496	183
229.73	176
229.964	191
230.199	225
230.433	213
230.667	228
230.901	224
231.136	191
231.37	203
231.604	216
231.838	227
232.072	247
232.306	231
232.541	233
232.775	206
233.009	214
233.243	208
233.477	221
233.711	217
233.945	228
234.179	224
234.413	229
234.647	227
234.881	236
235.115	232
235.349	226
235.583	218
235.817	251
236.051	230
236.285	227
236.519	234
236.753	241
236.987	234
237.221	231
237.455	221
237.689	233
237.922	248
238.156	251
238.39	247
238.624	267
238.858	253
239.091	285
239.325	267
239.559	282
239.793	317
240.027	310
240.26	287
240.494	266
240.728	270
240.961	264
241.195	262
241.429	297
241.662	298
241.896	326
242.13	354
242.363	312
242.597	309
242.83	310
243.064	313
243.298	319
243.531	309
243.765	311
243.998	345
244.232	347
244.465	313
244.699	336
244.932	336
245.166	335
245.399	333
245.633	353
245.866	331
246.099	325
246.333	343
246.566	359
246.8	358
247.033	360
247.266	357
247.5	355
247.733	360
247.966	370
248.2	383
248.433	396
248.666	383
248.899	395
249.133	365
249.366	393
249.599	373
249.832	397
250.066	390
250.299	390
250.532	419
250.765	442
250.998	427
251.231	428
251.465	438
251.698	437
251.931	431
252.164	416
252.397	454
252.63	446
252.863	437
253.096	430
253.329	445
253.562	447
253.795	453
254.028	444
254.261	447
254.494	467
254.727	461
254.96	462
255.193	470
255.426	468
255.659	457
255.892	490
256.124	479
256.357	478
256.59	490
256.823	480
257.056	494
257.289	491
257.521	477
257.754	506
257.987	503
258.22	495
258.452	483
258.685	508
258.918	531
259.151	492
259.383	523
259.616	521
259.849	551
260.081	534
260.314	511
260.547	527
260.779	551
261.012	519
261.244	552
261.477	549
261.71	566
261.942	547
262.175	561
262.407	541
262.64	569
262.872	563
263.105	554
263.337	577
263.57	571
263.802	600
264.035	572
264.267	567
264.499	561
264.732	597
264.964	587
265.197	601
265.429	607
265.661	590
265.894	602
266.126	612
266.358	611
266.591	580
266.823	639
267.055	617
267.287	622
267.52	617
267.752	632
267.984	603
268.216	639
268.448	655
268.681	639
268.913	625
269.145	627
269.377	630
269.609	645
269.841	649
270.073	641
270.306	629
270.538	638
270.77	640
271.002	666
271.234	658
271.466	647
271.698	662
271.93	658
272.162	686
272.394	708
272.626	684
272.858	663
273.09	703
273.322	666
273.553	666
273.785	701
274.017	695
274.249	709
274.481	709
274.713	705
274.945	741
275.176	700
275.408	712
275.64	725
275.872	709
276.104	729
276.335	728
276.567	761
276.799	732
277.031	763
277.262	737
277.494	750
277.726	748
277.957	748
278.189	742
278.421	748
278.652	753
278.884	765
279.115	781
279.347	789
279.579	787
279.81	788
280.042	775
280.273	764
280.505	782
280.736	785
280.968	793
281.199	813
281.431	832
281.662	791
281.894	817
282.125	796
282.356	837
282.588	829
282.819	801
283.051	831
283.282	815
283.513	829
283.745	853
283.976	821
284.207	816
284.439	841
284.67	835
284.901	830
285.132	855
285.364	824
285.595	840
285.826	832
286.057	848
286.288	858
286.52	879
286.751	874
286.982	903
287.213	876
287.444	887
287.675	880
287.906	878
288.138	876
288.369	896
288.6	926
288.831	895
289.062	909
289.293	887
289.524	907
289.755	865
289.986	897
290.217	918
290.448	897
290.679	899
290.91	931
291.141	907
291.371	909
291.602	911
291.833	879
292.064	910
292.295	899
292.526	889
292.757	903
292.987	927
293.218	904
293.449	920
293.68	936
293.91	911
294.141	910
294.372	908
294.603	926
294.833	948
295.064	949
295.295	935
295.525	903
295.756	957
295.987	921
296.217	958
296.448	919
296.679	952
296.909	952
297.14	965
297.37	956
297.601	981
297.831	972
298.062	965
298.292	994
298.523	1039
298.753	1011
298.984	1025
299.214	979
299.445	1027
299.675	1001
299.905	1024
300.136	1023
300.366	1054
300.597	1093
300.827	1064
301.057	1051
301.288	1061
301.518	1089
301.748	1041
301.979	1048
302.209	1058
302.439	1077
302.669	1076
302.9	1047
303.13	1035
303.36	1039
303.59	1067
303.82	1097
304.051	1093
304.281	1072
304.511	1061
304.741	1067
304.971	1103
305.201	1088
305.431	1112
305.661	1115
305.891	1080
306.121	1072
306.352	1065
306.582	1045
306.812	1081
307.042	1067
307.272	1056
307.502	1045
307.731	1048
307.961	1052
308.191	1053
308.421	1048
308.651	1047
308.881	1041
309.111	1091
309.341	1032
309.571	1053
309.8	1100
310.03	1101
310.26	1133
310.49	1118
310.72	1108
310.949	1062
311.179	1073
311.409	1051
311.639	1079
311.868	1064
312.098	1133
312.328	1096
312.557	1085
312.787	1086
313.017	1103
313.246	1138
313.476	1148
313.706	1170
313.935	1153
314.165	1122
314.394	1140
314.624	1121
314.853	1118
315.083	1131
315.312	1099
315.542	1133
315.771	1142
316.001	1133
316.23	1115
316.46	1147
316.689	1116
316.919	1143
317.148	1153
317.377	1146
317.607	1106
317.836	1130
318.065	1125
318.295	1136
318.524	1139
318.753	1161
318.983	1128
319.212	1140
319.441	1146
319.67	1145
319.9	1125
320.129	1148
320.358	1157
320.587	1143
320.816	1152
321.046	1165
321.275	1144
321.504	1151
321.733	1195
321.962	1187
322.191	1163
322.42	1133
322.649	1171
322.878	1172
323.108	1181
323.337	1195
323.566	1230
323.795	1187
324.024	1194
324.253	1163
324.482	1237
324.71	1224
324.939	1220
325.168	1221
325.397	1204
325.626	1190
325.855	1192
326.084	1207
326.313	1232
326.542	1225
326.77	1248
326.999	1251
327.228	1240
327.457	1276
327.686	1257
327.914	1226
328.143	1247
328.372	1230
328.6	1245
328.829	1233
329.058	1238
329.287	1239
329.515	1264
329.744	1245
329.972	1252
330.201	1267
330.43	1256
330.658	1288
330.887	1307
331.115	1293
331.344	1286
331.572	1310
331.801	1301
332.03	1333
332.258	1342
332.486	1331
332.715	1398
332.943	1421
333.172	1392
333.4	1431
333.629	1467
333.857	1475
334.085	1468
334.314	1495
334.542	1493
334.771	1519
334.999	1543
335.227	1513
335.455	1523
335.684	1532
335.912	1543
336.14	1533
336.369	1553
336.597	1553
336.825	1535
337.053	1532
337.281	1488
337.51	1451
337.738	1490
337.966	1466
338.194	1498
338.422	1448
338.65	1374
338.878	1370
339.106	1405
339.334	1453
339.562	1392
339.79	1345
340.018	1326
340.246	1331
340.474	1325
340.702	1347
340.93	1331
341.158	1367
341.386	1406
341.614	1423
341.842	1450
342.07	1338
342.298	1331
342.526	1311
342.754	1324
342.981	1312
343.209	1342
343.437	1380
343.665	1426
343.893	1448
344.12	1471
344.348	1459
344.576	1467
344.804	1499
345.031	1439
345.259	1376
345.487	1374
345.714	1327
345.942	1396
346.17	1456
346.397	1389
346.625	1317
346.853	1273
347.08	1258
347.308	1309
347.535	1292
347.763	1269
347.99	1241
348.218	1232
348.445	1264
348.673	1254
348.9	1254
349.128	1280
349.355	1292
349.583	1315
349.81	1215
350.037	1227
350.265	1219
350.492	1235
350.72	1194
350.947	1233
351.174	1273
351.402	1279
351.629	1320
351.856	1316
352.083	1264
352.311	1292
352.538	1353
352.765	1327
352.992	1205
353.22	1155
353.447	1185
353.674	1208
353.901	1181
354.128	1194
354.355	1183
354.583	1177
354.81	1125
355.037	1205
355.264	1163
355.491	1166
355.718	1211
355.945	1198
356.172	1207
356.399	1199
356.626	1223
356.853	1297
357.08	1224
357.307	1209
357.534	1217
357.761	1179
357.988	1185
358.215	1193
358.441	1211
358.668	1169
358.895	1229
359.122	1173
359.349	1200
359.576	1181
359.802	1187
360.029	1193
360.256	1162
360.483	1211
360.709	1174
360.936	1205
361.163	1221
361.39	1228
361.616	1221
361.843	1260
362.07	1299
362.296	1311
362.523	1198
362.749	1195
362.976	1212
363.203	1199
363.429	1157
363.656	1190
363.882	1188
364.109	1130
364.335	1178
364.562	1161
364.788	1167
365.015	1160
365.241	1181
365.468	1176
365.694	1167
365.92	1169
366.147	1174
366.373	1187
366.599	1204
366.826	1196
367.052	1183
367.278	1161
367.505	1183
367.731	1198
367.957	1189
368.184	1193
368.41	1198
368.636	1190
368.862	1206
369.089	1181
369.315	1240
369.541	1217
369.767	1214
369.993	1242
370.219	1209
370.445	1224
370.672	1230
370.898	1251
371.124	1253
371.35	1262
371.576	1240
371.802	1285
372.028	1255
372.254	1260
372.48	1297
372.706	1312
372.932	1293
373.158	1268
373.384	1284
373.61	1246
373.835	1252
374.061	1261
374.287	1279
374.513	1305
374.739	1306
374.965	1343
375.191	1335
375.416	1358
375.642	1304
375.868	1310
376.094	1303
376.319	1283
376.545	1301
376.771	1270
376.997	1233
377.222	1259
377.448	1267
377.674	1248
377.899	1251
378.125	1262
378.35	1271
378.576	1273
378.802	1223
379.027	1251
379.253	1270
379.478	1263
379.704	1226
379.929	1257
380.155	1209
380.38	1217
380.606	1231
380.831	1244
381.057	1227
381.282	1257
381.507	1242
381.733	1234
381.958	1270
382.184	1261
382.409	1333
382.634	1290
382.86	1313
383.085	1292
383.31	1297
383.535	1275
383.761	1301
383.986	1352
384.211	1326
384.436	1344
384.662	1361
384.887	1391
385.112	1372
385.337	1388
385.562	1441
385.787	1400
386.013	1449
386.238	1470
386.463	1450
386.688	1466
386.913	1457
387.138	1455
387.363	1440
387.588	1439
387.813	1443
388.038	1440
388.263	1449
388.488	1498
388.713	1456
388.938	1467
389.163	1469
389.387	1487
389.612	1406
389.837	1456
390.062	1464
390.287	1476
390.512	1449
390.736	1451
390.961	1463
391.186	1509
391.411	1513
391.636	1547
391.86	1576
392.085	1566
392.31	1614
392.534	1579
392.759	1570
392.984	1526
393.208	1535
393.433	1506
393.658	1513
393.882	1556
394.107	1550
394.331	1566
394.556	1557
394.78	1537
395.005	1584
395.229	1542
395.454	1560
395.678	1603
395.903	1605
396.127	1633
396.352	1609
396.576	1576
396.801	1597
397.025	1597
397.249	1671
397.474	1611
397.698	1614
397.922	1687
398.147	1615
398.371	1703
398.595	1769
398.82	1784
399.044	1896
399.268	1926
399.492	2032
399.717	2216
399.941	2204
400.165	2184
400.389	2104
400.613	1967
400.837	1942
401.062	1860
401.286	1841
401.51	1808
401.734	1824
401.958	1789
402.182	1827
402.406	1809
402.63	1800
402.854	1831
403.078	1797
403.302	1786
403.526	1828
403.75	1849
403.974	1847
404.198	1834
404.422	1883
404.645	1856
404.869	1823
405.093	1856
405.317	1866
405.541	1896
405.765	1897
405.988	1893
406.212	1888
406.436	1949
406.66	1975
406.883	1981
407.107	2056
407.331	2053
407.555	2126
407.778	2106
408.002	2127
408.226	2117
408.449	2090
408.673	2020
408.896	2016
409.12	1975
409.344	2022
409.567	1980
409.791	1994
410.014	1934
410.238	1919
410.461	1962
410.685	1960
410.908	1895
411.132	1886
411.355	1864
411.578	1888
411.802	1874
412.025	1853
412.249	1893
412.472	1870
412.695	1847
412.919	1827
413.142	1813
413.365	1855
413.589	1841
413.812	1801
414.035	1798
414.258	1816
414.482	1798
414.705	1815
414.928	1826
415.151	1805
415.374	1795
415.597	1787
415.821	1766
416.044	1761
416.267	1733
416.49	1751
416.713	1703
416.936	1709
417.159	1719
417.382	1730
417.605	1705
417.828	1710
418.051	1731
418.274	1741
418.497	1711
418.72	1762
418.943	1734
419.166	1857
419.389	2014
419.611	1935
419.834	1875
420.057	1847
420.28	1745
420.503	1735
420.726	1693
420.948	1695
421.171	1768
421.394	1740
421.617	1714
421.839	1751
422.062	1753
422.285	1699
422.507	1767
422.73	1749
422.953	1721
423.175	1757
423.398	1730
423.621	1692
423.843	1736
424.066	1744
424.288	1696
424.511	1773
424.733	1711
424.956	1714
425.178	1689
425.401	1713
425.623	1756
425.846	1698
426.068	1676
426.291	1722
426.513	1705
426.735	1673
426.958	1641
427.18	1655
427.402	1656
427.625	1673
427.847	1669
428.069	1623
428.292	1715
428.514	1612
428.736	1630
428.958	1652
429.181	1617
429.403	1632
429.625	1609
429.847	1652
430.069	1618
430.292	1639
430.514	1577
430.736	1634
430.958	1649
431.18	1627
431.402	1654
431.624	1620
431.846	1627
432.068	1676
432.29	1683
432.512	1622
432.734	1664
432.956	1652
433.178	1695
433.4	1703
433.622	1707
433.844	1703
434.066	1688
434.287	1736
434.509	1704
434.731	1716
434.953	1758
435.175	1769
435.397	1821
435.618	1730
435.84	1695
436.062	1670
436.284	1661
436.505	1659
436.727	1661
436.949	1681
437.17	1649
437.392	1654
437.614	1647
437.835	1587
438.057	1602
438.278	1596
438.5	1596
438.721	1612
438.943	1632
439.165	1564
439.386	1569
439.608	1621
439.829	1619
440.05	1633
440.272	1629
440.493	1673
440.715	1709
440.936	1661
441.158	1695
441.379	1690
441.6	1791
441.822	1729
442.043	1741
442.264	1764
442.486	1745
442.707	1725
442.928	1730
443.149	1756
443.371	1738
443.592	1839
443.813	1795
444.034	1768
444.255	1839
444.476	1867
444.698	1871
444.919	1963
445.14	2051
445.361	1925
445.582	1846
445.803	1795
446.024	1768
446.245	1716
446.466	1685
446.687	1677
446.908	1643
447.129	1614
447.35	1633
447.571	1623
447.792	1590
448.013	1566
448.234	1565
448.455	1538
448.675	1545
448.896	1546
449.117	1517
449.338	1541
449.559	1492
449.779	1514
450	1501
450.221	1524
450.442	1515
450.662	1528
450.883	1525
451.104	1556
451.324	1549
451.545	1502
451.766	1525
451.986	1483
452.207	1472
452.428	1474
452.648	1487
452.869	1461
453.089	1463
453.31	1513
453.53	1469
453.751	1466
453.971	1461
454.192	1466
454.412	1493
454.633	1445
454.853	1440
455.073	1431
455.294	1493
455.514	1424
455.734	1450
455.955	1463
456.175	1409
456.395	1400
456.616	1430
456.836	1453
457.056	1427
457.276	1418
457.497	1493
457.717	1500
457.937	1507
458.157	1491
458.377	1487
458.598	1527
458.818	1525
459.038	1578
459.258	1597
459.478	1707
459.698	1804
459.918	1787
460.138	1762
460.358	1852
460.578	1833
460.798	1922
461.018	1917
461.238	1837
461.458	1867
461.678	1843
461.898	1883
462.118	1896
462.338	1980
462.558	2000
462.777	2077
462.997	2173
463.217	2202
463.437	2258
463.657	2184
463.876	2129
464.096	2095
464.316	2073
464.536	2083
464.755	2012
464.975	1979
465.195	1916
465.414	1850
465.634	1760
465.854	1721
466.073	1725
466.293	1678
466.512	1631
466.732	1607
466.951	1630
467.171	1652
467.391	1626
467.61	1565
467.829	1614
468.049	1561
468.268	1573
468.488	1560
468.707	1581
468.927	1562
469.146	1545
469.365	1598
469.585	1569
469.804	1603
470.023	1581
470.243	1590
470.462	1616
470.681	1622
470.901	1644
471.12	1614
471.339	1613
471.558	1596
471.777	1634
471.997	1600
472.216	1555
472.435	1565
472.654	1544
472.873	1525
473.092	1520
473.311	1544
473.53	1532
473.749	1568
473.968	1559
474.187	1537
474.406	1565
474.625	1565
474.844	1560
475.063	1599
475.282	1592
475.501	1652
475.72	1593
475.939	1584
476.158	1614
476.377	1614
476.596	1622
476.814	1643
477.033	1642
477.252	1691
477.471	1710
477.69	1758
477.908	1742
478.127	1806
478.346	1784
478.564	1808
478.783	1847
479.002	1893
479.22	1934
479.439	1925
479.658	1923
479.876	1901
480.095	1941
480.313	1907
480.532	1944
480.751	1936
480.969	1940
481.188	1898
481.406	1911
481.624	1913
481.843	1871
482.061	1836
482.28	1846
482.498	1836
482.717	1847
482.935	1872
483.153	1895
483.372	1891
483.59	1964
483.808	1906
484.027	1891
484.245	1892
484.463	1892
484.681	1911
484.9	1887
485.118	1918
485.336	1928
485.554	1913
485.772	1963
485.99	1957
486.209	1950
486.427	1915
486.645	1958
486.863	1967
487.081	1948
487.299	1972
487.517	1923
487.735	1957
487.953	1977
488.171	1943
488.389	1934
488.607	1882
488.825	1892
489.043	1897
489.261	1921
489.479	1947
489.696	1961
489.914	1924
490.132	1930
490.35	1917
490.568	1941
490.786	1950
491.003	1929
491.221	1959
491.439	1958
491.657	1901
491.874	1971
492.092	1932
492.31	2035
492.527	2015
492.745	2017
492.963	2006
493.18	1940
493.398	1973
493.615	1985
493.833	1998
494.05	2007
494.268	2011
494.485	2021
494.703	2016
494.92	2067
495.138	2027
495.355	2053
495.573	2044
495.79	2048
496.008	2061
496.225	2150
496.442	2147
496.66	2179
496.877	2155
497.094	2190
497.312	2225
497.529	2286
497.746	2349
497.963	2394
498.181	2512
498.398	2525
498.615	2699
498.832	2760
499.049	2905
499.267	3019
499.484	3196
499.701	3383
499.918	3598
500.135	3789
500.352	4003
500.569	4050
500.786	4071
501.003	3950
501.22	3790
501.437	3616
501.654	3357
501.871	3197
502.088	3052
502.305	2932
502.522	2782
502.739	2672
502.956	2572
503.172	2494
503.389	2439
503.606	2404
503.823	2325
504.04	2295
504.256	2305
504.473	2227
504.69	2246
504.907	2193
505.123	2156
505.34	2076
505.557	1984
505.773	2007
505.99	1925
506.207	1910
506.423	1917
506.64	1831
506.856	1847
507.073	1807
507.289	1789
507.506	1760
507.722	1748
507.939	1761
508.155	1756
508.372	1783
508.588	1704
508.805	1724
509.021	1693
509.238	1671
509.454	1646
509.67	1658
509.887	1659
510.103	1632
510.319	1646
510.536	1656
510.752	1600
510.968	1617
511.184	1562
511.401	1625
511.617	1601
511.833	1598
512.049	1569
512.265	1599
512.481	1576
512.698	1559
512.914	1599
513.13	1583
513.346	1583
513.562	1579
513.778	1628
513.994	1625
514.21	1649
514.426	1603
514.642	1606
514.858	1682
515.074	1663
515.29	1643
515.506	1645
515.721	1667
515.937	1727
516.153	1715
516.369	1751
516.585	1770
516.801	1793
517.016	1859
517.232	1864
517.448	1927
517.664	1943
517.879	1923
518.095	1958
518.311	1913
518.527	1857
518.742	1828
518.958	1791
519.173	1773
519.389	1769
519.605	1706
519.82	1692
520.036	1669
520.251	1629
520.467	1641
520.682	1569
520.898	1573
521.113	1572
521.329	1530
521.544	1534
521.76	1533
521.975	1504
522.19	1484
522.406	1473
522.621	1499
522.836	1468
523.052	1452
523.267	1467
523.482	1484
523.698	1429
523.913	1416
524.128	1457
524.343	1437
524.559	1468
524.774	1423
524.989	1461
525.204	1459
525.419	1433
525.634	1382
525.849	1431
526.064	1411
526.28	1379
526.495	1417
526.71	1415
526.925	1401
527.14	1406
527.355	1380
527.57	1407
527.785	1407
527.999	1374
528.214	1363
528.429	1381
528.644	1399
528.859	1425
529.074	1370
529.289	1403
529.503	1404
529.718	1389
529.933	1399
530.148	1365
530.363	1368
530.577	1397
530.792	1325
531.007	1368
531.221	1373
531.436	1360
531.651	1385
531.865	1382
532.08	1392
532.295	1320
532.509	1335
532.724	1357
532.938	1360
533.153	1375
533.367	1329
533.582	1345
533.796	1358
534.011	1376
534.225	1315
534.44	1303
534.654	1318
534.868	1291
535.083	1318
535.297	1328
535.511	1337
535.726	1316
535.94	1307
536.154	1288
536.369	1267
536.583	1263
536.797	1271
537.011	1238
537.225	1286
537.44	1286
537.654	1287
537.868	1257
538.082	1210
538.296	1227
538.51	1240
538.724	1229
538.938	1255
539.153	1227
539.367	1252
539.581	1207
539.795	1236
540.009	1254
540.222	1234
540.436	1237
540.65	1242
540.864	1229
541.078	1243
541.292	1256
541.506	1212
541.72	1239
541.934	1239
542.147	1232
542.361	1230
542.575	1198
542.789	1187
543.002	1228
543.216	1209
543.43	1209
543.644	1212
543.857	1223
544.071	1190
544.285	1214
544.498	1200
544.712	1206
544.925	1242
545.139	1223
545.352	1206
545.566	1251
545.779	1219
545.993	1227
546.206	1212
546.42	1204
546.633	1214
546.847	1206
547.06	1242
547.274	1230
547.487	1237
547.7	1231
547.914	1252
548.127	1225
548.34	1210
548.554	1224
548.767	1263
548.98	1230
549.193	1236
549.407	1191
549.62	1223
549.833	1229
550.046	1222
550.259	1231
550.473	1232
550.686	1226
550.899	1221
551.112	1178
551.325	1203
551.538	1227
551.751	1179
551.964	1216
552.177	1259
552.39	1235
552.603	1260
552.816	1250
553.029	1259
553.242	1280
553.455	1276
553.667	1270
553.88	1244
554.093	1279
554.306	1222
554.519	1243
554.732	1173
554.944	1172
555.157	1186
555.37	1129
555.583	1131
555.795	1124
556.008	1127
556.221	1077
556.433	1087
556.646	1105
556.859	1073
557.071	1071
557.284	1043
557.496	1066
557.709	1053
557.921	1058
558.134	1061
558.346	1035
558.559	1036
558.771	1020
558.984	1062
559.196	1014
559.409	1014
559.621	1026
559.833	1039
560.046	989
560.258	1026
560.47	1028
560.683	1028
560.895	993
561.107	989
561.32	1007
561.532	1040
561.744	1038
561.956	1009
562.168	1008
562.381	1038
562.593	1029
562.805	1033
563.017	1038
563.229	1038
563.441	1071
563.653	1074
563.865	1042
564.077	1056
564.289	1086
564.501	1072
564.713	1100
564.925	1091
565.137	1129
565.349	1132
565.561	1170
565.773	1207
565.985	1215
566.197	1255
566.408	1295
566.62	1350
566.832	1342
567.044	1363
567.255	1419
567.467	1429
567.679	1437
567.891	1449
568.102	1456
568.314	1378
568.526	1367
568.737	1304
568.949	1226
569.161	1195
569.372	1145
569.584	1103
569.795	1084
570.007	1078
570.218	1054
570.43	1045
570.641	999
570.853	985
571.064	1005
571.276	1004
571.487	964
571.698	966
571.91	926
572.121	932
572.333	909
572.544	884
572.755	860
572.966	895
573.178	867
573.389	839
573.6	832
573.811	841
574.023	827
574.234	806
574.445	793
574.656	811
574.867	827
575.078	798
575.289	807
575.501	809
575.712	755
575.923	782
576.134	763
576.345	782
576.556	757
576.767	767
576.978	744
577.188	780
577.399	753
577.61	742
577.821	768
578.032	740
578.243	740
578.454	750
578.665	734
578.875	727
579.086	731
579.297	709
579.508	689
579.718	697
579.929	734
580.14	662
580.35	704
580.561	717
580.772	699
580.982	704
581.193	710
581.403	681
581.614	702
581.825	687
582.035	665
582.246	680
582.456	686
582.667	669
582.877	669
583.087	664
583.298	664
583.508	664
583.719	677
583.929	686
584.139	655
584.35	670
584.56	689
584.77	629
584.981	630
585.191	637
585.401	658
585.611	671
585.821	683
586.032	646
586.242	641
586.452	652
586.662	637
586.872	657
587.082	638
587.292	649
587.502	660
587.713	647
587.923	633
588.133	656
588.343	652
588.553	668
588.762	661
588.972	673
589.182	775
589.392	748
589.602	671
589.812	744
590.022	707
590.232	648
590.441	640
590.651	639
590.861	642
591.071	655
591.281	676
591.49	667
591.7	678
591.91	692
592.119	692
592.329	668
592.539	671
592.748	713
592.958	720
593.167	714
593.377	743
593.587	726
593.796	710
594.006	684
594.215	722
594.424	712
594.634	699
594.843	684
595.053	665
595.262	678
595.472	642
595.681	639
595.89	653
596.1	602
596.309	623
596.518	597
596.727	595
596.937	608
597.146	589
597.355	590
597.564	569
597.774	572
597.983	552
598.192	567
598.401	560
598.61	553
598.819	549
599.028	571
599.237	548
599.446	519
599.655	537
599.864	541
600.073	520
600.282	528
600.491	524
600.7	535
600.909	515
601.118	537
601.327	504
601.536	514
601.745	501
601.953	519
602.162	491
602.371	494
602.58	509
602.789	513
602.997	485
603.206	514
603.415	507
603.623	498
603.832	492
604.041	490
604.249	478
604.458	497
604.666	517
604.875	478
605.084	449
605.292	466
605.501	492
605.709	489
605.918	491
606.126	484
606.334	484
606.543	477
606.751	492
606.96	488
607.168	473
607.376	448
607.585	451
607.793	501
608.001	471
608.21	473
608.418	460
608.626	478
608.834	451
609.043	453
609.251	458
609.459	453
609.667	441
609.875	458
610.083	463
610.291	454
610.499	447
610.707	448
610.916	438
611.124	444
611.332	444
611.54	442
611.748	451
611.955	470
612.163	439
612.371	435
612.579	443
612.787	450
612.995	444
613.203	459
613.411	435
613.618	444
613.826	432
614.034	439
614.242	432
614.449	419
614.657	437
614.865	437
615.072	431
615.28	423
615.488	419
615.695	421
615.903	406
616.111	441
616.318	424
616.526	438
616.733	457
616.941	422
617.148	428
617.356	401
617.563	442
617.771	428
617.978	414
618.185	421
618.393	409
618.6	423
618.807	405
619.015	408
619.222	411
619.429	405
619.637	401
619.844	410
620.051	411
620.258	401
620.466	386
620.673	397
620.88	385
621.087	401
621.294	408
621.501	393
621.708	393
621.915	399
622.122	379
622.329	393
622.536	384
622.743	391
622.95	384
623.157	378
623.364	392
623.571	366
623.778	371
623.985	380
624.192	380
624.399	378
624.606	363
624.812	379
625.019	371
625.226	364
625.433	367
625.639	362
625.846	374
626.053	355
626.259	373
626.466	373
626.673	353
626.879	366
627.086	366
627.293	352
627.499	347
627.706	346
627.912	341
628.119	346
628.325	341
628.532	350
628.738	347
628.945	347
629.151	355
629.357	346
629.564	333
629.77	345
629.976	340
630.183	357
630.389	337
630.595	352
630.802	330
631.008	329
631.214	358
631.42	317
631.627	328
631.833	324
632.039	324
632.245	300
632.451	329
632.657	314
632.863	338
633.069	311
633.275	311
633.481	323
633.688	340
633.893	319
634.099	311
634.305	309
634.511	330
634.717	315
634.923	317
635.129	311
635.335	307
635.541	326
635.747	318
635.952	311
636.158	290
636.364	312
636.57	317
636.775	316
636.981	310
637.187	282
637.392	292
637.598	292
637.804	298
638.009	302
638.215	295
638.421	302
638.626	309
638.832	273
639.037	303
639.243	296
639.448	277
639.654	300
639.859	285
640.065	270
640.27	304
640.475	293
640.681	295
640.886	275
641.091	278
641.297	277
641.502	291
641.707	296
641.913	282
642.118	280
642.323	291
642.528	280
642.733	277
642.939	286
643.144	292
643.349	277
643.554	293
643.759	290
643.964	284
644.169	273
644.374	272
644.579	290
644.784	280
644.989	271
645.194	267
645.399	270
645.604	263
645.809	281
646.014	286
646.219	297
646.423	279
646.628	267
646.833	279
647.038	265
647.243	269
647.447	289
647.652	270
647.857	297
648.062	279
648.266	286
648.471	295
648.676	269
648.88	283
649.085	287
649.289	279
649.494	270
649.698	294
649.903	262
650.107	268
650.312	279
650.516	273
650.721	250
650.925	269
651.13	259
651.334	266
651.539	268
651.743	259
651.947	256
652.152	249
652.356	259
652.56	239
652.764	247
652.969	248
653.173	232
653.377	250
653.581	236
653.785	246
653.99	248
654.194	240
654.398	220
654.602	249
654.806	239
655.01	239
655.214	252
655.418	243
655.622	246
655.826	238
656.03	246
656.234	250
656.438	262
656.642	262
656.846	265
657.049	235
657.253	215
657.457	210
657.661	206
657.865	179
658.068	176
658.272	172
658.476	161
658.68	153
658.883	158
659.087	136
659.291	148
659.494	145
659.698	128
659.901	123
660.105	127
660.309	113
660.512	128
660.716	102
660.919	120
661.123	108
661.326	116
661.53	95
661.733	87
661.936	93
662.14	95
662.343	88
662.546	104
662.75	98
662.953	99
663.156	80
663.36	94
663.563	91
663.766	94
663.969	85
664.173	87
664.376	101
664.579	83
664.782	83
664.985	80
665.188	75
665.391	95
665.594	86
665.797	95
666	77
666.203	81
666.406	76
666.609	78
666.812	96
667.015	87
667.218	93
667.421	78
667.624	85
667.827	82
668.03	76
668.232	78
668.435	96
668.638	84
668.841	81
669.043	78
669.246	92
669.449	99
669.651	72
669.854	92
670.057	79
670.259	71
670.462	91
670.665	85
670.867	92
671.07	89
671.272	83
671.475	95
671.677	74
671.88	95
672.082	81
672.284	81
672.487	76
672.689	73
672.892	70
