Data from NiCl2@0.5M.TitratingCurve.Agarose3%dH2O.NegLispCup.LampEnergy10.LIBS07252019_HRD10591_18-18-54-571.txt Node
Date: Thu Jul 25 18:18:54 EDT 2019
User: cochatt
Spectrometer: HR+D1059
Trigger mode: 1
Integration Time (sec): 1.000000E-1
Scans to average: 1
Electric dark correction enabled: true
Nonlinearity correction enabled: false
Boxcar width: 0
XAxis mode: Wavelengths
Number of Pixels in Spectrum: 2048
>>>>>Begin Spectral Data<<<<<
223.165	-6
223.4	-6
223.635	-6
223.869	-26
224.104	-11
224.338	-22
224.573	-21
224.808	-12
225.042	5
225.277	-6
225.511	-7
225.746	5
225.98	9
226.215	21
226.449	5
226.683	10
226.918	29
227.152	27
227.387	41
227.621	32
227.856	49
228.09	53
228.324	46
228.559	56
228.793	87
229.027	125
229.262	143
229.496	155
229.73	150
229.964	165
230.199	180
230.433	187
230.667	161
230.901	165
231.136	175
231.37	183
231.604	189
231.838	191
232.072	195
232.306	184
232.541	196
232.775	196
233.009	171
233.243	179
233.477	196
233.711	186
233.945	186
234.179	195
234.413	199
234.647	186
234.881	203
235.115	205
235.349	181
235.583	198
235.817	209
236.051	205
236.285	195
236.519	190
236.753	183
236.987	194
237.221	201
237.455	207
237.689	228
237.922	213
238.156	202
238.39	231
238.624	225
238.858	223
239.091	223
239.325	229
239.559	229
239.793	226
240.027	229
240.26	239
240.494	248
240.728	251
240.961	224
241.195	239
241.429	241
241.662	246
241.896	270
242.13	284
242.363	264
242.597	272
242.83	260
243.064	265
243.298	248
243.531	274
243.765	280
243.998	282
244.232	284
244.465	257
244.699	280
244.932	288
245.166	266
245.399	293
245.633	288
245.866	288
246.099	293
246.333	293
246.566	292
246.8	290
247.033	290
247.266	306
247.5	297
247.733	307
247.966	316
248.2	312
248.433	311
248.666	312
248.899	313
249.133	327
249.366	316
249.599	338
249.832	332
250.066	318
250.299	322
250.532	332
250.765	348
250.998	361
251.231	349
251.465	371
251.698	350
251.931	361
252.164	373
252.397	357
252.63	374
252.863	379
253.096	355
253.329	367
253.562	362
253.795	354
254.028	378
254.261	370
254.494	375
254.727	369
254.96	379
255.193	383
255.426	389
255.659	393
255.892	383
256.124	389
256.357	392
256.59	395
256.823	397
257.056	387
257.289	389
257.521	389
257.754	391
257.987	411
258.22	400
258.452	413
258.685	423
258.918	399
259.151	422
259.383	419
259.616	407
259.849	413
260.081	415
260.314	424
260.547	429
260.779	431
261.012	439
261.244	437
261.477	441
261.71	439
261.942	446
262.175	453
262.407	455
262.64	450
262.872	458
263.105	455
263.337	450
263.57	462
263.802	464
264.035	473
264.267	477
264.499	487
264.732	469
264.964	488
265.197	485
265.429	485
265.661	456
265.894	485
266.126	479
266.358	487
266.591	511
266.823	490
267.055	491
267.287	512
267.52	501
267.752	521
267.984	502
268.216	510
268.448	504
268.681	515
268.913	515
269.145	509
269.377	528
269.609	525
269.841	541
270.073	525
270.306	532
270.538	535
270.77	555
271.002	536
271.234	520
271.466	561
271.698	549
271.93	551
272.162	557
272.394	558
272.626	552
272.858	567
273.09	543
273.322	548
273.553	565
273.785	579
274.017	555
274.249	577
274.481	567
274.713	574
274.945	588
275.176	601
275.408	591
275.64	586
275.872	579
276.104	563
276.335	595
276.567	584
276.799	595
277.031	619
277.262	617
277.494	580
277.726	602
277.957	621
278.189	627
278.421	589
278.652	606
278.884	607
279.115	630
279.347	642
279.579	618
279.81	638
280.042	613
280.273	649
280.505	649
280.736	669
280.968	635
281.199	659
281.431	636
281.662	687
281.894	661
282.125	692
282.356	654
282.588	685
282.819	664
283.051	679
283.282	653
283.513	685
283.745	691
283.976	679
284.207	682
284.439	651
284.67	663
284.901	682
285.132	685
285.364	711
285.595	693
285.826	689
286.057	683
286.288	683
286.52	699
286.751	707
286.982	726
287.213	704
287.444	710
287.675	715
287.906	712
288.138	713
288.369	724
288.6	734
288.831	730
289.062	726
289.293	729
289.524	716
289.755	711
289.986	725
290.217	719
290.448	732
290.679	750
290.91	749
291.141	742
291.371	737
291.602	725
291.833	730
292.064	761
292.295	731
292.526	736
292.757	734
292.987	751
293.218	718
293.449	751
293.68	734
293.91	758
294.141	742
294.372	727
294.603	770
294.833	725
295.064	762
295.295	755
295.525	747
295.756	750
295.987	742
296.217	791
296.448	788
296.679	772
296.909	750
297.14	791
297.37	801
297.601	821
297.831	795
298.062	820
298.292	808
298.523	848
298.753	835
298.984	810
299.214	800
299.445	817
299.675	835
299.905	806
300.136	820
300.366	864
300.597	855
300.827	845
301.057	847
301.288	863
301.518	878
301.748	851
301.979	851
302.209	848
302.439	858
302.669	862
302.9	860
303.13	826
303.36	853
303.59	878
303.82	882
304.051	851
304.281	858
304.511	850
304.741	867
304.971	876
305.201	883
305.431	899
305.661	915
305.891	899
306.121	863
306.352	870
306.582	823
306.812	821
307.042	861
307.272	873
307.502	846
307.731	838
307.961	838
308.191	845
308.421	847
308.651	854
308.881	852
309.111	855
309.341	829
309.571	849
309.8	862
310.03	894
310.26	891
310.49	889
310.72	870
310.949	877
311.179	868
311.409	850
311.639	868
311.868	892
312.098	895
312.328	885
312.557	897
312.787	889
313.017	902
313.246	935
313.476	932
313.706	956
313.935	920
314.165	912
314.394	949
314.624	933
314.853	899
315.083	917
315.312	929
315.542	921
315.771	922
316.001	920
316.23	909
316.46	937
316.689	932
316.919	931
317.148	913
317.377	916
317.607	906
317.836	918
318.065	900
318.295	923
318.524	935
318.753	958
318.983	908
319.212	916
319.441	927
319.67	920
319.9	947
320.129	942
320.358	921
320.587	939
320.816	940
321.046	911
321.275	908
321.504	921
321.733	929
321.962	948
322.191	934
322.42	958
322.649	958
322.878	978
323.108	918
323.337	952
323.566	962
323.795	955
324.024	948
324.253	971
324.482	973
324.71	988
324.939	965
325.168	963
325.397	948
325.626	1017
325.855	1006
326.084	1001
326.313	1005
326.542	966
326.77	998
326.999	1009
327.228	999
327.457	982
327.686	980
327.914	975
328.143	974
328.372	980
328.6	998
328.829	988
329.058	1008
329.287	989
329.515	1023
329.744	1013
329.972	1031
330.201	1012
330.43	1011
330.658	1021
330.887	1036
331.115	1017
331.344	1031
331.572	1044
331.801	1061
332.03	1091
332.258	1118
332.486	1150
332.715	1120
332.943	1189
333.172	1203
333.4	1223
333.629	1286
333.857	1284
334.085	1265
334.314	1230
334.542	1261
334.771	1216
334.999	1223
335.227	1215
335.455	1219
335.684	1195
335.912	1206
336.14	1221
336.369	1184
336.597	1222
336.825	1231
337.053	1222
337.281	1191
337.51	1155
337.738	1158
337.966	1178
338.194	1174
338.422	1142
338.65	1104
338.878	1108
339.106	1109
339.334	1168
339.562	1092
339.79	1070
340.018	1046
340.246	1068
340.474	1076
340.702	1068
340.93	1077
341.158	1077
341.386	1113
341.614	1126
341.842	1111
342.07	1066
342.298	1066
342.526	1060
342.754	1068
342.981	1051
343.209	1059
343.437	1133
343.665	1160
343.893	1216
344.12	1222
344.348	1167
344.576	1198
344.804	1181
345.031	1133
345.259	1116
345.487	1098
345.714	1094
345.942	1110
346.17	1132
346.397	1081
346.625	1058
346.853	1049
347.08	1032
347.308	1042
347.535	1039
347.763	1033
347.99	1040
348.218	1015
348.445	1012
348.673	1022
348.9	1024
349.128	986
349.355	1033
349.583	1061
349.81	1015
350.037	979
350.265	984
350.492	1002
350.72	1002
350.947	975
351.174	1027
351.402	1062
351.629	1032
351.856	1013
352.083	994
352.311	1006
352.538	1009
352.765	1023
352.992	988
353.22	953
353.447	967
353.674	945
353.901	925
354.128	961
354.355	942
354.583	968
354.81	958
355.037	979
355.264	964
355.491	956
355.718	981
355.945	942
356.172	957
356.399	965
356.626	991
356.853	1035
357.08	1001
357.307	994
357.534	958
357.761	982
357.988	934
358.215	950
358.441	948
358.668	940
358.895	985
359.122	941
359.349	957
359.576	940
359.802	978
360.029	964
360.256	965
360.483	975
360.709	962
360.936	979
361.163	988
361.39	972
361.616	946
361.843	983
362.07	1039
362.296	1050
362.523	953
362.749	965
362.976	925
363.203	958
363.429	945
363.656	956
363.882	947
364.109	942
364.335	962
364.562	935
364.788	939
365.015	937
365.241	942
365.468	925
365.694	931
365.92	961
366.147	954
366.373	933
366.599	946
366.826	974
367.052	978
367.278	949
367.505	982
367.731	955
367.957	931
368.184	921
368.41	967
368.636	956
368.862	947
369.089	967
369.315	974
369.541	1003
369.767	991
369.993	1013
370.219	964
370.445	985
370.672	999
370.898	977
371.124	1004
371.35	1029
371.576	974
371.802	1000
372.028	986
372.254	1016
372.48	995
372.706	1053
372.932	1039
373.158	1036
373.384	1030
373.61	1019
373.835	1051
374.061	982
374.287	1017
374.513	1048
374.739	1060
374.965	1079
375.191	1102
375.416	1090
375.642	1045
375.868	1052
376.094	1033
376.319	1034
376.545	1030
376.771	1009
376.997	1015
377.222	1031
377.448	1004
377.674	1012
377.899	1012
378.125	980
378.35	990
378.576	1001
378.802	972
379.027	1009
379.253	995
379.478	971
379.704	961
379.929	974
380.155	993
380.38	963
380.606	988
380.831	994
381.057	995
381.282	1004
381.507	996
381.733	968
381.958	1002
382.184	1003
382.409	1006
382.634	1029
382.86	1023
383.085	1059
383.31	1066
383.535	1064
383.761	1065
383.986	1108
384.211	1086
384.436	1118
384.662	1104
384.887	1129
385.112	1129
385.337	1160
385.562	1165
385.787	1175
386.013	1216
386.238	1163
386.463	1160
386.688	1151
386.913	1160
387.138	1130
387.363	1152
387.588	1151
387.813	1187
388.038	1166
388.263	1159
388.488	1164
388.713	1148
388.938	1147
389.163	1155
389.387	1148
389.612	1129
389.837	1145
390.062	1159
390.287	1178
390.512	1166
390.736	1173
390.961	1226
391.186	1183
391.411	1218
391.636	1272
391.86	1281
392.085	1290
392.31	1281
392.534	1257
392.759	1282
392.984	1252
393.208	1273
393.433	1230
393.658	1209
393.882	1245
394.107	1234
394.331	1262
394.556	1251
394.78	1231
395.005	1277
395.229	1272
395.454	1329
395.678	1305
395.903	1292
396.127	1284
396.352	1266
396.576	1245
396.801	1246
397.025	1272
397.249	1291
397.474	1334
397.698	1318
397.922	1315
398.147	1332
398.371	1385
398.595	1393
398.82	1416
399.044	1508
399.268	1625
399.492	1809
399.717	2009
399.941	1977
400.165	1792
400.389	1701
400.613	1619
400.837	1537
401.062	1534
401.286	1489
401.51	1465
401.734	1463
401.958	1493
402.182	1486
402.406	1449
402.63	1480
402.854	1479
403.078	1514
403.302	1569
403.526	1553
403.75	1563
403.974	1620
404.198	1573
404.422	1617
404.645	1573
404.869	1545
405.093	1578
405.317	1567
405.541	1593
405.765	1539
405.988	1547
406.212	1588
406.436	1577
406.66	1602
406.883	1613
407.107	1721
407.331	1724
407.555	1822
407.778	1790
408.002	1771
408.226	1701
408.449	1710
408.673	1662
408.896	1634
409.12	1591
409.344	1619
409.567	1599
409.791	1620
410.014	1582
410.238	1580
410.461	1597
410.685	1590
410.908	1552
411.132	1572
411.355	1522
411.578	1523
411.802	1525
412.025	1501
412.249	1539
412.472	1551
412.695	1485
412.919	1490
413.142	1466
413.365	1434
413.589	1498
413.812	1476
414.035	1481
414.258	1457
414.482	1447
414.705	1457
414.928	1532
415.151	1458
415.374	1431
415.597	1477
415.821	1401
416.044	1454
416.267	1422
416.49	1420
416.713	1415
416.936	1440
417.159	1436
417.382	1436
417.605	1395
417.828	1388
418.051	1396
418.274	1423
418.497	1436
418.72	1477
418.943	1449
419.166	1531
419.389	1611
419.611	1608
419.834	1550
420.057	1500
420.28	1450
420.503	1408
420.726	1402
420.948	1413
421.171	1441
421.394	1419
421.617	1418
421.839	1434
422.062	1449
422.285	1420
422.507	1445
422.73	1460
422.953	1445
423.175	1483
423.398	1475
423.621	1458
423.843	1498
424.066	1493
424.288	1487
424.511	1465
424.733	1470
424.956	1458
425.178	1495
425.401	1427
425.623	1409
425.846	1418
426.068	1393
426.291	1417
426.513	1400
426.735	1359
426.958	1397
427.18	1345
427.402	1379
427.625	1356
427.847	1355
428.069	1321
428.292	1351
428.514	1334
428.736	1318
428.958	1355
429.181	1331
429.403	1306
429.625	1304
429.847	1317
430.069	1338
430.292	1333
430.514	1314
430.736	1306
430.958	1313
431.18	1319
431.402	1337
431.624	1304
431.846	1345
432.068	1348
432.29	1363
432.512	1333
432.734	1343
432.956	1370
433.178	1387
433.4	1342
433.622	1377
433.844	1401
434.066	1353
434.287	1405
434.509	1431
434.731	1454
434.953	1423
435.175	1466
435.397	1502
435.618	1411
435.84	1409
436.062	1349
436.284	1349
436.505	1344
436.727	1379
436.949	1359
437.17	1355
437.392	1325
437.614	1337
437.835	1290
438.057	1319
438.278	1299
438.5	1324
438.721	1324
438.943	1336
439.165	1300
439.386	1283
439.608	1307
439.829	1343
440.05	1358
440.272	1380
440.493	1377
440.715	1372
440.936	1374
441.158	1437
441.379	1394
441.6	1518
441.822	1502
442.043	1526
442.264	1462
442.486	1431
442.707	1438
442.928	1442
443.149	1499
443.371	1488
443.592	1506
443.813	1555
444.034	1554
444.255	1547
444.476	1610
444.698	1605
444.919	1691
445.14	1714
445.361	1615
445.582	1537
445.803	1508
446.024	1437
446.245	1413
446.466	1414
446.687	1381
446.908	1365
447.129	1341
447.35	1333
447.571	1315
447.792	1270
448.013	1299
448.234	1302
448.455	1279
448.675	1267
448.896	1252
449.117	1239
449.338	1245
449.559	1267
449.779	1229
450	1237
450.221	1245
450.442	1248
450.662	1269
450.883	1285
451.104	1308
451.324	1247
451.545	1222
451.766	1306
451.986	1231
452.207	1231
452.428	1258
452.648	1251
452.869	1235
453.089	1242
453.31	1236
453.53	1210
453.751	1206
453.971	1215
454.192	1221
454.412	1213
454.633	1210
454.853	1203
455.073	1175
455.294	1174
455.514	1166
455.734	1168
455.955	1181
456.175	1179
456.395	1162
456.616	1174
456.836	1182
457.056	1201
457.276	1169
457.497	1196
457.717	1218
457.937	1226
458.157	1240
458.377	1206
458.598	1242
458.818	1299
459.038	1309
459.258	1334
459.478	1388
459.698	1454
459.918	1458
460.138	1482
460.358	1531
460.578	1570
460.798	1638
461.018	1603
461.238	1615
461.458	1570
461.678	1568
461.898	1607
462.118	1617
462.338	1676
462.558	1705
462.777	1734
462.997	1849
463.217	1945
463.437	1989
463.657	1863
463.876	1823
464.096	1786
464.316	1806
464.536	1762
464.755	1736
464.975	1702
465.195	1594
465.414	1552
465.634	1446
465.854	1404
466.073	1424
466.293	1387
466.512	1359
466.732	1350
466.951	1383
467.171	1342
467.391	1361
467.61	1331
467.829	1322
468.049	1339
468.268	1281
468.488	1277
468.707	1290
468.927	1270
469.146	1311
469.365	1295
469.585	1322
469.804	1345
470.023	1349
470.243	1383
470.462	1330
470.681	1356
470.901	1404
471.12	1353
471.339	1354
471.558	1355
471.777	1321
471.997	1338
472.216	1281
472.435	1278
472.654	1273
472.873	1257
473.092	1272
473.311	1241
473.53	1250
473.749	1284
473.968	1273
474.187	1250
474.406	1255
474.625	1276
474.844	1255
475.063	1313
475.282	1289
475.501	1291
475.72	1296
475.939	1286
476.158	1342
476.377	1335
476.596	1343
476.814	1348
477.033	1348
477.252	1377
477.471	1405
477.69	1417
477.908	1451
478.127	1481
478.346	1493
478.564	1517
478.783	1521
479.002	1564
479.22	1581
479.439	1587
479.658	1557
479.876	1565
480.095	1588
480.313	1630
480.532	1622
480.751	1610
480.969	1570
481.188	1567
481.406	1565
481.624	1526
481.843	1474
482.061	1496
482.28	1493
482.498	1469
482.717	1477
482.935	1436
483.153	1486
483.372	1501
483.59	1500
483.808	1459
484.027	1462
484.245	1453
484.463	1461
484.681	1489
484.9	1485
485.118	1527
485.336	1504
485.554	1514
485.772	1528
485.99	1515
486.209	1517
486.427	1534
486.645	1523
486.863	1528
487.081	1537
487.299	1549
487.517	1526
487.735	1523
487.953	1515
488.171	1575
488.389	1494
488.607	1526
488.825	1501
489.043	1511
489.261	1514
489.479	1500
489.696	1508
489.914	1530
490.132	1518
490.35	1541
490.568	1545
490.786	1578
491.003	1575
491.221	1542
491.439	1579
491.657	1587
491.874	1574
492.092	1593
492.31	1589
492.527	1618
492.745	1625
492.963	1625
493.18	1603
493.398	1586
493.615	1601
493.833	1626
494.05	1621
494.268	1635
494.485	1654
494.703	1665
494.92	1635
495.138	1669
495.355	1664
495.573	1688
495.79	1662
496.008	1692
496.225	1685
496.442	1731
496.66	1791
496.877	1811
497.094	1829
497.312	1818
497.529	1847
497.746	1909
497.963	1929
498.181	2031
498.398	2049
498.615	2217
498.832	2282
499.049	2431
499.267	2590
499.484	2794
499.701	2997
499.918	3206
500.135	3529
500.352	3855
500.569	3989
500.786	3984
501.003	3776
501.22	3544
501.437	3185
501.654	2901
501.871	2715
502.088	2530
502.305	2402
502.522	2337
502.739	2265
502.956	2093
503.172	2058
503.389	1989
503.606	1957
503.823	1907
504.04	1939
504.256	1872
504.473	1922
504.69	1907
504.907	1840
505.123	1789
505.34	1725
505.557	1620
505.773	1604
505.99	1602
506.207	1556
506.423	1548
506.64	1510
506.856	1495
507.073	1474
507.289	1466
507.506	1466
507.722	1459
507.939	1441
508.155	1436
508.372	1416
508.588	1434
508.805	1411
509.021	1383
509.238	1354
509.454	1350
509.67	1362
509.887	1390
510.103	1340
510.319	1319
510.536	1323
510.752	1303
510.968	1309
511.184	1328
511.401	1321
511.617	1284
511.833	1316
512.049	1303
512.265	1284
512.481	1304
512.698	1293
512.914	1306
513.13	1319
513.346	1309
513.562	1303
513.778	1335
513.994	1310
514.21	1331
514.426	1339
514.642	1328
514.858	1322
515.074	1360
515.29	1341
515.506	1358
515.721	1398
515.937	1386
516.153	1426
516.369	1447
516.585	1469
516.801	1510
517.016	1553
517.232	1598
517.448	1639
517.664	1721
517.879	1712
518.095	1690
518.311	1625
518.527	1611
518.742	1555
518.958	1521
519.173	1446
519.389	1417
519.605	1403
519.82	1375
520.036	1353
520.251	1365
520.467	1355
520.682	1305
520.898	1275
521.113	1287
521.329	1256
521.544	1262
521.76	1271
521.975	1261
522.19	1237
522.406	1246
522.621	1267
522.836	1223
523.052	1210
523.267	1194
523.482	1237
523.698	1213
523.913	1221
524.128	1190
524.343	1223
524.559	1194
524.774	1177
524.989	1196
525.204	1165
525.419	1192
525.634	1185
525.849	1145
526.064	1177
526.28	1177
526.495	1157
526.71	1175
526.925	1157
527.14	1160
527.355	1161
527.57	1140
527.785	1156
527.999	1151
528.214	1165
528.429	1157
528.644	1156
528.859	1170
529.074	1173
529.289	1172
529.503	1148
529.718	1177
529.933	1173
530.148	1127
530.363	1111
530.577	1124
530.792	1126
531.007	1151
531.221	1173
531.436	1147
531.651	1127
531.865	1137
532.08	1142
532.295	1154
532.509	1153
532.724	1131
532.938	1137
533.153	1131
533.367	1164
533.582	1173
533.796	1124
534.011	1140
534.225	1128
534.44	1123
534.654	1112
534.868	1099
535.083	1103
535.297	1113
535.511	1099
535.726	1083
535.94	1102
536.154	1084
536.369	1106
536.583	1104
536.797	1101
537.011	1073
537.225	1058
537.44	1036
537.654	1089
537.868	1037
538.082	1073
538.296	1051
538.51	1040
538.724	1036
538.938	1036
539.153	993
539.367	1049
539.581	1054
539.795	1013
540.009	1034
540.222	1021
540.436	1031
540.65	1020
540.864	1037
541.078	1032
541.292	1022
541.506	1027
541.72	1034
541.934	1045
542.147	1082
542.361	1007
542.575	1048
542.789	1003
543.002	1005
543.216	1031
543.43	1026
543.644	1013
543.857	1025
544.071	1027
544.285	1052
544.498	1060
544.712	1030
544.925	1040
545.139	1045
545.352	1027
545.566	1050
545.779	1013
545.993	1077
546.206	1077
546.42	1052
546.633	1063
546.847	1033
547.06	1094
547.274	1033
547.487	1041
547.7	1041
547.914	1080
548.127	1097
548.34	1058
548.554	1047
548.767	1059
548.98	1051
549.193	1073
549.407	1053
549.62	1076
549.833	1080
550.046	1077
550.259	1047
550.473	1051
550.686	1023
550.899	1025
551.112	1031
551.325	1017
551.538	1001
551.751	1015
551.964	1014
552.177	1041
552.39	1052
552.603	1038
552.816	1055
553.029	1080
553.242	1080
553.455	1098
553.667	1097
553.88	1121
554.093	1077
554.306	1066
554.519	1059
554.732	1008
554.944	1022
555.157	988
555.37	995
555.583	964
555.795	954
556.008	947
556.221	956
556.433	905
556.646	905
556.859	921
557.071	920
557.284	923
557.496	910
557.709	894
557.921	904
558.134	859
558.346	897
558.559	879
558.771	853
558.984	862
559.196	867
559.409	867
559.621	906
559.833	876
560.046	861
560.258	858
560.47	877
560.683	885
560.895	856
561.107	872
561.32	829
561.532	877
561.744	868
561.956	888
562.168	891
562.381	869
562.593	875
562.805	875
563.017	881
563.229	889
563.441	857
563.653	876
563.865	861
564.077	881
564.289	897
564.501	911
564.713	941
564.925	975
565.137	949
565.349	953
565.561	982
565.773	1041
565.985	1025
566.197	1037
566.408	1126
566.62	1183
566.832	1272
567.044	1276
567.255	1262
567.467	1295
567.679	1334
567.891	1385
568.102	1399
568.314	1345
568.526	1291
568.737	1180
568.949	1100
569.161	1035
569.372	970
569.584	926
569.795	939
570.007	925
570.218	862
570.43	872
570.641	881
570.853	886
571.064	867
571.276	854
571.487	832
571.698	810
571.91	797
572.121	783
572.333	771
572.544	761
572.755	716
572.966	740
573.178	727
573.389	702
573.6	726
573.811	725
574.023	707
574.234	709
574.445	690
574.656	707
574.867	675
575.078	707
575.289	670
575.501	664
575.712	676
575.923	669
576.134	674
576.345	639
576.556	663
576.767	643
576.978	669
577.188	665
577.399	640
577.61	645
577.821	662
578.032	637
578.243	645
578.454	631
578.665	627
578.875	626
579.086	617
579.297	597
579.508	625
579.718	593
579.929	613
580.14	611
580.35	596
580.561	595
580.772	605
580.982	597
581.193	590
581.403	599
581.614	596
581.825	586
582.035	572
582.246	588
582.456	564
582.667	565
582.877	588
583.087	568
583.298	564
583.508	564
583.719	574
583.929	582
584.139	580
584.35	555
584.56	565
584.77	563
584.981	565
585.191	561
585.401	556
585.611	551
585.821	565
586.032	566
586.242	554
586.452	569
586.662	553
586.872	543
587.082	577
587.292	533
587.502	541
587.713	564
587.923	546
588.133	554
588.343	559
588.553	545
588.762	564
588.972	599
589.182	780
589.392	709
589.602	572
589.812	735
590.022	643
590.232	593
590.441	563
590.651	551
590.861	564
591.071	567
591.281	565
591.49	574
591.7	566
591.91	570
592.119	569
592.329	582
592.539	600
592.748	620
592.958	634
593.167	636
593.377	644
593.587	648
593.796	643
594.006	657
594.215	648
594.424	653
594.634	647
594.843	632
595.053	613
595.262	585
595.472	567
595.681	565
595.89	538
596.1	531
596.309	527
596.518	514
596.727	522
596.937	497
597.146	512
597.355	499
597.564	475
597.774	507
597.983	507
598.192	488
598.401	482
598.61	478
598.819	469
599.028	469
599.237	463
599.446	470
599.655	471
599.864	463
600.073	462
600.282	459
600.491	444
600.7	453
600.909	452
601.118	464
601.327	438
601.536	445
601.745	432
601.953	447
602.162	439
602.371	431
602.58	446
602.789	423
602.997	435
603.206	451
603.415	436
603.623	425
603.832	433
604.041	428
604.249	435
604.458	413
604.666	415
604.875	421
605.084	396
605.292	413
605.501	397
605.709	429
605.918	405
606.126	417
606.334	407
606.543	408
606.751	403
606.96	404
607.168	406
607.376	428
607.585	427
607.793	422
608.001	420
608.21	411
608.418	379
608.626	396
608.834	391
609.043	391
609.251	395
609.459	386
609.667	421
609.875	404
610.083	400
610.291	390
610.499	377
610.707	383
610.916	376
611.124	396
611.332	390
611.54	383
611.748	393
611.955	380
612.163	392
612.371	390
612.579	391
612.787	398
612.995	360
613.203	381
613.411	396
613.618	380
613.826	370
614.034	367
614.242	383
614.449	381
614.657	370
614.865	378
615.072	383
615.28	375
615.488	381
615.695	375
615.903	376
616.111	373
616.318	381
616.526	369
616.733	373
616.941	381
617.148	363
617.356	380
617.563	353
617.771	363
617.978	358
618.185	393
618.393	363
618.6	363
618.807	353
619.015	358
619.222	365
619.429	363
619.637	356
619.844	346
620.051	350
620.258	348
620.466	330
620.673	364
620.88	321
621.087	355
621.294	339
621.501	330
621.708	347
621.915	333
622.122	353
622.329	334
622.536	337
622.743	338
622.95	343
623.157	334
623.364	339
623.571	326
623.778	336
623.985	339
624.192	335
624.399	337
624.606	325
624.812	328
625.019	311
625.226	301
625.433	351
625.639	316
625.846	314
626.053	313
626.259	298
626.466	323
626.673	330
626.879	328
627.086	307
627.293	298
627.499	303
627.706	305
627.912	316
628.119	313
628.325	302
628.532	319
628.738	294
628.945	305
629.151	297
629.357	298
629.564	292
629.77	299
629.976	292
630.183	293
630.389	313
630.595	303
630.802	299
631.008	278
631.214	298
631.42	291
631.627	295
631.833	291
632.039	290
632.245	274
632.451	294
632.657	287
632.863	279
633.069	273
633.275	280
633.481	267
633.688	266
633.893	277
634.099	278
634.305	268
634.511	256
634.717	272
634.923	283
635.129	263
635.335	282
635.541	289
635.747	281
635.952	279
636.158	270
636.364	275
636.57	271
636.775	265
636.981	261
637.187	296
637.392	249
637.598	252
637.804	265
638.009	269
638.215	242
638.421	262
638.626	271
638.832	265
639.037	277
639.243	269
639.448	259
639.654	249
639.859	232
640.065	238
640.27	262
640.475	267
640.681	249
640.886	233
641.091	258
641.297	261
641.502	237
641.707	239
641.913	231
642.118	244
642.323	241
642.528	257
642.733	247
642.939	230
643.144	240
643.349	238
643.554	238
643.759	242
643.964	238
644.169	230
644.374	235
644.579	231
644.784	228
644.989	244
645.194	241
645.399	228
645.604	237
645.809	247
646.014	222
646.219	250
646.423	230
646.628	242
646.833	255
647.038	228
647.243	233
647.447	241
647.652	260
647.857	245
648.062	247
648.266	255
648.471	252
648.676	234
648.88	230
649.085	242
649.289	227
649.494	246
649.698	243
649.903	218
650.107	234
650.312	223
650.516	211
650.721	224
650.925	218
651.13	202
651.334	220
651.539	223
651.743	195
651.947	206
652.152	204
652.356	210
652.56	202
652.764	205
652.969	191
653.173	191
653.377	187
653.581	186
653.785	183
653.99	172
654.194	171
654.398	170
654.602	171
654.806	182
655.01	193
655.214	180
655.418	173
655.622	167
655.826	163
656.03	172
656.234	161
656.438	158
656.642	166
656.846	149
657.049	151
657.253	145
657.457	133
657.661	135
657.865	127
658.068	125
658.272	137
658.476	114
658.68	113
658.883	111
659.087	127
659.291	110
659.494	103
659.698	107
659.901	114
660.105	101
660.309	110
660.512	91
660.716	100
660.919	95
661.123	99
661.326	108
661.53	91
661.733	107
661.936	89
662.14	90
662.343	88
662.546	93
662.75	86
662.953	101
663.156	85
663.36	78
663.563	73
663.766	85
663.969	87
664.173	94
664.376	83
664.579	84
664.782	86
664.985	72
665.188	83
665.391	92
665.594	78
665.797	63
666	88
666.203	73
666.406	66
666.609	83
666.812	79
667.015	74
667.218	81
667.421	90
667.624	87
667.827	94
668.03	79
668.232	74
668.435	88
668.638	81
668.841	81
669.043	80
669.246	80
669.449	89
669.651	82
669.854	77
670.057	75
670.259	75
670.462	77
670.665	84
670.867	89
671.07	83
671.272	84
671.475	86
671.677	90
671.88	76
672.082	75
672.284	87
672.487	80
672.689	81
672.892	69
