Data from NiCl2@0.0625M.TitratingCurve.Agarose3%dH2O.NegLispCup.LampEnergy10.LIBS07252019_HRD10591_18-34-31-577.txt Node
Date: Thu Jul 25 18:34:31 EDT 2019
User: cochatt
Spectrometer: HR+D1059
Trigger mode: 1
Integration Time (sec): 1.000000E-1
Scans to average: 1
Electric dark correction enabled: true
Nonlinearity correction enabled: false
Boxcar width: 0
XAxis mode: Wavelengths
Number of Pixels in Spectrum: 2048
>>>>>Begin Spectral Data<<<<<
223.165	-9
223.4	-9
223.635	-9
223.869	-11
224.104	-26
224.338	-16
224.573	-23
224.808	-7
225.042	-15
225.277	-14
225.511	0
225.746	-3
225.98	17
226.215	19
226.449	17
226.683	28
226.918	20
227.152	23
227.387	36
227.621	38
227.856	49
228.09	52
228.324	43
228.559	60
228.793	71
229.027	139
229.262	132
229.496	154
229.73	158
229.964	162
230.199	167
230.433	164
230.667	170
230.901	169
231.136	180
231.37	173
231.604	186
231.838	178
232.072	187
232.306	184
232.541	169
232.775	189
233.009	193
233.243	182
233.477	196
233.711	202
233.945	208
234.179	198
234.413	211
234.647	188
234.881	186
235.115	181
235.349	206
235.583	196
235.817	209
236.051	216
236.285	205
236.519	203
236.753	201
236.987	210
237.221	212
237.455	209
237.689	227
237.922	203
238.156	233
238.39	225
238.624	205
238.858	222
239.091	226
239.325	238
239.559	247
239.793	251
240.027	234
240.26	245
240.494	248
240.728	236
240.961	262
241.195	246
241.429	262
241.662	278
241.896	268
242.13	264
242.363	292
242.597	298
242.83	279
243.064	281
243.298	282
243.531	292
243.765	289
243.998	288
244.232	284
244.465	304
244.699	301
244.932	308
245.166	298
245.399	316
245.633	325
245.866	327
246.099	332
246.333	321
246.566	317
246.8	324
247.033	320
247.266	331
247.5	335
247.733	343
247.966	330
248.2	350
248.433	347
248.666	338
248.899	344
249.133	351
249.366	373
249.599	352
249.832	348
250.066	380
250.299	362
250.532	367
250.765	369
250.998	387
251.231	374
251.465	358
251.698	388
251.931	396
252.164	389
252.397	401
252.63	397
252.863	408
253.096	412
253.329	397
253.562	385
253.795	392
254.028	407
254.261	394
254.494	403
254.727	398
254.96	415
255.193	412
255.426	416
255.659	428
255.892	441
256.124	446
256.357	417
256.59	435
256.823	432
257.056	441
257.289	442
257.521	427
257.754	469
257.987	457
258.22	461
258.452	459
258.685	462
258.918	451
259.151	456
259.383	452
259.616	465
259.849	488
260.081	459
260.314	476
260.547	467
260.779	484
261.012	468
261.244	466
261.477	482
261.71	473
261.942	481
262.175	499
262.407	504
262.64	494
262.872	490
263.105	514
263.337	508
263.57	512
263.802	526
264.035	530
264.267	520
264.499	520
264.732	513
264.964	526
265.197	521
265.429	545
265.661	535
265.894	533
266.126	546
266.358	529
266.591	541
266.823	553
267.055	539
267.287	569
267.52	563
267.752	543
267.984	558
268.216	576
268.448	538
268.681	560
268.913	536
269.145	571
269.377	587
269.609	553
269.841	580
270.073	589
270.306	564
270.538	562
270.77	577
271.002	592
271.234	579
271.466	593
271.698	592
271.93	575
272.162	582
272.394	602
272.626	627
272.858	610
273.09	608
273.322	617
273.553	624
273.785	610
274.017	636
274.249	637
274.481	634
274.713	600
274.945	632
275.176	596
275.408	644
275.64	655
275.872	632
276.104	637
276.335	652
276.567	638
276.799	642
277.031	659
277.262	644
277.494	662
277.726	648
277.957	694
278.189	667
278.421	656
278.652	673
278.884	678
279.115	697
279.347	676
279.579	678
279.81	681
280.042	690
280.273	693
280.505	702
280.736	728
280.968	702
281.199	696
281.431	719
281.662	700
281.894	737
282.125	735
282.356	745
282.588	726
282.819	702
283.051	713
283.282	715
283.513	732
283.745	736
283.976	732
284.207	725
284.439	736
284.67	740
284.901	780
285.132	771
285.364	752
285.595	766
285.826	740
286.057	773
286.288	757
286.52	764
286.751	800
286.982	762
287.213	777
287.444	774
287.675	760
287.906	778
288.138	790
288.369	817
288.6	808
288.831	782
289.062	782
289.293	785
289.524	765
289.755	784
289.986	789
290.217	792
290.448	789
290.679	800
290.91	792
291.141	811
291.371	804
291.602	777
291.833	798
292.064	796
292.295	798
292.526	834
292.757	824
292.987	808
293.218	817
293.449	848
293.68	816
293.91	802
294.141	830
294.372	812
294.603	832
294.833	821
295.064	835
295.295	836
295.525	826
295.756	816
295.987	840
296.217	835
296.448	841
296.679	855
296.909	841
297.14	827
297.37	844
297.601	862
297.831	870
298.062	868
298.292	864
298.523	869
298.753	865
298.984	857
299.214	873
299.445	884
299.675	889
299.905	885
300.136	887
300.366	881
300.597	888
300.827	910
301.057	906
301.288	930
301.518	907
301.748	898
301.979	938
302.209	930
302.439	954
302.669	924
302.9	905
303.13	910
303.36	920
303.59	946
303.82	917
304.051	913
304.281	907
304.511	939
304.741	932
304.971	920
305.201	911
305.431	926
305.661	908
305.891	922
306.121	959
306.352	933
306.582	912
306.812	909
307.042	926
307.272	901
307.502	893
307.731	899
307.961	909
308.191	923
308.421	887
308.651	918
308.881	892
309.111	900
309.341	928
309.571	937
309.8	939
310.03	917
310.26	921
310.49	915
310.72	933
310.949	900
311.179	948
311.409	917
311.639	930
311.868	968
312.098	956
312.328	956
312.557	948
312.787	948
313.017	961
313.246	1010
313.476	953
313.706	1011
313.935	1001
314.165	986
314.394	985
314.624	986
314.853	999
315.083	1010
315.312	986
315.542	1002
315.771	987
316.001	948
316.23	989
316.46	995
316.689	967
316.919	981
317.148	983
317.377	991
317.607	978
317.836	938
318.065	956
318.295	983
318.524	990
318.753	976
318.983	997
319.212	958
319.441	998
319.67	972
319.9	986
320.129	988
320.358	960
320.587	957
320.816	974
321.046	972
321.275	998
321.504	969
321.733	987
321.962	973
322.191	1008
322.42	996
322.649	991
322.878	1009
323.108	972
323.337	1009
323.566	1003
323.795	1019
324.024	1001
324.253	1017
324.482	1028
324.71	1040
324.939	1003
325.168	1021
325.397	1012
325.626	1064
325.855	1067
326.084	1056
326.313	1085
326.542	1069
326.77	1076
326.999	1061
327.228	1081
327.457	1083
327.686	1075
327.914	1070
328.143	1102
328.372	1068
328.6	1054
328.829	1048
329.058	1089
329.287	1067
329.515	1087
329.744	1092
329.972	1108
330.201	1113
330.43	1155
330.658	1076
330.887	1117
331.115	1108
331.344	1109
331.572	1150
331.801	1158
332.03	1163
332.258	1163
332.486	1211
332.715	1213
332.943	1252
333.172	1290
333.4	1288
333.629	1373
333.857	1403
334.085	1361
334.314	1350
334.542	1335
334.771	1337
334.999	1338
335.227	1354
335.455	1344
335.684	1302
335.912	1338
336.14	1295
336.369	1301
336.597	1274
336.825	1292
337.053	1293
337.281	1223
337.51	1254
337.738	1216
337.966	1204
338.194	1170
338.422	1172
338.65	1158
338.878	1176
339.106	1154
339.334	1201
339.562	1145
339.79	1117
340.018	1107
340.246	1104
340.474	1113
340.702	1106
340.93	1156
341.158	1130
341.386	1136
341.614	1136
341.842	1150
342.07	1123
342.298	1102
342.526	1089
342.754	1109
342.981	1096
343.209	1152
343.437	1148
343.665	1219
343.893	1296
344.12	1326
344.348	1284
344.576	1295
344.804	1198
345.031	1194
345.259	1164
345.487	1141
345.714	1117
345.942	1124
346.17	1105
346.397	1095
346.625	1077
346.853	1062
347.08	1083
347.308	1070
347.535	1072
347.763	1086
347.99	1059
348.218	1055
348.445	1062
348.673	1040
348.9	1098
349.128	1059
349.355	1046
349.583	1052
349.81	1051
350.037	1033
350.265	1040
350.492	1052
350.72	1052
350.947	1047
351.174	1046
351.402	1024
351.629	1048
351.856	1021
352.083	1058
352.311	1018
352.538	1037
352.765	1032
352.992	1028
353.22	1014
353.447	1039
353.674	1008
353.901	1017
354.128	1045
354.355	1016
354.583	1013
354.81	1044
355.037	1026
355.264	1034
355.491	1040
355.718	1053
355.945	1041
356.172	1046
356.399	1022
356.626	1043
356.853	1050
357.08	1065
357.307	1062
357.534	1060
357.761	1041
357.988	1038
358.215	992
358.441	1033
358.668	1000
358.895	1032
359.122	1034
359.349	1065
359.576	1028
359.802	1089
360.029	1070
360.256	1064
360.483	1037
360.709	1042
360.936	1038
361.163	1031
361.39	1033
361.616	1056
361.843	1037
362.07	1027
362.296	1055
362.523	1033
362.749	1033
362.976	1031
363.203	1066
363.429	1059
363.656	1049
363.882	1023
364.109	1047
364.335	1046
364.562	1024
364.788	1032
365.015	1038
365.241	1038
365.468	1020
365.694	1054
365.92	1024
366.147	1034
366.373	1051
366.599	1062
366.826	1014
367.052	1037
367.278	1070
367.505	1044
367.731	1048
367.957	1067
368.184	1052
368.41	1072
368.636	1081
368.862	1046
369.089	1081
369.315	1079
369.541	1076
369.767	1110
369.993	1072
370.219	1144
370.445	1084
370.672	1108
370.898	1123
371.124	1149
371.35	1131
371.576	1130
371.802	1126
372.028	1130
372.254	1120
372.48	1142
372.706	1143
372.932	1172
373.158	1152
373.384	1166
373.61	1167
373.835	1110
374.061	1131
374.287	1132
374.513	1157
374.739	1180
374.965	1227
375.191	1257
375.416	1223
375.642	1210
375.868	1230
376.094	1176
376.319	1144
376.545	1117
376.771	1141
376.997	1131
377.222	1148
377.448	1128
377.674	1125
377.899	1116
378.125	1120
378.35	1119
378.576	1129
378.802	1100
379.027	1131
379.253	1088
379.478	1120
379.704	1145
379.929	1110
380.155	1120
380.38	1095
380.606	1121
380.831	1102
381.057	1155
381.282	1100
381.507	1120
381.733	1173
381.958	1158
382.184	1149
382.409	1156
382.634	1176
382.86	1176
383.085	1182
383.31	1196
383.535	1213
383.761	1226
383.986	1243
384.211	1230
384.436	1271
384.662	1288
384.887	1310
385.112	1304
385.337	1335
385.562	1306
385.787	1355
386.013	1342
386.238	1328
386.463	1337
386.688	1335
386.913	1309
387.138	1344
387.363	1361
387.588	1340
387.813	1347
388.038	1361
388.263	1326
388.488	1365
388.713	1331
388.938	1324
389.163	1290
389.387	1337
389.612	1315
389.837	1314
390.062	1316
390.287	1328
390.512	1338
390.736	1382
390.961	1398
391.186	1369
391.411	1385
391.636	1418
391.86	1471
392.085	1496
392.31	1491
392.534	1486
392.759	1458
392.984	1416
393.208	1399
393.433	1388
393.658	1418
393.882	1437
394.107	1388
394.331	1406
394.556	1401
394.78	1442
395.005	1435
395.229	1448
395.454	1488
395.678	1458
395.903	1487
396.127	1496
396.352	1413
396.576	1443
396.801	1402
397.025	1469
397.249	1453
397.474	1496
397.698	1501
397.922	1518
398.147	1547
398.371	1549
398.595	1600
398.82	1644
399.044	1745
399.268	1857
399.492	2060
399.717	2296
399.941	2256
400.165	2078
400.389	1961
400.613	1873
400.837	1777
401.062	1700
401.286	1700
401.51	1681
401.734	1693
401.958	1656
402.182	1668
402.406	1697
402.63	1696
402.854	1723
403.078	1730
403.302	1752
403.526	1772
403.75	1780
403.974	1815
404.198	1796
404.422	1800
404.645	1822
404.869	1801
405.093	1850
405.317	1809
405.541	1810
405.765	1788
405.988	1767
406.212	1823
406.436	1846
406.66	1852
406.883	1860
407.107	1986
407.331	2017
407.555	2043
407.778	2090
408.002	2038
408.226	2004
408.449	2019
408.673	1946
408.896	1882
409.12	1877
409.344	1883
409.567	1832
409.791	1865
410.014	1799
410.238	1800
410.461	1830
410.685	1823
410.908	1812
411.132	1790
411.355	1742
411.578	1739
411.802	1751
412.025	1749
412.249	1758
412.472	1734
412.695	1709
412.919	1680
413.142	1682
413.365	1655
413.589	1682
413.812	1641
414.035	1675
414.258	1668
414.482	1672
414.705	1672
414.928	1666
415.151	1684
415.374	1668
415.597	1659
415.821	1583
416.044	1600
416.267	1582
416.49	1617
416.713	1590
416.936	1613
417.159	1574
417.382	1592
417.605	1579
417.828	1590
418.051	1605
418.274	1595
418.497	1606
418.72	1627
418.943	1626
419.166	1747
419.389	1830
419.611	1826
419.834	1721
420.057	1650
420.28	1611
420.503	1570
420.726	1554
420.948	1573
421.171	1598
421.394	1580
421.617	1568
421.839	1590
422.062	1584
422.285	1551
422.507	1654
422.73	1638
422.953	1621
423.175	1671
423.398	1618
423.621	1626
423.843	1645
424.066	1637
424.288	1666
424.511	1630
424.733	1635
424.956	1605
425.178	1604
425.401	1603
425.623	1605
425.846	1546
426.068	1554
426.291	1556
426.513	1562
426.735	1544
426.958	1525
427.18	1467
427.402	1522
427.625	1480
427.847	1501
428.069	1460
428.292	1525
428.514	1459
428.736	1450
428.958	1464
429.181	1451
429.403	1437
429.625	1398
429.847	1421
430.069	1409
430.292	1442
430.514	1448
430.736	1438
430.958	1420
431.18	1436
431.402	1447
431.624	1443
431.846	1476
432.068	1470
432.29	1494
432.512	1488
432.734	1493
432.956	1476
433.178	1491
433.4	1468
433.622	1492
433.844	1521
434.066	1539
434.287	1523
434.509	1572
434.731	1604
434.953	1608
435.175	1600
435.397	1644
435.618	1571
435.84	1521
436.062	1473
436.284	1451
436.505	1453
436.727	1497
436.949	1479
437.17	1450
437.392	1437
437.614	1443
437.835	1421
438.057	1421
438.278	1400
438.5	1389
438.721	1400
438.943	1402
439.165	1389
439.386	1414
439.608	1414
439.829	1419
440.05	1437
440.272	1443
440.493	1438
440.715	1411
440.936	1476
441.158	1500
441.379	1523
441.6	1599
441.822	1589
442.043	1588
442.264	1588
442.486	1534
442.707	1558
442.928	1538
443.149	1550
443.371	1562
443.592	1562
443.813	1554
444.034	1563
444.255	1622
444.476	1700
444.698	1716
444.919	1785
445.14	1863
445.361	1730
445.582	1656
445.803	1564
446.024	1509
446.245	1528
446.466	1480
446.687	1427
446.908	1464
447.129	1402
447.35	1375
447.571	1376
447.792	1332
448.013	1382
448.234	1357
448.455	1338
448.675	1304
448.896	1302
449.117	1273
449.338	1328
449.559	1306
449.779	1288
450	1312
450.221	1278
450.442	1301
450.662	1337
450.883	1289
451.104	1317
451.324	1318
451.545	1287
451.766	1320
451.986	1276
452.207	1272
452.428	1278
452.648	1272
452.869	1264
453.089	1257
453.31	1284
453.53	1251
453.751	1254
453.971	1232
454.192	1265
454.412	1222
454.633	1229
454.853	1251
455.073	1229
455.294	1228
455.514	1241
455.734	1215
455.955	1216
456.175	1220
456.395	1192
456.616	1170
456.836	1213
457.056	1226
457.276	1188
457.497	1236
457.717	1222
457.937	1226
458.157	1260
458.377	1244
458.598	1262
458.818	1340
459.038	1381
459.258	1396
459.478	1399
459.698	1480
459.918	1519
460.138	1567
460.358	1610
460.578	1624
460.798	1604
461.018	1639
461.238	1619
461.458	1639
461.678	1665
461.898	1664
462.118	1672
462.338	1712
462.558	1798
462.777	1837
462.997	1950
463.217	2070
463.437	2064
463.657	1928
463.876	1919
464.096	1910
464.316	1821
464.536	1848
464.755	1828
464.975	1749
465.195	1676
465.414	1599
465.634	1517
465.854	1504
466.073	1445
466.293	1447
466.512	1393
466.732	1412
466.951	1377
467.171	1360
467.391	1375
467.61	1374
467.829	1325
468.049	1348
468.268	1320
468.488	1296
468.707	1308
468.927	1317
469.146	1326
469.365	1364
469.585	1349
469.804	1361
470.023	1375
470.243	1397
470.462	1392
470.681	1409
470.901	1416
471.12	1405
471.339	1368
471.558	1374
471.777	1367
471.997	1348
472.216	1336
472.435	1340
472.654	1340
472.873	1318
473.092	1313
473.311	1301
473.53	1294
473.749	1300
473.968	1315
474.187	1300
474.406	1278
474.625	1329
474.844	1296
475.063	1315
475.282	1344
475.501	1296
475.72	1313
475.939	1368
476.158	1366
476.377	1392
476.596	1384
476.814	1400
477.033	1388
477.252	1426
477.471	1475
477.69	1462
477.908	1504
478.127	1545
478.346	1512
478.564	1592
478.783	1581
479.002	1601
479.22	1657
479.439	1640
479.658	1622
479.876	1636
480.095	1666
480.313	1689
480.532	1737
480.751	1722
480.969	1676
481.188	1618
481.406	1635
481.624	1624
481.843	1598
482.061	1573
482.28	1595
482.498	1601
482.717	1596
482.935	1605
483.153	1600
483.372	1628
483.59	1572
483.808	1618
484.027	1642
484.245	1652
484.463	1653
484.681	1698
484.9	1681
485.118	1709
485.336	1740
485.554	1773
485.772	1765
485.99	1719
486.209	1738
486.427	1743
486.645	1694
486.863	1694
487.081	1729
487.299	1736
487.517	1729
487.735	1693
487.953	1691
488.171	1729
488.389	1711
488.607	1686
488.825	1653
489.043	1628
489.261	1672
489.479	1661
489.696	1635
489.914	1662
490.132	1613
490.35	1620
490.568	1611
490.786	1635
491.003	1642
491.221	1629
491.439	1668
491.657	1645
491.874	1646
492.092	1644
492.31	1662
492.527	1659
492.745	1641
492.963	1645
493.18	1654
493.398	1645
493.615	1670
493.833	1666
494.05	1695
494.268	1688
494.485	1681
494.703	1676
494.92	1684
495.138	1666
495.355	1688
495.573	1710
495.79	1676
496.008	1689
496.225	1690
496.442	1750
496.66	1759
496.877	1772
497.094	1805
497.312	1845
497.529	1852
497.746	1904
497.963	1941
498.181	2072
498.398	2081
498.615	2180
498.832	2324
499.049	2431
499.267	2666
499.484	2908
499.701	3114
499.918	3355
500.135	3652
500.352	4032
500.569	4172
500.786	4144
501.003	3958
501.22	3588
501.437	3352
501.654	3026
501.871	2792
502.088	2586
502.305	2441
502.522	2346
502.739	2251
502.956	2112
503.172	2072
503.389	2012
503.606	1921
503.823	1896
504.04	1898
504.256	1878
504.473	1879
504.69	1881
504.907	1813
505.123	1733
505.34	1699
505.557	1627
505.773	1593
505.99	1575
506.207	1549
506.423	1509
506.64	1494
506.856	1479
507.073	1425
507.289	1439
507.506	1435
507.722	1430
507.939	1437
508.155	1394
508.372	1392
508.588	1367
508.805	1363
509.021	1351
509.238	1335
509.454	1342
509.67	1320
509.887	1313
510.103	1316
510.319	1308
510.536	1310
510.752	1308
510.968	1324
511.184	1313
511.401	1319
511.617	1300
511.833	1322
512.049	1288
512.265	1322
512.481	1287
512.698	1302
512.914	1289
513.13	1253
513.346	1289
513.562	1268
513.778	1307
513.994	1319
514.21	1297
514.426	1341
514.642	1314
514.858	1325
515.074	1327
515.29	1361
515.506	1369
515.721	1385
515.937	1382
516.153	1442
516.369	1426
516.585	1453
516.801	1493
517.016	1534
517.232	1632
517.448	1646
517.664	1689
517.879	1696
518.095	1714
518.311	1681
518.527	1605
518.742	1600
518.958	1533
519.173	1490
519.389	1446
519.605	1403
519.82	1372
520.036	1400
520.251	1346
520.467	1297
520.682	1296
520.898	1273
521.113	1293
521.329	1265
521.544	1238
521.76	1241
521.975	1232
522.19	1238
522.406	1235
522.621	1202
522.836	1198
523.052	1195
523.267	1203
523.482	1189
523.698	1191
523.913	1168
524.128	1168
524.343	1169
524.559	1172
524.774	1172
524.989	1152
525.204	1217
525.419	1178
525.634	1159
525.849	1174
526.064	1152
526.28	1158
526.495	1139
526.71	1160
526.925	1152
527.14	1168
527.355	1166
527.57	1144
527.785	1180
527.999	1151
528.214	1174
528.429	1176
528.644	1175
528.859	1128
529.074	1128
529.289	1116
529.503	1143
529.718	1147
529.933	1156
530.148	1141
530.363	1155
530.577	1148
530.792	1139
531.007	1109
531.221	1140
531.436	1154
531.651	1142
531.865	1146
532.08	1117
532.295	1172
532.509	1128
532.724	1146
532.938	1130
533.153	1118
533.367	1128
533.582	1118
533.796	1144
534.011	1118
534.225	1121
534.44	1130
534.654	1110
534.868	1097
535.083	1096
535.297	1138
535.511	1080
535.726	1086
535.94	1096
536.154	1069
536.369	1069
536.583	1065
536.797	1060
537.011	1050
537.225	1031
537.44	1038
537.654	1028
537.868	1039
538.082	1062
538.296	1031
538.51	1031
538.724	1029
538.938	1047
539.153	990
539.367	1047
539.581	1032
539.795	1018
540.009	1001
540.222	1024
540.436	1037
540.65	1036
540.864	1020
541.078	989
541.292	992
541.506	1016
541.72	1017
541.934	1006
542.147	1029
542.361	1024
542.575	1019
542.789	1005
543.002	1024
543.216	985
543.43	1030
543.644	988
543.857	961
544.071	992
544.285	990
544.498	1001
544.712	996
544.925	1013
545.139	979
545.352	1013
545.566	1014
545.779	984
545.993	1014
546.206	1007
546.42	1038
546.633	1052
546.847	1027
547.06	1011
547.274	1022
547.487	1019
547.7	999
547.914	1023
548.127	1004
548.34	1019
548.554	1008
548.767	1035
548.98	1046
549.193	1034
549.407	1046
549.62	1018
549.833	1050
550.046	1021
550.259	1036
550.473	1025
550.686	1043
550.899	993
551.112	974
551.325	1015
551.538	997
551.751	1026
551.964	1026
552.177	1009
552.39	1019
552.603	1046
552.816	1079
553.029	1091
553.242	1102
553.455	1116
553.667	1133
553.88	1069
554.093	1045
554.306	1017
554.519	1024
554.732	1000
554.944	987
555.157	998
555.37	957
555.583	943
555.795	953
556.008	925
556.221	928
556.433	898
556.646	890
556.859	910
557.071	868
557.284	868
557.496	869
557.709	890
557.921	850
558.134	864
558.346	842
558.559	878
558.771	856
558.984	884
559.196	838
559.409	836
559.621	853
559.833	839
560.046	833
560.258	845
560.47	837
560.683	856
560.895	816
561.107	819
561.32	845
561.532	869
561.744	812
561.956	810
562.168	818
562.381	828
562.593	822
562.805	839
563.017	850
563.229	840
563.441	845
563.653	872
563.865	856
564.077	853
564.289	884
564.501	906
564.713	915
564.925	922
565.137	934
565.349	962
565.561	986
565.773	1037
565.985	1052
566.197	1058
566.408	1150
566.62	1228
566.832	1266
567.044	1307
567.255	1336
567.467	1339
567.679	1354
567.891	1463
568.102	1446
568.314	1392
568.526	1291
568.737	1207
568.949	1108
569.161	1066
569.372	990
569.584	948
569.795	921
570.007	894
570.218	874
570.43	893
570.641	868
570.853	837
571.064	877
571.276	858
571.487	794
571.698	781
571.91	776
572.121	772
572.333	801
572.544	731
572.755	732
572.966	729
573.178	715
573.389	687
573.6	716
573.811	698
574.023	704
574.234	675
574.445	669
574.656	672
574.867	688
575.078	661
575.289	668
575.501	654
575.712	665
575.923	660
576.134	660
576.345	643
576.556	653
576.767	667
576.978	641
577.188	621
577.399	644
577.61	616
577.821	636
578.032	621
578.243	620
578.454	613
578.665	614
578.875	611
579.086	608
579.297	596
579.508	616
579.718	609
579.929	596
580.14	611
580.35	595
580.561	584
580.772	576
580.982	588
581.193	579
581.403	588
581.614	610
581.825	571
582.035	572
582.246	571
582.456	570
582.667	553
582.877	576
583.087	569
583.298	597
583.508	581
583.719	592
583.929	585
584.139	562
584.35	562
584.56	555
584.77	553
584.981	564
585.191	566
585.401	560
585.611	550
585.821	568
586.032	564
586.242	560
586.452	583
586.662	558
586.872	557
587.082	549
587.292	574
587.502	562
587.713	550
587.923	542
588.133	539
588.343	533
588.553	538
588.762	547
588.972	562
589.182	554
589.392	529
589.602	553
589.812	560
590.022	557
590.232	553
590.441	530
590.651	572
590.861	562
591.071	563
591.281	562
591.49	576
591.7	569
591.91	566
592.119	595
592.329	554
592.539	626
592.748	642
592.958	663
593.167	638
593.377	653
593.587	663
593.796	638
594.006	664
594.215	668
594.424	651
594.634	658
594.843	630
595.053	601
595.262	588
595.472	597
595.681	562
595.89	562
596.1	542
596.309	558
596.518	522
596.727	549
596.937	518
597.146	511
597.355	499
597.564	486
597.774	483
597.983	475
598.192	484
598.401	465
598.61	466
598.819	481
599.028	467
599.237	480
599.446	459
599.655	475
599.864	464
600.073	463
600.282	458
600.491	462
600.7	449
600.909	461
601.118	460
601.327	453
601.536	462
601.745	435
601.953	433
602.162	444
602.371	433
602.58	440
602.789	445
602.997	455
603.206	429
603.415	437
603.623	450
603.832	417
604.041	423
604.249	432
604.458	419
604.666	423
604.875	424
605.084	420
605.292	415
605.501	406
605.709	408
605.918	414
606.126	430
606.334	409
606.543	423
606.751	416
606.96	416
607.168	420
607.376	397
607.585	398
607.793	401
608.001	412
608.21	390
608.418	406
608.626	417
608.834	402
609.043	418
609.251	398
609.459	387
609.667	394
609.875	393
610.083	398
610.291	401
610.499	376
610.707	379
610.916	406
611.124	396
611.332	395
611.54	380
611.748	393
611.955	390
612.163	408
612.371	386
612.579	385
612.787	388
612.995	412
613.203	395
613.411	385
613.618	386
613.826	391
614.034	380
614.242	380
614.449	389
614.657	368
614.865	386
615.072	381
615.28	403
615.488	388
615.695	384
615.903	387
616.111	388
616.318	403
616.526	406
616.733	378
616.941	385
617.148	382
617.356	391
617.563	384
617.771	391
617.978	358
618.185	381
618.393	373
618.6	376
618.807	372
619.015	370
619.222	369
619.429	365
619.637	358
619.844	355
620.051	377
620.258	355
620.466	354
620.673	333
620.88	350
621.087	354
621.294	357
621.501	362
621.708	367
621.915	350
622.122	376
622.329	366
622.536	359
622.743	347
622.95	365
623.157	345
623.364	353
623.571	350
623.778	345
623.985	341
624.192	340
624.399	326
624.606	342
624.812	339
625.019	341
625.226	332
625.433	334
625.639	317
625.846	321
626.053	333
626.259	316
626.466	326
626.673	318
626.879	316
627.086	345
627.293	336
627.499	326
627.706	321
627.912	311
628.119	316
628.325	314
628.532	317
628.738	302
628.945	302
629.151	301
629.357	294
629.564	314
629.77	326
629.976	285
630.183	304
630.389	295
630.595	309
630.802	312
631.008	297
631.214	292
631.42	310
631.627	316
631.833	280
632.039	276
632.245	283
632.451	286
632.657	302
632.863	291
633.069	301
633.275	293
633.481	292
633.688	290
633.893	290
634.099	288
634.305	271
634.511	285
634.717	277
634.923	287
635.129	284
635.335	287
635.541	287
635.747	257
635.952	284
636.158	286
636.364	272
636.57	281
636.775	266
636.981	283
637.187	288
637.392	275
637.598	251
637.804	264
638.009	264
638.215	273
638.421	259
638.626	282
638.832	272
639.037	265
639.243	268
639.448	263
639.654	243
639.859	237
640.065	250
640.27	244
640.475	252
640.681	254
640.886	266
641.091	246
641.297	269
641.502	256
641.707	274
641.913	262
642.118	268
642.323	276
642.528	254
642.733	266
642.939	246
643.144	260
643.349	244
643.554	252
643.759	250
643.964	243
644.169	274
644.374	254
644.579	252
644.784	242
644.989	278
645.194	251
645.399	258
645.604	256
645.809	265
646.014	278
646.219	268
646.423	256
646.628	261
646.833	247
647.038	262
647.243	271
647.447	260
647.652	284
647.857	276
648.062	301
648.266	285
648.471	288
648.676	286
648.88	275
649.085	280
649.289	269
649.494	269
649.698	273
649.903	277
650.107	276
650.312	264
650.516	266
650.721	251
650.925	276
651.13	236
651.334	267
651.539	249
651.743	242
651.947	265
652.152	247
652.356	250
652.56	239
652.764	247
652.969	248
653.173	250
653.377	244
653.581	258
653.785	245
653.99	234
654.194	265
654.398	247
654.602	267
654.806	267
655.01	268
655.214	274
655.418	297
655.622	301
655.826	298
656.03	314
656.234	354
656.438	374
656.642	384
656.846	356
657.049	301
657.253	285
657.457	265
657.661	214
657.865	216
658.068	182
658.272	181
658.476	189
658.68	180
658.883	146
659.087	146
659.291	154
659.494	139
659.698	122
659.901	123
660.105	117
660.309	125
660.512	131
660.716	105
660.919	100
661.123	111
661.326	99
661.53	101
661.733	102
661.936	103
662.14	102
662.343	104
662.546	81
662.75	88
662.953	85
663.156	88
663.36	83
663.563	84
663.766	75
663.969	84
664.173	90
664.376	97
664.579	82
664.782	90
664.985	82
665.188	78
665.391	98
665.594	69
665.797	62
666	83
666.203	86
666.406	93
666.609	85
666.812	85
667.015	86
667.218	94
667.421	83
667.624	78
667.827	70
668.03	87
668.232	84
668.435	88
668.638	73
668.841	90
669.043	83
669.246	91
669.449	94
669.651	86
669.854	75
670.057	75
670.259	73
670.462	88
670.665	76
670.867	86
671.07	75
671.272	100
671.475	92
671.677	86
671.88	83
672.082	86
672.284	95
672.487	86
672.689	87
672.892	80
