Data from NiCl2@0.25M.TitratingCurve.Agarose3%dH2O.NegLispCup.LampEnergy10.LIBS07252019_HRD10591_18-25-48-573.txt Node
Date: Thu Jul 25 18:25:48 EDT 2019
User: cochatt
Spectrometer: HR+D1059
Trigger mode: 1
Integration Time (sec): 1.000000E-1
Scans to average: 1
Electric dark correction enabled: true
Nonlinearity correction enabled: false
Boxcar width: 0
XAxis mode: Wavelengths
Number of Pixels in Spectrum: 2048
>>>>>Begin Spectral Data<<<<<
223.165	-16
223.4	-16
223.635	-16
223.869	-23
224.104	-18
224.338	-5
224.573	-11
224.808	-14
225.042	-6
225.277	-8
225.511	2
225.746	-6
225.98	18
226.215	-1
226.449	12
226.683	17
226.918	19
227.152	40
227.387	33
227.621	30
227.856	39
228.09	46
228.324	65
228.559	58
228.793	65
229.027	113
229.262	145
229.496	125
229.73	134
229.964	132
230.199	138
230.433	148
230.667	151
230.901	144
231.136	142
231.37	168
231.604	141
231.838	153
232.072	156
232.306	166
232.541	170
232.775	170
233.009	179
233.243	180
233.477	179
233.711	175
233.945	174
234.179	179
234.413	206
234.647	161
234.881	168
235.115	172
235.349	190
235.583	178
235.817	180
236.051	172
236.285	171
236.519	192
236.753	187
236.987	189
237.221	190
237.455	198
237.689	194
237.922	178
238.156	173
238.39	198
238.624	202
238.858	193
239.091	203
239.325	193
239.559	186
239.793	204
240.027	206
240.26	201
240.494	206
240.728	220
240.961	205
241.195	212
241.429	224
241.662	225
241.896	222
242.13	233
242.363	217
242.597	215
242.83	224
243.064	232
243.298	245
243.531	238
243.765	260
243.998	256
244.232	254
244.465	245
244.699	245
244.932	256
245.166	265
245.399	256
245.633	264
245.866	253
246.099	260
246.333	251
246.566	257
246.8	288
247.033	281
247.266	286
247.5	296
247.733	288
247.966	282
248.2	288
248.433	282
248.666	276
248.899	286
249.133	286
249.366	310
249.599	307
249.832	290
250.066	306
250.299	295
250.532	291
250.765	312
250.998	317
251.231	332
251.465	325
251.698	309
251.931	319
252.164	315
252.397	319
252.63	318
252.863	318
253.096	343
253.329	322
253.562	349
253.795	345
254.028	366
254.261	335
254.494	348
254.727	352
254.96	330
255.193	338
255.426	357
255.659	363
255.892	339
256.124	372
256.357	344
256.59	358
256.823	363
257.056	358
257.289	373
257.521	369
257.754	376
257.987	358
258.22	374
258.452	366
258.685	348
258.918	377
259.151	373
259.383	372
259.616	386
259.849	386
260.081	385
260.314	372
260.547	390
260.779	393
261.012	382
261.244	395
261.477	386
261.71	401
261.942	413
262.175	405
262.407	403
262.64	410
262.872	392
263.105	425
263.337	424
263.57	404
263.802	420
264.035	413
264.267	434
264.499	423
264.732	426
264.964	414
265.197	419
265.429	434
265.661	434
265.894	439
266.126	447
266.358	434
266.591	432
266.823	441
267.055	450
267.287	476
267.52	448
267.752	472
267.984	455
268.216	469
268.448	473
268.681	458
268.913	455
269.145	466
269.377	459
269.609	460
269.841	469
270.073	480
270.306	480
270.538	474
270.77	449
271.002	467
271.234	478
271.466	481
271.698	481
271.93	470
272.162	510
272.394	481
272.626	501
272.858	524
273.09	479
273.322	489
273.553	500
273.785	498
274.017	501
274.249	514
274.481	505
274.713	493
274.945	524
275.176	514
275.408	505
275.64	553
275.872	536
276.104	538
276.335	539
276.567	534
276.799	520
277.031	533
277.262	532
277.494	543
277.726	530
277.957	538
278.189	540
278.421	538
278.652	558
278.884	565
279.115	557
279.347	562
279.579	581
279.81	553
280.042	580
280.273	567
280.505	560
280.736	540
280.968	561
281.199	573
281.431	590
281.662	578
281.894	581
282.125	597
282.356	587
282.588	589
282.819	569
283.051	582
283.282	603
283.513	596
283.745	577
283.976	597
284.207	621
284.439	605
284.67	621
284.901	622
285.132	619
285.364	633
285.595	604
285.826	626
286.057	622
286.288	628
286.52	631
286.751	628
286.982	611
287.213	642
287.444	636
287.675	633
287.906	630
288.138	646
288.369	647
288.6	652
288.831	656
289.062	642
289.293	646
289.524	653
289.755	660
289.986	666
290.217	665
290.448	660
290.679	631
290.91	642
291.141	658
291.371	668
291.602	693
291.833	649
292.064	694
292.295	664
292.526	658
292.757	655
292.987	667
293.218	646
293.449	693
293.68	682
293.91	672
294.141	658
294.372	662
294.603	681
294.833	676
295.064	674
295.295	697
295.525	670
295.756	670
295.987	685
296.217	701
296.448	692
296.679	684
296.909	690
297.14	717
297.37	727
297.601	700
297.831	681
298.062	698
298.292	694
298.523	708
298.753	753
298.984	739
299.214	730
299.445	741
299.675	706
299.905	710
300.136	730
300.366	734
300.597	712
300.827	711
301.057	735
301.288	742
301.518	739
301.748	756
301.979	761
302.209	800
302.439	774
302.669	782
302.9	757
303.13	743
303.36	753
303.59	779
303.82	738
304.051	762
304.281	782
304.511	763
304.741	747
304.971	763
305.201	723
305.431	754
305.661	752
305.891	745
306.121	763
306.352	733
306.582	742
306.812	730
307.042	722
307.272	745
307.502	725
307.731	721
307.961	736
308.191	729
308.421	715
308.651	748
308.881	733
309.111	743
309.341	730
309.571	744
309.8	725
310.03	752
310.26	740
310.49	745
310.72	714
310.949	750
311.179	754
311.409	741
311.639	759
311.868	748
312.098	788
312.328	788
312.557	793
312.787	768
313.017	776
313.246	789
313.476	790
313.706	800
313.935	795
314.165	800
314.394	818
314.624	813
314.853	797
315.083	783
315.312	806
315.542	789
315.771	776
316.001	779
316.23	781
316.46	758
316.689	771
316.919	782
317.148	770
317.377	765
317.607	760
317.836	761
318.065	797
318.295	776
318.524	764
318.753	785
318.983	763
319.212	748
319.441	757
319.67	772
319.9	778
320.129	764
320.358	793
320.587	800
320.816	782
321.046	793
321.275	790
321.504	794
321.733	789
321.962	786
322.191	794
322.42	803
322.649	788
322.878	797
323.108	762
323.337	798
323.566	785
323.795	848
324.024	825
324.253	777
324.482	818
324.71	806
324.939	816
325.168	828
325.397	856
325.626	830
325.855	857
326.084	838
326.313	874
326.542	869
326.77	872
326.999	864
327.228	857
327.457	852
327.686	860
327.914	884
328.143	853
328.372	850
328.6	889
328.829	854
329.058	888
329.287	857
329.515	896
329.744	894
329.972	886
330.201	876
330.43	874
330.658	890
330.887	901
331.115	897
331.344	926
331.572	908
331.801	948
332.03	974
332.258	992
332.486	994
332.715	1017
332.943	1036
333.172	1117
333.4	1140
333.629	1152
333.857	1189
334.085	1175
334.314	1178
334.542	1169
334.771	1130
334.999	1085
335.227	1125
335.455	1101
335.684	1108
335.912	1100
336.14	1081
336.369	1063
336.597	1049
336.825	1038
337.053	1028
337.281	1058
337.51	985
337.738	975
337.966	944
338.194	967
338.422	937
338.65	937
338.878	937
339.106	933
339.334	963
339.562	919
339.79	917
340.018	899
340.246	904
340.474	908
340.702	923
340.93	901
341.158	927
341.386	903
341.614	920
341.842	908
342.07	901
342.298	910
342.526	885
342.754	894
342.981	919
343.209	932
343.437	994
343.665	1003
343.893	1082
344.12	1146
344.348	1119
344.576	1053
344.804	956
345.031	978
345.259	927
345.487	925
345.714	925
345.942	892
346.17	872
346.397	869
346.625	862
346.853	855
347.08	857
347.308	862
347.535	853
347.763	876
347.99	848
348.218	863
348.445	889
348.673	880
348.9	845
349.128	856
349.355	861
349.583	867
349.81	857
350.037	828
350.265	856
350.492	849
350.72	821
350.947	813
351.174	854
351.402	863
351.629	860
351.856	835
352.083	843
352.311	831
352.538	843
352.765	834
352.992	812
353.22	809
353.447	809
353.674	817
353.901	831
354.128	842
354.355	829
354.583	793
354.81	842
355.037	852
355.264	826
355.491	830
355.718	819
355.945	842
356.172	861
356.399	837
356.626	848
356.853	850
357.08	817
357.307	856
357.534	843
357.761	856
357.988	861
358.215	822
358.441	817
358.668	827
358.895	809
359.122	826
359.349	824
359.576	835
359.802	834
360.029	790
360.256	844
360.483	836
360.709	872
360.936	830
361.163	840
361.39	845
361.616	822
361.843	846
362.07	888
362.296	834
362.523	818
362.749	836
362.976	828
363.203	824
363.429	816
363.656	844
363.882	821
364.109	838
364.335	845
364.562	858
364.788	837
365.015	822
365.241	837
365.468	832
365.694	822
365.92	833
366.147	842
366.373	853
366.599	817
366.826	807
367.052	826
367.278	841
367.505	855
367.731	840
367.957	842
368.184	824
368.41	813
368.636	857
368.862	859
369.089	845
369.315	869
369.541	853
369.767	848
369.993	868
370.219	847
370.445	887
370.672	896
370.898	886
371.124	907
371.35	896
371.576	877
371.802	883
372.028	912
372.254	920
372.48	885
372.706	931
372.932	930
373.158	944
373.384	936
373.61	926
373.835	934
374.061	888
374.287	912
374.513	927
374.739	927
374.965	992
375.191	1043
375.416	1008
375.642	996
375.868	950
376.094	988
376.319	937
376.545	946
376.771	933
376.997	906
377.222	918
377.448	936
377.674	909
377.899	916
378.125	914
378.35	890
378.576	882
378.802	888
379.027	904
379.253	890
379.478	886
379.704	917
379.929	923
380.155	901
380.38	888
380.606	850
380.831	882
381.057	919
381.282	917
381.507	921
381.733	919
381.958	937
382.184	939
382.409	937
382.634	961
382.86	946
383.085	968
383.31	995
383.535	981
383.761	998
383.986	1019
384.211	1063
384.436	1063
384.662	1087
384.887	1083
385.112	1122
385.337	1100
385.562	1131
385.787	1134
386.013	1147
386.238	1114
386.463	1132
386.688	1138
386.913	1123
387.138	1131
387.363	1097
387.588	1094
387.813	1116
388.038	1107
388.263	1122
388.488	1090
388.713	1123
388.938	1109
389.163	1105
389.387	1117
389.612	1105
389.837	1101
390.062	1046
390.287	1081
390.512	1074
390.736	1088
390.961	1095
391.186	1138
391.411	1184
391.636	1218
391.86	1214
392.085	1263
392.31	1284
392.534	1250
392.759	1256
392.984	1235
393.208	1209
393.433	1192
393.658	1182
393.882	1187
394.107	1177
394.331	1221
394.556	1212
394.78	1190
395.005	1173
395.229	1202
395.454	1244
395.678	1270
395.903	1285
396.127	1270
396.352	1241
396.576	1218
396.801	1191
397.025	1205
397.249	1264
397.474	1268
397.698	1281
397.922	1280
398.147	1306
398.371	1314
398.595	1379
398.82	1410
399.044	1520
399.268	1668
399.492	1899
399.717	2138
399.941	2178
400.165	1977
400.389	1857
400.613	1636
400.837	1531
401.062	1481
401.286	1470
401.51	1414
401.734	1440
401.958	1457
402.182	1473
402.406	1505
402.63	1509
402.854	1521
403.078	1524
403.302	1592
403.526	1586
403.75	1579
403.974	1635
404.198	1617
404.422	1656
404.645	1594
404.869	1611
405.093	1617
405.317	1563
405.541	1602
405.765	1558
405.988	1593
406.212	1574
406.436	1609
406.66	1610
406.883	1648
407.107	1763
407.331	1801
407.555	1853
407.778	1889
408.002	1822
408.226	1788
408.449	1741
408.673	1652
408.896	1637
409.12	1592
409.344	1626
409.567	1624
409.791	1636
410.014	1613
410.238	1592
410.461	1578
410.685	1560
410.908	1507
411.132	1523
411.355	1476
411.578	1475
411.802	1461
412.025	1483
412.249	1492
412.472	1513
412.695	1460
412.919	1425
413.142	1441
413.365	1425
413.589	1439
413.812	1437
414.035	1424
414.258	1404
414.482	1419
414.705	1444
414.928	1443
415.151	1421
415.374	1385
415.597	1404
415.821	1357
416.044	1392
416.267	1357
416.49	1331
416.713	1365
416.936	1356
417.159	1370
417.382	1362
417.605	1339
417.828	1378
418.051	1436
418.274	1403
418.497	1417
418.72	1445
418.943	1409
419.166	1545
419.389	1624
419.611	1585
419.834	1526
420.057	1505
420.28	1451
420.503	1372
420.726	1407
420.948	1356
421.171	1373
421.394	1379
421.617	1378
421.839	1388
422.062	1412
422.285	1379
422.507	1397
422.73	1412
422.953	1425
423.175	1425
423.398	1451
423.621	1451
423.843	1446
424.066	1464
424.288	1464
424.511	1429
424.733	1420
424.956	1421
425.178	1428
425.401	1411
425.623	1407
425.846	1365
426.068	1398
426.291	1318
426.513	1325
426.735	1312
426.958	1302
427.18	1243
427.402	1245
427.625	1266
427.847	1232
428.069	1250
428.292	1243
428.514	1258
428.736	1244
428.958	1242
429.181	1204
429.403	1214
429.625	1193
429.847	1188
430.069	1210
430.292	1184
430.514	1180
430.736	1205
430.958	1220
431.18	1185
431.402	1200
431.624	1184
431.846	1235
432.068	1245
432.29	1275
432.512	1220
432.734	1254
432.956	1201
433.178	1233
433.4	1261
433.622	1250
433.844	1241
434.066	1244
434.287	1248
434.509	1288
434.731	1342
434.953	1371
435.175	1397
435.397	1385
435.618	1322
435.84	1290
436.062	1242
436.284	1225
436.505	1218
436.727	1231
436.949	1240
437.17	1236
437.392	1211
437.614	1214
437.835	1169
438.057	1219
438.278	1158
438.5	1163
438.721	1152
438.943	1215
439.165	1156
439.386	1181
439.608	1199
439.829	1209
440.05	1200
440.272	1230
440.493	1245
440.715	1241
440.936	1259
441.158	1315
441.379	1317
441.6	1393
441.822	1373
442.043	1374
442.264	1352
442.486	1341
442.707	1345
442.928	1324
443.149	1366
443.371	1338
443.592	1356
443.813	1416
444.034	1408
444.255	1453
444.476	1507
444.698	1626
444.919	1630
445.14	1694
445.361	1551
445.582	1453
445.803	1359
446.024	1343
446.245	1290
446.466	1270
446.687	1227
446.908	1230
447.129	1206
447.35	1191
447.571	1218
447.792	1136
448.013	1169
448.234	1130
448.455	1092
448.675	1144
448.896	1153
449.117	1085
449.338	1116
449.559	1097
449.779	1112
450	1089
450.221	1117
450.442	1100
450.662	1099
450.883	1132
451.104	1136
451.324	1150
451.545	1126
451.766	1126
451.986	1114
452.207	1092
452.428	1109
452.648	1139
452.869	1096
453.089	1048
453.31	1093
453.53	1053
453.751	1068
453.971	1063
454.192	1076
454.412	1075
454.633	1080
454.853	1018
455.073	1030
455.294	1073
455.514	1034
455.734	1084
455.955	1006
456.175	1037
456.395	1041
456.616	1032
456.836	1063
457.056	1022
457.276	1011
457.497	1040
457.717	1044
457.937	1058
458.157	1075
458.377	1087
458.598	1104
458.818	1166
459.038	1188
459.258	1206
459.478	1262
459.698	1288
459.918	1346
460.138	1366
460.358	1434
460.578	1432
460.798	1448
461.018	1498
461.238	1449
461.458	1472
461.678	1469
461.898	1495
462.118	1481
462.338	1574
462.558	1644
462.777	1688
462.997	1829
463.217	1911
463.437	1946
463.657	1852
463.876	1770
464.096	1768
464.316	1733
464.536	1728
464.755	1672
464.975	1605
465.195	1520
465.414	1463
465.634	1352
465.854	1334
466.073	1280
466.293	1258
466.512	1220
466.732	1198
466.951	1189
467.171	1147
467.391	1168
467.61	1152
467.829	1136
468.049	1155
468.268	1139
468.488	1113
468.707	1096
468.927	1108
469.146	1130
469.365	1142
469.585	1156
469.804	1148
470.023	1188
470.243	1212
470.462	1202
470.681	1242
470.901	1231
471.12	1204
471.339	1189
471.558	1174
471.777	1178
471.997	1154
472.216	1127
472.435	1149
472.654	1113
472.873	1077
473.092	1101
473.311	1099
473.53	1099
473.749	1093
473.968	1092
474.187	1085
474.406	1078
474.625	1095
474.844	1105
475.063	1091
475.282	1088
475.501	1080
475.72	1105
475.939	1133
476.158	1157
476.377	1130
476.596	1154
476.814	1157
477.033	1137
477.252	1203
477.471	1196
477.69	1245
477.908	1283
478.127	1283
478.346	1347
478.564	1375
478.783	1348
479.002	1413
479.22	1379
479.439	1381
479.658	1386
479.876	1380
480.095	1401
480.313	1458
480.532	1485
480.751	1465
480.969	1465
481.188	1393
481.406	1330
481.624	1303
481.843	1268
482.061	1264
482.28	1269
482.498	1260
482.717	1262
482.935	1257
483.153	1238
483.372	1214
483.59	1213
483.808	1246
484.027	1289
484.245	1273
484.463	1251
484.681	1264
484.9	1284
485.118	1307
485.336	1311
485.554	1325
485.772	1309
485.99	1306
486.209	1301
486.427	1343
486.645	1346
486.863	1382
487.081	1307
487.299	1312
487.517	1293
487.735	1289
487.953	1279
488.171	1304
488.389	1320
488.607	1326
488.825	1306
489.043	1318
489.261	1302
489.479	1298
489.696	1305
489.914	1298
490.132	1315
490.35	1314
490.568	1340
490.786	1326
491.003	1328
491.221	1312
491.439	1320
491.657	1358
491.874	1334
492.092	1319
492.31	1374
492.527	1345
492.745	1390
492.963	1365
493.18	1377
493.398	1403
493.615	1378
493.833	1377
494.05	1393
494.268	1438
494.485	1400
494.703	1414
494.92	1415
495.138	1435
495.355	1396
495.573	1437
495.79	1444
496.008	1467
496.225	1464
496.442	1505
496.66	1485
496.877	1509
497.094	1532
497.312	1581
497.529	1576
497.746	1645
497.963	1690
498.181	1816
498.398	1925
498.615	1992
498.832	2160
499.049	2247
499.267	2509
499.484	2724
499.701	2987
499.918	3359
500.135	3800
500.352	4274
500.569	4353
500.786	4288
501.003	4153
501.22	3766
501.437	3333
501.654	2946
501.871	2676
502.088	2478
502.305	2268
502.522	2155
502.739	2085
502.956	1975
503.172	1855
503.389	1765
503.606	1714
503.823	1710
504.04	1732
504.256	1704
504.473	1716
504.69	1733
504.907	1707
505.123	1624
505.34	1523
505.557	1448
505.773	1424
505.99	1372
506.207	1344
506.423	1306
506.64	1312
506.856	1280
507.073	1265
507.289	1259
507.506	1286
507.722	1227
507.939	1223
508.155	1234
508.372	1219
508.588	1214
508.805	1185
509.021	1171
509.238	1194
509.454	1169
509.67	1178
509.887	1161
510.103	1151
510.319	1124
510.536	1169
510.752	1147
510.968	1125
511.184	1108
511.401	1109
511.617	1123
511.833	1125
512.049	1113
512.265	1110
512.481	1146
512.698	1123
512.914	1084
513.13	1154
513.346	1126
513.562	1128
513.778	1139
513.994	1152
514.21	1146
514.426	1182
514.642	1144
514.858	1186
515.074	1148
515.29	1170
515.506	1224
515.721	1214
515.937	1218
516.153	1279
516.369	1303
516.585	1325
516.801	1341
517.016	1414
517.232	1515
517.448	1558
517.664	1598
517.879	1641
518.095	1624
518.311	1611
518.527	1530
518.742	1468
518.958	1415
519.173	1356
519.389	1300
519.605	1251
519.82	1218
520.036	1216
520.251	1182
520.467	1147
520.682	1151
520.898	1122
521.113	1132
521.329	1151
521.544	1125
521.76	1079
521.975	1085
522.19	1100
522.406	1109
522.621	1046
522.836	1037
523.052	1056
523.267	1052
523.482	1048
523.698	1021
523.913	1030
524.128	1039
524.343	1048
524.559	1038
524.774	1044
524.989	1025
525.204	1047
525.419	1005
525.634	1020
525.849	1026
526.064	1022
526.28	1046
526.495	1029
526.71	1026
526.925	1045
527.14	1026
527.355	1012
527.57	1021
527.785	1026
527.999	981
528.214	991
528.429	1018
528.644	1028
528.859	1005
529.074	1017
529.289	1014
529.503	1002
529.718	1004
529.933	1019
530.148	1001
530.363	1011
530.577	1034
530.792	994
531.007	999
531.221	998
531.436	1005
531.651	1019
531.865	1001
532.08	993
532.295	1052
532.509	1008
532.724	1008
532.938	1018
533.153	1034
533.367	1013
533.582	1009
533.796	1015
534.011	1009
534.225	988
534.44	990
534.654	982
534.868	977
535.083	955
535.297	957
535.511	958
535.726	966
535.94	939
536.154	910
536.369	944
536.583	952
536.797	941
537.011	940
537.225	944
537.44	930
537.654	952
537.868	916
538.082	916
538.296	907
538.51	920
538.724	924
538.938	920
539.153	920
539.367	912
539.581	926
539.795	893
540.009	911
540.222	907
540.436	875
540.65	885
540.864	900
541.078	931
541.292	877
541.506	902
541.72	914
541.934	892
542.147	893
542.361	895
542.575	910
542.789	883
543.002	875
543.216	916
543.43	884
543.644	880
543.857	909
544.071	901
544.285	940
544.498	907
544.712	893
544.925	903
545.139	900
545.352	941
545.566	935
545.779	951
545.993	950
546.206	932
546.42	938
546.633	939
546.847	932
547.06	917
547.274	934
547.487	890
547.7	916
547.914	935
548.127	920
548.34	950
548.554	944
548.767	945
548.98	965
549.193	957
549.407	931
549.62	956
549.833	972
550.046	945
550.259	940
550.473	898
550.686	902
550.899	934
551.112	910
551.325	904
551.538	915
551.751	920
551.964	922
552.177	939
552.39	922
552.603	938
552.816	985
553.029	1009
553.242	1042
553.455	1001
553.667	1061
553.88	1018
554.093	992
554.306	966
554.519	974
554.732	941
554.944	901
555.157	883
555.37	896
555.583	882
555.795	880
556.008	861
556.221	837
556.433	835
556.646	816
556.859	805
557.071	831
557.284	796
557.496	795
557.709	792
557.921	774
558.134	803
558.346	769
558.559	770
558.771	772
558.984	785
559.196	776
559.409	755
559.621	767
559.833	763
560.046	745
560.258	758
560.47	755
560.683	778
560.895	755
561.107	754
561.32	752
561.532	746
561.744	756
561.956	780
562.168	789
562.381	748
562.593	752
562.805	766
563.017	743
563.229	772
563.441	779
563.653	771
563.865	787
564.077	795
564.289	811
564.501	828
564.713	842
564.925	849
565.137	858
565.349	885
565.561	934
565.773	950
565.985	994
566.197	1049
566.408	1133
566.62	1196
566.832	1272
567.044	1314
567.255	1335
567.467	1330
567.679	1426
567.891	1452
568.102	1504
568.314	1429
568.526	1308
568.737	1204
568.949	1105
569.161	1049
569.372	949
569.584	903
569.795	852
570.007	856
570.218	797
570.43	798
570.641	811
570.853	781
571.064	803
571.276	792
571.487	724
571.698	762
571.91	711
572.121	742
572.333	684
572.544	688
572.755	662
572.966	668
573.178	628
573.389	650
573.6	652
573.811	644
574.023	635
574.234	637
574.445	638
574.656	619
574.867	644
575.078	650
575.289	654
575.501	622
575.712	598
575.923	630
576.134	587
576.345	604
576.556	609
576.767	596
576.978	583
577.188	571
577.399	574
577.61	573
577.821	572
578.032	550
578.243	554
578.454	576
578.665	572
578.875	557
579.086	540
579.297	556
579.508	549
579.718	546
579.929	560
580.14	544
580.35	535
580.561	538
580.772	519
580.982	517
581.193	517
581.403	514
581.614	536
581.825	531
582.035	515
582.246	516
582.456	541
582.667	526
582.877	515
583.087	527
583.298	515
583.508	525
583.719	529
583.929	507
584.139	522
584.35	501
584.56	498
584.77	499
584.981	503
585.191	533
585.401	506
585.611	492
585.821	484
586.032	498
586.242	510
586.452	491
586.662	509
586.872	489
587.082	489
587.292	491
587.502	510
587.713	480
587.923	534
588.133	501
588.343	506
588.553	504
588.762	496
588.972	491
589.182	510
589.392	495
589.602	498
589.812	478
590.022	518
590.232	496
590.441	524
590.651	510
590.861	513
591.071	516
591.281	515
591.49	530
591.7	557
591.91	528
592.119	552
592.329	560
592.539	593
592.748	595
592.958	597
593.167	644
593.377	620
593.587	658
593.796	660
594.006	654
594.215	638
594.424	652
594.634	657
594.843	615
595.053	600
595.262	566
595.472	553
595.681	523
595.89	532
596.1	517
596.309	501
596.518	480
596.727	487
596.937	459
597.146	457
597.355	467
597.564	453
597.774	452
597.983	452
598.192	452
598.401	463
598.61	422
598.819	405
599.028	422
599.237	405
599.446	431
599.655	442
599.864	418
600.073	420
600.282	424
600.491	405
600.7	413
600.909	442
601.118	432
601.327	416
601.536	403
601.745	414
601.953	404
602.162	417
602.371	393
602.58	400
602.789	404
602.997	403
603.206	398
603.415	406
603.623	384
603.832	398
604.041	387
604.249	384
604.458	396
604.666	396
604.875	385
605.084	369
605.292	376
605.501	387
605.709	370
605.918	365
606.126	387
606.334	364
606.543	368
606.751	374
606.96	370
607.168	346
607.376	375
607.585	373
607.793	372
608.001	378
608.21	379
608.418	372
608.626	370
608.834	364
609.043	372
609.251	368
609.459	362
609.667	369
609.875	357
610.083	355
610.291	357
610.499	360
610.707	354
610.916	365
611.124	368
611.332	368
611.54	337
611.748	372
611.955	348
612.163	357
612.371	343
612.579	340
612.787	352
612.995	365
613.203	352
613.411	347
613.618	356
613.826	357
614.034	359
614.242	370
614.449	370
614.657	353
614.865	356
615.072	370
615.28	352
615.488	360
615.695	347
615.903	371
616.111	338
616.318	348
616.526	365
616.733	369
616.941	352
617.148	350
617.356	347
617.563	352
617.771	342
617.978	342
618.185	329
618.393	350
618.6	356
618.807	362
619.015	350
619.222	326
619.429	321
619.637	342
619.844	343
620.051	331
620.258	324
620.466	323
620.673	323
620.88	332
621.087	312
621.294	313
621.501	300
621.708	332
621.915	328
622.122	322
622.329	326
622.536	316
622.743	328
622.95	319
623.157	305
623.364	311
623.571	308
623.778	320
623.985	308
624.192	300
624.399	324
624.606	309
624.812	316
625.019	297
625.226	310
625.433	308
625.639	298
625.846	294
626.053	297
626.259	290
626.466	307
626.673	278
626.879	295
627.086	310
627.293	294
627.499	297
627.706	291
627.912	293
628.119	288
628.325	284
628.532	289
628.738	288
628.945	292
629.151	296
629.357	269
629.564	283
629.77	281
629.976	292
630.183	294
630.389	266
630.595	272
630.802	269
631.008	264
631.214	263
631.42	277
631.627	261
631.833	243
632.039	260
632.245	267
632.451	264
632.657	261
632.863	253
633.069	279
633.275	271
633.481	256
633.688	250
633.893	264
634.099	267
634.305	260
634.511	252
634.717	240
634.923	260
635.129	263
635.335	262
635.541	243
635.747	259
635.952	245
636.158	236
636.364	247
636.57	241
636.775	251
636.981	273
637.187	240
637.392	257
637.598	260
637.804	237
638.009	250
638.215	234
638.421	235
638.626	244
638.832	256
639.037	238
639.243	243
639.448	237
639.654	225
639.859	242
640.065	220
640.27	240
640.475	242
640.681	225
640.886	232
641.091	244
641.297	244
641.502	242
641.707	240
641.913	236
642.118	223
642.323	224
642.528	246
642.733	233
642.939	236
643.144	215
643.349	230
643.554	217
643.759	220
643.964	209
644.169	221
644.374	219
644.579	233
644.784	205
644.989	207
645.194	213
645.399	225
645.604	214
645.809	221
646.014	195
646.219	213
646.423	214
646.628	232
646.833	227
647.038	241
647.243	218
647.447	217
647.652	214
647.857	218
648.062	217
648.266	233
648.471	237
648.676	240
648.88	219
649.085	224
649.289	220
649.494	217
649.698	220
649.903	209
650.107	209
650.312	199
650.516	196
650.721	211
650.925	195
651.13	204
651.334	201
651.539	189
651.743	186
651.947	192
652.152	173
652.356	176
652.56	202
652.764	193
652.969	180
653.173	191
653.377	187
653.581	156
653.785	160
653.99	165
654.194	159
654.398	172
654.602	152
654.806	158
655.01	170
655.214	161
655.418	167
655.622	157
655.826	145
656.03	152
656.234	163
656.438	160
656.642	151
656.846	134
657.049	150
657.253	158
657.457	147
657.661	143
657.865	119
658.068	119
658.272	129
658.476	124
658.68	114
658.883	123
659.087	115
659.291	127
659.494	124
659.698	113
659.901	106
660.105	109
660.309	106
660.512	110
660.716	105
660.919	98
661.123	98
661.326	94
661.53	91
661.733	102
661.936	103
662.14	86
662.343	84
662.546	82
662.75	90
662.953	91
663.156	80
663.36	84
663.563	91
663.766	85
663.969	70
664.173	89
664.376	75
664.579	85
664.782	79
664.985	69
665.188	78
665.391	68
665.594	64
665.797	77
666	83
666.203	84
666.406	92
666.609	97
666.812	85
667.015	83
667.218	73
667.421	97
667.624	84
667.827	80
668.03	83
668.232	73
668.435	89
668.638	89
668.841	87
669.043	71
669.246	91
669.449	82
669.651	84
669.854	89
670.057	82
670.259	86
670.462	75
670.665	78
670.867	100
671.07	92
671.272	87
671.475	89
671.677	84
671.88	77
672.082	93
672.284	97
672.487	88
672.689	67
672.892	79
