Data from NiCl2@0.0625M.TitratingCurve.Agarose3%dH2O.NegLispCup.LampEnergy10.LIBS07252019_HRD10591_18-34-04-578.txt Node
Date: Thu Jul 25 18:34:04 EDT 2019
User: cochatt
Spectrometer: HR+D1059
Trigger mode: 1
Integration Time (sec): 1.000000E-1
Scans to average: 1
Electric dark correction enabled: true
Nonlinearity correction enabled: false
Boxcar width: 0
XAxis mode: Wavelengths
Number of Pixels in Spectrum: 2048
>>>>>Begin Spectral Data<<<<<
223.165	-3
223.4	-3
223.635	-3
223.869	-26
224.104	-24
224.338	-37
224.573	-9
224.808	-5
225.042	-9
225.277	-10
225.511	0
225.746	11
225.98	4
226.215	21
226.449	33
226.683	8
226.918	21
227.152	25
227.387	36
227.621	29
227.856	47
228.09	41
228.324	38
228.559	53
228.793	69
229.027	141
229.262	158
229.496	150
229.73	166
229.964	177
230.199	162
230.433	173
230.667	184
230.901	165
231.136	189
231.37	193
231.604	169
231.838	193
232.072	206
232.306	193
232.541	191
232.775	210
233.009	203
233.243	206
233.477	196
233.711	211
233.945	210
234.179	213
234.413	209
234.647	223
234.881	222
235.115	205
235.349	205
235.583	211
235.817	219
236.051	209
236.285	225
236.519	214
236.753	219
236.987	235
237.221	219
237.455	226
237.689	246
237.922	228
238.156	245
238.39	225
238.624	231
238.858	258
239.091	249
239.325	248
239.559	257
239.793	244
240.027	267
240.26	266
240.494	249
240.728	256
240.961	267
241.195	286
241.429	274
241.662	291
241.896	304
242.13	290
242.363	292
242.597	309
242.83	270
243.064	304
243.298	312
243.531	304
243.765	315
243.998	320
244.232	317
244.465	317
244.699	315
244.932	315
245.166	331
245.399	309
245.633	324
245.866	332
246.099	329
246.333	350
246.566	352
246.8	354
247.033	357
247.266	338
247.5	371
247.733	376
247.966	345
248.2	366
248.433	369
248.666	358
248.899	378
249.133	368
249.366	364
249.599	380
249.832	389
250.066	386
250.299	393
250.532	394
250.765	404
250.998	392
251.231	417
251.465	398
251.698	408
251.931	388
252.164	427
252.397	429
252.63	432
252.863	429
253.096	442
253.329	428
253.562	404
253.795	430
254.028	436
254.261	444
254.494	435
254.727	452
254.96	450
255.193	447
255.426	435
255.659	440
255.892	434
256.124	452
256.357	461
256.59	483
256.823	456
257.056	479
257.289	454
257.521	462
257.754	478
257.987	462
258.22	499
258.452	484
258.685	485
258.918	496
259.151	476
259.383	508
259.616	488
259.849	518
260.081	494
260.314	518
260.547	514
260.779	494
261.012	490
261.244	502
261.477	514
261.71	521
261.942	523
262.175	529
262.407	516
262.64	512
262.872	535
263.105	530
263.337	539
263.57	554
263.802	528
264.035	558
264.267	556
264.499	571
264.732	557
264.964	560
265.197	579
265.429	560
265.661	574
265.894	585
266.126	568
266.358	566
266.591	566
266.823	583
267.055	573
267.287	579
267.52	585
267.752	606
267.984	581
268.216	614
268.448	599
268.681	589
268.913	605
269.145	610
269.377	601
269.609	600
269.841	622
270.073	614
270.306	618
270.538	608
270.77	612
271.002	627
271.234	610
271.466	619
271.698	662
271.93	642
272.162	648
272.394	642
272.626	647
272.858	636
273.09	638
273.322	660
273.553	663
273.785	664
274.017	651
274.249	674
274.481	669
274.713	654
274.945	688
275.176	684
275.408	663
275.64	700
275.872	689
276.104	690
276.335	722
276.567	672
276.799	681
277.031	714
277.262	706
277.494	704
277.726	697
277.957	708
278.189	706
278.421	721
278.652	698
278.884	733
279.115	757
279.347	716
279.579	719
279.81	727
280.042	712
280.273	754
280.505	769
280.736	743
280.968	772
281.199	764
281.431	763
281.662	771
281.894	778
282.125	776
282.356	792
282.588	784
282.819	792
283.051	799
283.282	803
283.513	778
283.745	798
283.976	806
284.207	822
284.439	803
284.67	788
284.901	808
285.132	801
285.364	813
285.595	798
285.826	805
286.057	797
286.288	851
286.52	810
286.751	826
286.982	828
287.213	827
287.444	835
287.675	858
287.906	842
288.138	845
288.369	873
288.6	852
288.831	853
289.062	837
289.293	844
289.524	861
289.755	872
289.986	852
290.217	857
290.448	869
290.679	865
290.91	854
291.141	881
291.371	869
291.602	892
291.833	876
292.064	874
292.295	875
292.526	861
292.757	873
292.987	864
293.218	871
293.449	882
293.68	868
293.91	873
294.141	875
294.372	857
294.603	867
294.833	898
295.064	876
295.295	888
295.525	907
295.756	905
295.987	887
296.217	907
296.448	901
296.679	903
296.909	893
297.14	896
297.37	931
297.601	953
297.831	904
298.062	925
298.292	938
298.523	939
298.753	959
298.984	973
299.214	939
299.445	941
299.675	949
299.905	944
300.136	969
300.366	950
300.597	964
300.827	967
301.057	995
301.288	1015
301.518	1026
301.748	993
301.979	1025
302.209	973
302.439	1004
302.669	983
302.9	997
303.13	978
303.36	1032
303.59	986
303.82	979
304.051	982
304.281	1029
304.511	970
304.741	1009
304.971	1015
305.201	1018
305.431	994
305.661	984
305.891	989
306.121	984
306.352	979
306.582	976
306.812	957
307.042	988
307.272	1011
307.502	984
307.731	988
307.961	985
308.191	983
308.421	980
308.651	985
308.881	985
309.111	964
309.341	996
309.571	985
309.8	1012
310.03	995
310.26	1016
310.49	974
310.72	992
310.949	995
311.179	977
311.409	970
311.639	1005
311.868	1005
312.098	1056
312.328	1019
312.557	1043
312.787	1038
313.017	1023
313.246	1030
313.476	1046
313.706	1081
313.935	1036
314.165	1062
314.394	1076
314.624	1084
314.853	1077
315.083	1056
315.312	1054
315.542	1075
315.771	1033
316.001	1043
316.23	1042
316.46	1029
316.689	1049
316.919	1070
317.148	1069
317.377	1053
317.607	1057
317.836	1050
318.065	1041
318.295	1059
318.524	1064
318.753	1040
318.983	1054
319.212	1031
319.441	1046
319.67	1040
319.9	1056
320.129	1064
320.358	1040
320.587	1067
320.816	1048
321.046	1025
321.275	1051
321.504	1064
321.733	1075
321.962	1082
322.191	1083
322.42	1079
322.649	1111
322.878	1072
323.108	1064
323.337	1094
323.566	1075
323.795	1097
324.024	1095
324.253	1112
324.482	1078
324.71	1090
324.939	1104
325.168	1103
325.397	1145
325.626	1132
325.855	1121
326.084	1163
326.313	1154
326.542	1138
326.77	1161
326.999	1102
327.228	1136
327.457	1125
327.686	1124
327.914	1148
328.143	1158
328.372	1132
328.6	1164
328.829	1150
329.058	1122
329.287	1129
329.515	1165
329.744	1173
329.972	1178
330.201	1184
330.43	1183
330.658	1186
330.887	1193
331.115	1206
331.344	1210
331.572	1221
331.801	1227
332.03	1264
332.258	1264
332.486	1305
332.715	1321
332.943	1335
333.172	1391
333.4	1458
333.629	1499
333.857	1497
334.085	1537
334.314	1488
334.542	1477
334.771	1456
334.999	1435
335.227	1470
335.455	1450
335.684	1436
335.912	1415
336.14	1425
336.369	1386
336.597	1411
336.825	1371
337.053	1350
337.281	1352
337.51	1348
337.738	1325
337.966	1346
338.194	1320
338.422	1304
338.65	1248
338.878	1297
339.106	1264
339.334	1241
339.562	1252
339.79	1213
340.018	1207
340.246	1220
340.474	1223
340.702	1216
340.93	1259
341.158	1213
341.386	1218
341.614	1237
341.842	1201
342.07	1198
342.298	1194
342.526	1200
342.754	1208
342.981	1206
343.209	1248
343.437	1263
343.665	1366
343.893	1397
344.12	1430
344.348	1432
344.576	1350
344.804	1312
345.031	1269
345.259	1274
345.487	1265
345.714	1220
345.942	1174
346.17	1184
346.397	1166
346.625	1166
346.853	1126
347.08	1160
347.308	1169
347.535	1177
347.763	1170
347.99	1171
348.218	1173
348.445	1131
348.673	1135
348.9	1142
349.128	1124
349.355	1132
349.583	1122
349.81	1125
350.037	1143
350.265	1088
350.492	1142
350.72	1138
350.947	1101
351.174	1133
351.402	1126
351.629	1128
351.856	1137
352.083	1145
352.311	1109
352.538	1108
352.765	1121
352.992	1109
353.22	1086
353.447	1123
353.674	1103
353.901	1128
354.128	1131
354.355	1097
354.583	1109
354.81	1082
355.037	1081
355.264	1105
355.491	1120
355.718	1078
355.945	1067
356.172	1143
356.399	1140
356.626	1133
356.853	1123
357.08	1098
357.307	1143
357.534	1117
357.761	1120
357.988	1121
358.215	1122
358.441	1112
358.668	1133
358.895	1104
359.122	1099
359.349	1114
359.576	1122
359.802	1111
360.029	1130
360.256	1153
360.483	1133
360.709	1136
360.936	1124
361.163	1096
361.39	1105
361.616	1117
361.843	1103
362.07	1143
362.296	1129
362.523	1136
362.749	1150
362.976	1094
363.203	1144
363.429	1089
363.656	1130
363.882	1124
364.109	1106
364.335	1097
364.562	1137
364.788	1111
365.015	1133
365.241	1125
365.468	1128
365.694	1131
365.92	1138
366.147	1080
366.373	1099
366.599	1123
366.826	1114
367.052	1121
367.278	1112
367.505	1136
367.731	1137
367.957	1102
368.184	1118
368.41	1140
368.636	1126
368.862	1130
369.089	1145
369.315	1166
369.541	1170
369.767	1174
369.993	1158
370.219	1167
370.445	1157
370.672	1206
370.898	1181
371.124	1182
371.35	1217
371.576	1244
371.802	1218
372.028	1207
372.254	1216
372.48	1228
372.706	1219
372.932	1255
373.158	1250
373.384	1236
373.61	1253
373.835	1225
374.061	1232
374.287	1211
374.513	1303
374.739	1314
374.965	1329
375.191	1325
375.416	1312
375.642	1273
375.868	1256
376.094	1264
376.319	1273
376.545	1247
376.771	1238
376.997	1234
377.222	1216
377.448	1217
377.674	1203
377.899	1187
378.125	1232
378.35	1222
378.576	1197
378.802	1209
379.027	1206
379.253	1195
379.478	1216
379.704	1223
379.929	1215
380.155	1212
380.38	1164
380.606	1188
380.831	1183
381.057	1234
381.282	1224
381.507	1225
381.733	1233
381.958	1241
382.184	1235
382.409	1281
382.634	1312
382.86	1267
383.085	1278
383.31	1304
383.535	1321
383.761	1325
383.986	1367
384.211	1371
384.436	1398
384.662	1387
384.887	1430
385.112	1410
385.337	1437
385.562	1430
385.787	1418
386.013	1470
386.238	1466
386.463	1466
386.688	1450
386.913	1451
387.138	1437
387.363	1442
387.588	1445
387.813	1420
388.038	1418
388.263	1445
388.488	1436
388.713	1464
388.938	1446
389.163	1418
389.387	1426
389.612	1430
389.837	1425
390.062	1440
390.287	1478
390.512	1452
390.736	1442
390.961	1493
391.186	1497
391.411	1539
391.636	1569
391.86	1606
392.085	1645
392.31	1640
392.534	1594
392.759	1572
392.984	1548
393.208	1526
393.433	1554
393.658	1552
393.882	1520
394.107	1544
394.331	1587
394.556	1567
394.78	1544
395.005	1537
395.229	1532
395.454	1597
395.678	1637
395.903	1659
396.127	1611
396.352	1561
396.576	1549
396.801	1542
397.025	1571
397.249	1628
397.474	1644
397.698	1617
397.922	1680
398.147	1658
398.371	1708
398.595	1731
398.82	1839
399.044	1920
399.268	2104
399.492	2316
399.717	2549
399.941	2525
400.165	2369
400.389	2207
400.613	2044
400.837	1909
401.062	1881
401.286	1858
401.51	1835
401.734	1826
401.958	1853
402.182	1825
402.406	1868
402.63	1916
402.854	1900
403.078	1879
403.302	1932
403.526	1934
403.75	1963
403.974	2025
404.198	2034
404.422	1971
404.645	2009
404.869	2004
405.093	1964
405.317	1948
405.541	1956
405.765	1975
405.988	1942
406.212	1963
406.436	2018
406.66	2057
406.883	2068
407.107	2140
407.331	2199
407.555	2318
407.778	2338
408.002	2234
408.226	2213
408.449	2172
408.673	2075
408.896	2037
409.12	2008
409.344	2042
409.567	2019
409.791	2026
410.014	2000
410.238	2024
410.461	2015
410.685	1977
410.908	1981
411.132	1946
411.355	1877
411.578	1938
411.802	1864
412.025	1898
412.249	1921
412.472	1936
412.695	1853
412.919	1814
413.142	1802
413.365	1818
413.589	1829
413.812	1806
414.035	1802
414.258	1813
414.482	1805
414.705	1848
414.928	1813
415.151	1824
415.374	1805
415.597	1794
415.821	1750
416.044	1779
416.267	1762
416.49	1749
416.713	1758
416.936	1759
417.159	1756
417.382	1722
417.605	1740
417.828	1713
418.051	1769
418.274	1776
418.497	1750
418.72	1774
418.943	1797
419.166	1891
419.389	2040
419.611	2008
419.834	1896
420.057	1856
420.28	1772
420.503	1730
420.726	1739
420.948	1754
421.171	1733
421.394	1745
421.617	1754
421.839	1798
422.062	1758
422.285	1733
422.507	1810
422.73	1741
422.953	1768
423.175	1799
423.398	1780
423.621	1762
423.843	1835
424.066	1813
424.288	1813
424.511	1777
424.733	1783
424.956	1774
425.178	1797
425.401	1785
425.623	1757
425.846	1688
426.068	1723
426.291	1661
426.513	1699
426.735	1689
426.958	1659
427.18	1597
427.402	1619
427.625	1639
427.847	1577
428.069	1571
428.292	1626
428.514	1600
428.736	1544
428.958	1597
429.181	1576
429.403	1550
429.625	1538
429.847	1524
430.069	1575
430.292	1550
430.514	1510
430.736	1563
430.958	1570
431.18	1532
431.402	1620
431.624	1560
431.846	1583
432.068	1612
432.29	1610
432.512	1591
432.734	1600
432.956	1616
433.178	1635
433.4	1618
433.622	1606
433.844	1691
434.066	1661
434.287	1625
434.509	1696
434.731	1765
434.953	1783
435.175	1794
435.397	1786
435.618	1716
435.84	1675
436.062	1646
436.284	1599
436.505	1560
436.727	1626
436.949	1603
437.17	1620
437.392	1594
437.614	1576
437.835	1532
438.057	1525
438.278	1518
438.5	1476
438.721	1513
438.943	1532
439.165	1504
439.386	1533
439.608	1535
439.829	1552
440.05	1561
440.272	1573
440.493	1534
440.715	1592
440.936	1629
441.158	1660
441.379	1645
441.6	1725
441.822	1740
442.043	1739
442.264	1706
442.486	1692
442.707	1670
442.928	1720
443.149	1709
443.371	1697
443.592	1716
443.813	1761
444.034	1765
444.255	1796
444.476	1828
444.698	1889
444.919	1986
445.14	2074
445.361	1875
445.582	1797
445.803	1714
446.024	1689
446.245	1683
446.466	1613
446.687	1592
446.908	1558
447.129	1536
447.35	1499
447.571	1506
447.792	1461
448.013	1472
448.234	1439
448.455	1431
448.675	1436
448.896	1421
449.117	1380
449.338	1405
449.559	1426
449.779	1419
450	1389
450.221	1398
450.442	1436
450.662	1418
450.883	1411
451.104	1442
451.324	1443
451.545	1405
451.766	1419
451.986	1393
452.207	1372
452.428	1404
452.648	1422
452.869	1376
453.089	1359
453.31	1373
453.53	1350
453.751	1361
453.971	1368
454.192	1344
454.412	1367
454.633	1349
454.853	1345
455.073	1307
455.294	1320
455.514	1312
455.734	1302
455.955	1312
456.175	1314
456.395	1308
456.616	1329
456.836	1343
457.056	1310
457.276	1286
457.497	1360
457.717	1357
457.937	1334
458.157	1400
458.377	1423
458.598	1392
458.818	1488
459.038	1490
459.258	1523
459.478	1588
459.698	1588
459.918	1606
460.138	1702
460.358	1753
460.578	1789
460.798	1809
461.018	1809
461.238	1779
461.458	1815
461.678	1771
461.898	1806
462.118	1815
462.338	1948
462.558	1927
462.777	2040
462.997	2141
463.217	2278
463.437	2294
463.657	2160
463.876	2094
464.096	2109
464.316	2059
464.536	2085
464.755	2004
464.975	1954
465.195	1838
465.414	1772
465.634	1692
465.854	1638
466.073	1610
466.293	1568
466.512	1532
466.732	1524
466.951	1501
467.171	1505
467.391	1481
467.61	1484
467.829	1507
468.049	1446
468.268	1447
468.488	1397
468.707	1424
468.927	1417
469.146	1428
469.365	1422
469.585	1458
469.804	1463
470.023	1512
470.243	1492
470.462	1552
470.681	1507
470.901	1512
471.12	1498
471.339	1497
471.558	1481
471.777	1495
471.997	1460
472.216	1413
472.435	1429
472.654	1427
472.873	1418
473.092	1437
473.311	1451
473.53	1421
473.749	1405
473.968	1385
474.187	1416
474.406	1392
474.625	1425
474.844	1420
475.063	1411
475.282	1419
475.501	1425
475.72	1426
475.939	1481
476.158	1502
476.377	1496
476.596	1525
476.814	1509
477.033	1493
477.252	1552
477.471	1554
477.69	1587
477.908	1633
478.127	1641
478.346	1713
478.564	1709
478.783	1734
479.002	1772
479.22	1773
479.439	1794
479.658	1801
479.876	1796
480.095	1820
480.313	1906
480.532	1860
480.751	1862
480.969	1817
481.188	1806
481.406	1786
481.624	1715
481.843	1706
482.061	1728
482.28	1714
482.498	1737
482.717	1704
482.935	1766
483.153	1731
483.372	1745
483.59	1772
483.808	1777
484.027	1768
484.245	1799
484.463	1816
484.681	1830
484.9	1844
485.118	1856
485.336	1857
485.554	1861
485.772	1921
485.99	1901
486.209	1888
486.427	1891
486.645	1885
486.863	1878
487.081	1909
487.299	1867
487.517	1883
487.735	1872
487.953	1848
488.171	1849
488.389	1822
488.607	1819
488.825	1807
489.043	1785
489.261	1836
489.479	1806
489.696	1803
489.914	1783
490.132	1772
490.35	1844
490.568	1780
490.786	1776
491.003	1770
491.221	1796
491.439	1746
491.657	1783
491.874	1768
492.092	1778
492.31	1753
492.527	1799
492.745	1774
492.963	1781
493.18	1799
493.398	1777
493.615	1803
493.833	1816
494.05	1806
494.268	1832
494.485	1841
494.703	1820
494.92	1834
495.138	1835
495.355	1805
495.573	1892
495.79	1865
496.008	1887
496.225	1920
496.442	1896
496.66	1890
496.877	1918
497.094	1930
497.312	1979
497.529	2010
497.746	2061
497.963	2123
498.181	2181
498.398	2268
498.615	2416
498.832	2545
499.049	2664
499.267	2904
499.484	3114
499.701	3438
499.918	3727
500.135	4188
500.352	4561
500.569	4731
500.786	4662
501.003	4482
501.22	4098
501.437	3696
501.654	3384
501.871	3056
502.088	2852
502.305	2649
502.522	2568
502.739	2479
502.956	2300
503.172	2261
503.389	2157
503.606	2092
503.823	2043
504.04	2067
504.256	2091
504.473	2044
504.69	2062
504.907	2025
505.123	1943
505.34	1867
505.557	1808
505.773	1730
505.99	1680
506.207	1660
506.423	1654
506.64	1653
506.856	1608
507.073	1613
507.289	1590
507.506	1563
507.722	1564
507.939	1551
508.155	1536
508.372	1491
508.588	1503
508.805	1490
509.021	1472
509.238	1487
509.454	1434
509.67	1432
509.887	1457
510.103	1441
510.319	1457
510.536	1426
510.752	1412
510.968	1426
511.184	1426
511.401	1424
511.617	1428
511.833	1378
512.049	1418
512.265	1414
512.481	1396
512.698	1396
512.914	1435
513.13	1436
513.346	1393
513.562	1385
513.778	1442
513.994	1443
514.21	1426
514.426	1431
514.642	1421
514.858	1468
515.074	1465
515.29	1480
515.506	1501
515.721	1482
515.937	1518
516.153	1574
516.369	1578
516.585	1618
516.801	1654
517.016	1727
517.232	1759
517.448	1810
517.664	1866
517.879	1889
518.095	1871
518.311	1850
518.527	1787
518.742	1735
518.958	1662
519.173	1623
519.389	1588
519.605	1565
519.82	1512
520.036	1478
520.251	1462
520.467	1466
520.682	1433
520.898	1430
521.113	1399
521.329	1379
521.544	1359
521.76	1362
521.975	1358
522.19	1352
522.406	1338
522.621	1341
522.836	1324
523.052	1327
523.267	1288
523.482	1298
523.698	1315
523.913	1306
524.128	1277
524.343	1287
524.559	1267
524.774	1265
524.989	1255
525.204	1269
525.419	1264
525.634	1266
525.849	1280
526.064	1283
526.28	1242
526.495	1256
526.71	1258
526.925	1209
527.14	1233
527.355	1233
527.57	1224
527.785	1244
527.999	1265
528.214	1282
528.429	1230
528.644	1243
528.859	1251
529.074	1226
529.289	1246
529.503	1242
529.718	1234
529.933	1240
530.148	1253
530.363	1233
530.577	1204
530.792	1229
531.007	1232
531.221	1236
531.436	1249
531.651	1208
531.865	1230
532.08	1236
532.295	1238
532.509	1244
532.724	1237
532.938	1236
533.153	1254
533.367	1226
533.582	1222
533.796	1241
534.011	1249
534.225	1227
534.44	1203
534.654	1215
534.868	1221
535.083	1198
535.297	1189
535.511	1170
535.726	1229
535.94	1209
536.154	1176
536.369	1175
536.583	1162
536.797	1160
537.011	1139
537.225	1153
537.44	1131
537.654	1148
537.868	1143
538.082	1114
538.296	1144
538.51	1145
538.724	1131
538.938	1130
539.153	1124
539.367	1129
539.581	1125
539.795	1137
540.009	1113
540.222	1088
540.436	1105
540.65	1070
540.864	1094
541.078	1092
541.292	1125
541.506	1094
541.72	1068
541.934	1109
542.147	1098
542.361	1086
542.575	1089
542.789	1108
543.002	1077
543.216	1087
543.43	1078
543.644	1081
543.857	1050
544.071	1092
544.285	1092
544.498	1081
544.712	1078
544.925	1077
545.139	1111
545.352	1153
545.566	1104
545.779	1132
545.993	1127
546.206	1097
546.42	1137
546.633	1098
546.847	1116
547.06	1106
547.274	1125
547.487	1113
547.7	1098
547.914	1090
548.127	1113
548.34	1160
548.554	1133
548.767	1126
548.98	1113
549.193	1110
549.407	1096
549.62	1174
549.833	1165
550.046	1138
550.259	1154
550.473	1123
550.686	1131
550.899	1073
551.112	1059
551.325	1093
551.538	1051
551.751	1076
551.964	1107
552.177	1133
552.39	1123
552.603	1151
552.816	1172
553.029	1196
553.242	1184
553.455	1183
553.667	1192
553.88	1201
554.093	1130
554.306	1156
554.519	1095
554.732	1088
554.944	1052
555.157	1070
555.37	1053
555.583	1055
555.795	1029
556.008	1019
556.221	1011
556.433	999
556.646	954
556.859	969
557.071	968
557.284	951
557.496	973
557.709	963
557.921	956
558.134	927
558.346	971
558.559	918
558.771	936
558.984	922
559.196	910
559.409	904
559.621	924
559.833	921
560.046	924
560.258	923
560.47	908
560.683	931
560.895	925
561.107	896
561.32	901
561.532	931
561.744	912
561.956	904
562.168	919
562.381	936
562.593	951
562.805	925
563.017	916
563.229	912
563.441	929
563.653	941
563.865	921
564.077	957
564.289	970
564.501	957
564.713	992
564.925	992
565.137	985
565.349	1013
565.561	1069
565.773	1096
565.985	1119
566.197	1161
566.408	1238
566.62	1366
566.832	1397
567.044	1414
567.255	1477
567.467	1493
567.679	1538
567.891	1618
568.102	1600
568.314	1511
568.526	1418
568.737	1352
568.949	1230
569.161	1202
569.372	1106
569.584	1053
569.795	1015
570.007	993
570.218	964
570.43	952
570.641	934
570.853	921
571.064	940
571.276	926
571.487	914
571.698	865
571.91	871
572.121	851
572.333	826
572.544	816
572.755	808
572.966	788
573.178	789
573.389	798
573.6	752
573.811	742
574.023	745
574.234	745
574.445	732
574.656	754
574.867	723
575.078	717
575.289	742
575.501	726
575.712	712
575.923	712
576.134	696
576.345	690
576.556	693
576.767	707
576.978	686
577.188	672
577.399	668
577.61	713
577.821	682
578.032	662
578.243	694
578.454	677
578.665	653
578.875	662
579.086	658
579.297	671
579.508	667
579.718	652
579.929	653
580.14	667
580.35	640
580.561	641
580.772	661
580.982	631
581.193	640
581.403	629
581.614	627
581.825	626
582.035	632
582.246	634
582.456	595
582.667	626
582.877	640
583.087	610
583.298	631
583.508	598
583.719	621
583.929	649
584.139	620
584.35	633
584.56	595
584.77	640
584.981	592
585.191	599
585.401	611
585.611	628
585.821	615
586.032	598
586.242	608
586.452	594
586.662	587
586.872	609
587.082	577
587.292	594
587.502	573
587.713	589
587.923	590
588.133	585
588.343	580
588.553	575
588.762	598
588.972	576
589.182	596
589.392	595
589.602	586
589.812	608
590.022	593
590.232	574
590.441	596
590.651	577
590.861	601
591.071	602
591.281	599
591.49	611
591.7	645
591.91	642
592.119	645
592.329	644
592.539	656
592.748	675
592.958	690
593.167	726
593.377	734
593.587	732
593.796	729
594.006	744
594.215	752
594.424	726
594.634	722
594.843	713
595.053	668
595.262	646
595.472	650
595.681	617
595.89	633
596.1	593
596.309	587
596.518	583
596.727	551
596.937	570
597.146	561
597.355	549
597.564	532
597.774	531
597.983	505
598.192	514
598.401	520
598.61	520
598.819	501
599.028	470
599.237	513
599.446	493
599.655	499
599.864	491
600.073	483
600.282	494
600.491	497
600.7	485
600.909	477
601.118	500
601.327	473
601.536	468
601.745	489
601.953	466
602.162	485
602.371	478
602.58	452
602.789	454
602.997	457
603.206	485
603.415	455
603.623	463
603.832	457
604.041	458
604.249	460
604.458	444
604.666	461
604.875	469
605.084	451
605.292	450
605.501	435
605.709	445
605.918	440
606.126	453
606.334	462
606.543	454
606.751	424
606.96	435
607.168	426
607.376	436
607.585	444
607.793	438
608.001	426
608.21	438
608.418	443
608.626	432
608.834	436
609.043	442
609.251	426
609.459	437
609.667	421
609.875	423
610.083	426
610.291	407
610.499	424
610.707	436
610.916	432
611.124	419
611.332	432
611.54	426
611.748	418
611.955	407
612.163	421
612.371	418
612.579	420
612.787	395
612.995	405
613.203	411
613.411	414
613.618	420
613.826	412
614.034	412
614.242	422
614.449	396
614.657	418
614.865	420
615.072	420
615.28	415
615.488	407
615.695	426
615.903	404
616.111	413
616.318	425
616.526	409
616.733	425
616.941	417
617.148	410
617.356	418
617.563	421
617.771	418
617.978	419
618.185	396
618.393	391
618.6	384
618.807	394
619.015	392
619.222	403
619.429	384
619.637	407
619.844	407
620.051	393
620.258	389
620.466	385
620.673	363
620.88	393
621.087	392
621.294	386
621.501	394
621.708	380
621.915	388
622.122	372
622.329	362
622.536	371
622.743	368
622.95	380
623.157	365
623.364	374
623.571	383
623.778	354
623.985	365
624.192	372
624.399	356
624.606	376
624.812	376
625.019	344
625.226	360
625.433	372
625.639	364
625.846	358
626.053	345
626.259	356
626.466	358
626.673	353
626.879	328
627.086	341
627.293	352
627.499	353
627.706	343
627.912	341
628.119	338
628.325	364
628.532	347
628.738	322
628.945	341
629.151	331
629.357	326
629.564	337
629.77	332
629.976	323
630.183	325
630.389	341
630.595	318
630.802	323
631.008	322
631.214	317
631.42	318
631.627	315
631.833	316
632.039	316
632.245	313
632.451	310
632.657	307
632.863	312
633.069	313
633.275	325
633.481	322
633.688	318
633.893	312
634.099	314
634.305	312
634.511	299
634.717	312
634.923	316
635.129	305
635.335	306
635.541	295
635.747	299
635.952	278
636.158	299
636.364	308
636.57	330
636.775	293
636.981	282
637.187	303
637.392	285
637.598	291
637.804	278
638.009	290
638.215	283
638.421	283
638.626	271
638.832	267
639.037	285
639.243	282
639.448	289
639.654	282
639.859	281
640.065	285
640.27	275
640.475	285
640.681	293
640.886	290
641.091	269
641.297	284
641.502	265
641.707	283
641.913	299
642.118	292
642.323	302
642.528	273
642.733	276
642.939	261
643.144	268
643.349	276
643.554	280
643.759	266
643.964	275
644.169	275
644.374	268
644.579	274
644.784	278
644.989	275
645.194	286
645.399	278
645.604	273
645.809	294
646.014	265
646.219	269
646.423	275
646.628	275
646.833	308
647.038	270
647.243	277
647.447	291
647.652	301
647.857	288
648.062	302
648.266	312
648.471	299
648.676	297
648.88	306
649.085	300
649.289	295
649.494	311
649.698	285
649.903	285
650.107	297
650.312	288
650.516	278
650.721	294
650.925	286
651.13	262
651.334	265
651.539	294
651.743	283
651.947	269
652.152	277
652.356	262
652.56	249
652.764	265
652.969	274
653.173	253
653.377	261
653.581	257
653.785	255
653.99	276
654.194	254
654.398	286
654.602	262
654.806	274
655.01	279
655.214	296
655.418	289
655.622	311
655.826	342
656.03	344
656.234	388
656.438	371
656.642	382
656.846	369
657.049	325
657.253	282
657.457	266
657.661	240
657.865	217
658.068	205
658.272	193
658.476	167
658.68	156
658.883	161
659.087	145
659.291	157
659.494	131
659.698	146
659.901	125
660.105	125
660.309	132
660.512	125
660.716	108
660.919	118
661.123	120
661.326	108
661.53	92
661.733	101
661.936	100
662.14	90
662.343	92
662.546	76
662.75	95
662.953	88
663.156	81
663.36	96
663.563	91
663.766	76
663.969	78
664.173	83
664.376	73
664.579	94
664.782	80
664.985	97
665.188	91
665.391	89
665.594	82
665.797	90
666	74
666.203	80
666.406	79
666.609	72
666.812	87
667.015	88
667.218	79
667.421	81
667.624	84
667.827	85
668.03	89
668.232	87
668.435	77
668.638	93
668.841	83
669.043	95
669.246	89
669.449	81
669.651	81
669.854	90
670.057	89
670.259	89
670.462	70
670.665	72
670.867	74
671.07	89
671.272	82
671.475	94
671.677	90
671.88	84
672.082	86
672.284	86
672.487	71
672.689	85
672.892	80
