Data from NiCl2@0.5M.TitratingCurve.Agarose3%dH2O.NegLispCup.LampEnergy10.LIBS07252019_HRD10591_18-21-01-572.txt Node
Date: Thu Jul 25 18:21:01 EDT 2019
User: cochatt
Spectrometer: HR+D1059
Trigger mode: 1
Integration Time (sec): 1.000000E-1
Scans to average: 1
Electric dark correction enabled: true
Nonlinearity correction enabled: false
Boxcar width: 0
XAxis mode: Wavelengths
Number of Pixels in Spectrum: 2048
>>>>>Begin Spectral Data<<<<<
223.165	-15
223.4	-15
223.635	-15
223.869	-21
224.104	-30
224.338	-6
224.573	-2
224.808	-24
225.042	-5
225.277	-3
225.511	5
225.746	3
225.98	8
226.215	3
226.449	10
226.683	25
226.918	25
227.152	27
227.387	40
227.621	34
227.856	34
228.09	29
228.324	31
228.559	49
228.793	85
229.027	128
229.262	135
229.496	145
229.73	169
229.964	177
230.199	184
230.433	185
230.667	185
230.901	182
231.136	171
231.37	167
231.604	187
231.838	198
232.072	201
232.306	182
232.541	185
232.775	185
233.009	179
233.243	187
233.477	179
233.711	187
233.945	184
234.179	194
234.413	198
234.647	187
234.881	216
235.115	208
235.349	182
235.583	194
235.817	192
236.051	206
236.285	202
236.519	204
236.753	198
236.987	209
237.221	207
237.455	193
237.689	206
237.922	221
238.156	206
238.39	209
238.624	208
238.858	210
239.091	212
239.325	213
239.559	238
239.793	254
240.027	257
240.26	245
240.494	235
240.728	238
240.961	244
241.195	236
241.429	254
241.662	261
241.896	280
242.13	271
242.363	246
242.597	266
242.83	245
243.064	263
243.298	270
243.531	286
243.765	293
243.998	285
244.232	266
244.465	280
244.699	267
244.932	279
245.166	297
245.399	280
245.633	287
245.866	304
246.099	299
246.333	310
246.566	288
246.8	290
247.033	301
247.266	296
247.5	286
247.733	303
247.966	302
248.2	315
248.433	318
248.666	322
248.899	331
249.133	324
249.366	334
249.599	338
249.832	334
250.066	356
250.299	341
250.532	329
250.765	342
250.998	330
251.231	371
251.465	367
251.698	386
251.931	358
252.164	352
252.397	358
252.63	355
252.863	371
253.096	365
253.329	351
253.562	378
253.795	355
254.028	377
254.261	375
254.494	395
254.727	382
254.96	373
255.193	366
255.426	395
255.659	388
255.892	389
256.124	402
256.357	403
256.59	411
256.823	386
257.056	406
257.289	402
257.521	415
257.754	415
257.987	403
258.22	409
258.452	419
258.685	427
258.918	436
259.151	434
259.383	442
259.616	434
259.849	446
260.081	434
260.314	447
260.547	437
260.779	441
261.012	432
261.244	436
261.477	438
261.71	455
261.942	458
262.175	442
262.407	442
262.64	465
262.872	466
263.105	453
263.337	468
263.57	465
263.802	481
264.035	471
264.267	466
264.499	473
264.732	499
264.964	495
265.197	479
265.429	488
265.661	516
265.894	500
266.126	476
266.358	507
266.591	516
266.823	511
267.055	509
267.287	478
267.52	503
267.752	518
267.984	527
268.216	511
268.448	522
268.681	513
268.913	504
269.145	510
269.377	508
269.609	549
269.841	542
270.073	554
270.306	533
270.538	523
270.77	539
271.002	540
271.234	551
271.466	520
271.698	541
271.93	541
272.162	555
272.394	535
272.626	559
272.858	569
273.09	557
273.322	559
273.553	550
273.785	561
274.017	549
274.249	583
274.481	578
274.713	571
274.945	578
275.176	579
275.408	590
275.64	583
275.872	592
276.104	621
276.335	609
276.567	616
276.799	603
277.031	612
277.262	621
277.494	590
277.726	637
277.957	647
278.189	622
278.421	624
278.652	623
278.884	635
279.115	626
279.347	651
279.579	633
279.81	641
280.042	639
280.273	629
280.505	652
280.736	628
280.968	639
281.199	678
281.431	687
281.662	657
281.894	663
282.125	665
282.356	641
282.588	675
282.819	673
283.051	669
283.282	661
283.513	696
283.745	680
283.976	688
284.207	691
284.439	706
284.67	709
284.901	705
285.132	715
285.364	720
285.595	720
285.826	710
286.057	704
286.288	717
286.52	737
286.751	722
286.982	716
287.213	727
287.444	735
287.675	742
287.906	742
288.138	731
288.369	712
288.6	741
288.831	754
289.062	727
289.293	744
289.524	734
289.755	743
289.986	737
290.217	738
290.448	731
290.679	744
290.91	719
291.141	751
291.371	766
291.602	747
291.833	742
292.064	728
292.295	751
292.526	735
292.757	758
292.987	759
293.218	751
293.449	736
293.68	755
293.91	785
294.141	769
294.372	740
294.603	767
294.833	763
295.064	756
295.295	784
295.525	782
295.756	775
295.987	775
296.217	784
296.448	804
296.679	774
296.909	749
297.14	786
297.37	804
297.601	791
297.831	827
298.062	810
298.292	815
298.523	862
298.753	841
298.984	833
299.214	815
299.445	816
299.675	836
299.905	847
300.136	851
300.366	873
300.597	868
300.827	893
301.057	867
301.288	873
301.518	913
301.748	879
301.979	885
302.209	891
302.439	877
302.669	870
302.9	876
303.13	881
303.36	890
303.59	845
303.82	841
304.051	853
304.281	893
304.511	857
304.741	881
304.971	877
305.201	901
305.431	901
305.661	917
305.891	889
306.121	885
306.352	853
306.582	839
306.812	858
307.042	831
307.272	847
307.502	849
307.731	877
307.961	879
308.191	868
308.421	849
308.651	872
308.881	861
309.111	854
309.341	871
309.571	873
309.8	895
310.03	885
310.26	913
310.49	913
310.72	888
310.949	882
311.179	877
311.409	909
311.639	892
311.868	867
312.098	900
312.328	888
312.557	929
312.787	909
313.017	926
313.246	927
313.476	924
313.706	958
313.935	951
314.165	931
314.394	912
314.624	915
314.853	914
315.083	913
315.312	951
315.542	915
315.771	935
316.001	935
316.23	894
316.46	907
316.689	926
316.919	931
317.148	926
317.377	935
317.607	914
317.836	934
318.065	918
318.295	925
318.524	912
318.753	938
318.983	926
319.212	894
319.441	908
319.67	918
319.9	918
320.129	923
320.358	910
320.587	933
320.816	925
321.046	938
321.275	920
321.504	912
321.733	930
321.962	959
322.191	962
322.42	946
322.649	946
322.878	954
323.108	948
323.337	964
323.566	951
323.795	977
324.024	947
324.253	958
324.482	971
324.71	971
324.939	981
325.168	1002
325.397	941
325.626	1005
325.855	1011
326.084	1005
326.313	982
326.542	963
326.77	1013
326.999	977
327.228	986
327.457	990
327.686	994
327.914	1007
328.143	1007
328.372	1023
328.6	1035
328.829	1009
329.058	1009
329.287	1005
329.515	985
329.744	992
329.972	1042
330.201	1024
330.43	1041
330.658	1043
330.887	1021
331.115	1034
331.344	1075
331.572	1040
331.801	1099
332.03	1105
332.258	1110
332.486	1156
332.715	1169
332.943	1155
333.172	1214
333.4	1182
333.629	1246
333.857	1253
334.085	1265
334.314	1253
334.542	1265
334.771	1258
334.999	1271
335.227	1251
335.455	1298
335.684	1255
335.912	1248
336.14	1265
336.369	1252
336.597	1261
336.825	1250
337.053	1255
337.281	1251
337.51	1196
337.738	1201
337.966	1167
338.194	1182
338.422	1164
338.65	1143
338.878	1110
339.106	1157
339.334	1158
339.562	1175
339.79	1093
340.018	1079
340.246	1055
340.474	1077
340.702	1074
340.93	1077
341.158	1069
341.386	1140
341.614	1155
341.842	1162
342.07	1072
342.298	1068
342.526	1079
342.754	1121
342.981	1070
343.209	1081
343.437	1113
343.665	1161
343.893	1237
344.12	1203
344.348	1225
344.576	1220
344.804	1176
345.031	1141
345.259	1149
345.487	1135
345.714	1103
345.942	1123
346.17	1124
346.397	1153
346.625	1058
346.853	1039
347.08	1027
347.308	1045
347.535	1055
347.763	1030
347.99	1030
348.218	998
348.445	1001
348.673	999
348.9	1022
349.128	1034
349.355	1036
349.583	1055
349.81	986
350.037	977
350.265	965
350.492	992
350.72	971
350.947	952
351.174	1020
351.402	1053
351.629	1050
351.856	1016
352.083	994
352.311	1002
352.538	1058
352.765	1089
352.992	1024
353.22	977
353.447	971
353.674	949
353.901	980
354.128	990
354.355	950
354.583	960
354.81	928
355.037	937
355.264	948
355.491	964
355.718	949
355.945	951
356.172	995
356.399	959
356.626	1023
356.853	1074
357.08	1010
357.307	999
357.534	992
357.761	985
357.988	963
358.215	981
358.441	940
358.668	964
358.895	937
359.122	960
359.349	957
359.576	961
359.802	989
360.029	1006
360.256	987
360.483	948
360.709	992
360.936	970
361.163	986
361.39	975
361.616	994
361.843	1013
362.07	1061
362.296	1045
362.523	957
362.749	957
362.976	977
363.203	985
363.429	947
363.656	960
363.882	953
364.109	960
364.335	955
364.562	953
364.788	957
365.015	981
365.241	945
365.468	960
365.694	954
365.92	947
366.147	962
366.373	958
366.599	973
366.826	968
367.052	966
367.278	965
367.505	975
367.731	962
367.957	962
368.184	955
368.41	992
368.636	982
368.862	981
369.089	985
369.315	963
369.541	976
369.767	965
369.993	967
370.219	992
370.445	990
370.672	1024
370.898	1025
371.124	1037
371.35	1053
371.576	1054
371.802	1029
372.028	1041
372.254	1026
372.48	1058
372.706	1074
372.932	1058
373.158	1075
373.384	1037
373.61	1034
373.835	1047
374.061	1015
374.287	1043
374.513	1034
374.739	1089
374.965	1099
375.191	1120
375.416	1117
375.642	1098
375.868	1063
376.094	1096
376.319	1034
376.545	1061
376.771	1043
376.997	1032
377.222	1031
377.448	1000
377.674	1048
377.899	1018
378.125	1028
378.35	1021
378.576	1043
378.802	1010
379.027	1013
379.253	994
379.478	1000
379.704	1028
379.929	1019
380.155	1014
380.38	1009
380.606	982
380.831	1024
381.057	1062
381.282	1022
381.507	1044
381.733	1019
381.958	1048
382.184	1025
382.409	1052
382.634	1046
382.86	1069
383.085	1069
383.31	1081
383.535	1100
383.761	1091
383.986	1105
384.211	1111
384.436	1134
384.662	1134
384.887	1191
385.112	1162
385.337	1182
385.562	1189
385.787	1191
386.013	1199
386.238	1227
386.463	1206
386.688	1210
386.913	1192
387.138	1229
387.363	1203
387.588	1239
387.813	1236
388.038	1222
388.263	1225
388.488	1215
388.713	1206
388.938	1218
389.163	1190
389.387	1210
389.612	1205
389.837	1226
390.062	1223
390.287	1200
390.512	1183
390.736	1236
390.961	1253
391.186	1294
391.411	1247
391.636	1308
391.86	1333
392.085	1341
392.31	1338
392.534	1340
392.759	1318
392.984	1297
393.208	1293
393.433	1309
393.658	1287
393.882	1291
394.107	1276
394.331	1287
394.556	1262
394.78	1302
395.005	1291
395.229	1296
395.454	1309
395.678	1374
395.903	1346
396.127	1351
396.352	1314
396.576	1300
396.801	1287
397.025	1348
397.249	1337
397.474	1366
397.698	1374
397.922	1418
398.147	1386
398.371	1429
398.595	1514
398.82	1531
399.044	1569
399.268	1691
399.492	1849
399.717	2006
399.941	2013
400.165	1871
400.389	1831
400.613	1749
400.837	1619
401.062	1587
401.286	1532
401.51	1529
401.734	1499
401.958	1584
402.182	1568
402.406	1560
402.63	1588
402.854	1581
403.078	1552
403.302	1569
403.526	1551
403.75	1581
403.974	1619
404.198	1611
404.422	1606
404.645	1596
404.869	1617
405.093	1632
405.317	1616
405.541	1639
405.765	1642
405.988	1655
406.212	1650
406.436	1697
406.66	1681
406.883	1695
407.107	1767
407.331	1814
407.555	1913
407.778	1896
408.002	1848
408.226	1831
408.449	1813
408.673	1764
408.896	1717
409.12	1683
409.344	1743
409.567	1671
409.791	1665
410.014	1686
410.238	1671
410.461	1663
410.685	1626
410.908	1650
411.132	1621
411.355	1571
411.578	1570
411.802	1587
412.025	1600
412.249	1621
412.472	1594
412.695	1598
412.919	1537
413.142	1572
413.365	1545
413.589	1575
413.812	1539
414.035	1537
414.258	1545
414.482	1510
414.705	1519
414.928	1529
415.151	1529
415.374	1516
415.597	1509
415.821	1482
416.044	1486
416.267	1489
416.49	1493
416.713	1467
416.936	1491
417.159	1458
417.382	1462
417.605	1472
417.828	1499
418.051	1469
418.274	1501
418.497	1494
418.72	1492
418.943	1489
419.166	1637
419.389	1718
419.611	1655
419.834	1610
420.057	1551
420.28	1557
420.503	1501
420.726	1505
420.948	1450
421.171	1475
421.394	1444
421.617	1515
421.839	1496
422.062	1504
422.285	1463
422.507	1495
422.73	1476
422.953	1495
423.175	1478
423.398	1525
423.621	1518
423.843	1505
424.066	1536
424.288	1488
424.511	1509
424.733	1489
424.956	1491
425.178	1452
425.401	1478
425.623	1482
425.846	1439
426.068	1430
426.291	1447
426.513	1452
426.735	1407
426.958	1446
427.18	1420
427.402	1407
427.625	1411
427.847	1403
428.069	1384
428.292	1405
428.514	1357
428.736	1350
428.958	1395
429.181	1373
429.403	1373
429.625	1362
429.847	1350
430.069	1355
430.292	1353
430.514	1351
430.736	1352
430.958	1352
431.18	1335
431.402	1340
431.624	1360
431.846	1391
432.068	1394
432.29	1380
432.512	1393
432.734	1386
432.956	1367
433.178	1393
433.4	1415
433.622	1438
433.844	1411
434.066	1403
434.287	1411
434.509	1413
434.731	1481
434.953	1494
435.175	1537
435.397	1519
435.618	1487
435.84	1405
436.062	1429
436.284	1419
436.505	1404
436.727	1376
436.949	1380
437.17	1415
437.392	1405
437.614	1351
437.835	1299
438.057	1328
438.278	1346
438.5	1331
438.721	1331
438.943	1358
439.165	1340
439.386	1351
439.608	1360
439.829	1342
440.05	1374
440.272	1419
440.493	1384
440.715	1401
440.936	1411
441.158	1445
441.379	1468
441.6	1541
441.822	1482
442.043	1502
442.264	1497
442.486	1483
442.707	1476
442.928	1481
443.149	1466
443.371	1492
443.592	1547
443.813	1557
444.034	1522
444.255	1552
444.476	1638
444.698	1654
444.919	1711
445.14	1781
445.361	1647
445.582	1540
445.803	1497
446.024	1442
446.245	1449
446.466	1434
446.687	1408
446.908	1419
447.129	1387
447.35	1333
447.571	1346
447.792	1311
448.013	1295
448.234	1284
448.455	1283
448.675	1314
448.896	1301
449.117	1279
449.338	1269
449.559	1257
449.779	1282
450	1283
450.221	1270
450.442	1254
450.662	1255
450.883	1318
451.104	1317
451.324	1291
451.545	1264
451.766	1258
451.986	1291
452.207	1294
452.428	1243
452.648	1257
452.869	1253
453.089	1239
453.31	1284
453.53	1227
453.751	1205
453.971	1186
454.192	1227
454.412	1224
454.633	1228
454.853	1214
455.073	1172
455.294	1221
455.514	1195
455.734	1227
455.955	1199
456.175	1204
456.395	1159
456.616	1187
456.836	1160
457.056	1210
457.276	1170
457.497	1199
457.717	1211
457.937	1228
458.157	1229
458.377	1252
458.598	1245
458.818	1294
459.038	1309
459.258	1366
459.478	1401
459.698	1482
459.918	1479
460.138	1506
460.358	1598
460.578	1583
460.798	1611
461.018	1669
461.238	1610
461.458	1601
461.678	1570
461.898	1637
462.118	1636
462.338	1719
462.558	1761
462.777	1787
462.997	1911
463.217	1973
463.437	1992
463.657	1930
463.876	1852
464.096	1825
464.316	1809
464.536	1835
464.755	1725
464.975	1653
465.195	1606
465.414	1598
465.634	1505
465.854	1457
466.073	1396
466.293	1449
466.512	1400
466.732	1371
466.951	1349
467.171	1359
467.391	1340
467.61	1329
467.829	1326
468.049	1318
468.268	1297
468.488	1262
468.707	1311
468.927	1305
469.146	1300
469.365	1345
469.585	1332
469.804	1339
470.023	1347
470.243	1350
470.462	1347
470.681	1358
470.901	1373
471.12	1358
471.339	1303
471.558	1322
471.777	1347
471.997	1341
472.216	1301
472.435	1318
472.654	1313
472.873	1277
473.092	1256
473.311	1288
473.53	1281
473.749	1269
473.968	1259
474.187	1234
474.406	1301
474.625	1293
474.844	1272
475.063	1289
475.282	1319
475.501	1321
475.72	1293
475.939	1326
476.158	1332
476.377	1317
476.596	1306
476.814	1335
477.033	1402
477.252	1411
477.471	1407
477.69	1448
477.908	1470
478.127	1500
478.346	1467
478.564	1516
478.783	1558
479.002	1602
479.22	1639
479.439	1637
479.658	1573
479.876	1605
480.095	1589
480.313	1666
480.532	1625
480.751	1696
480.969	1627
481.188	1620
481.406	1555
481.624	1543
481.843	1495
482.061	1538
482.28	1503
482.498	1515
482.717	1512
482.935	1500
483.153	1538
483.372	1562
483.59	1581
483.808	1535
484.027	1533
484.245	1525
484.463	1531
484.681	1536
484.9	1575
485.118	1562
485.336	1535
485.554	1578
485.772	1606
485.99	1616
486.209	1591
486.427	1583
486.645	1582
486.863	1622
487.081	1566
487.299	1627
487.517	1578
487.735	1570
487.953	1582
488.171	1571
488.389	1567
488.607	1575
488.825	1541
489.043	1562
489.261	1553
489.479	1554
489.696	1518
489.914	1559
490.132	1582
490.35	1557
490.568	1589
490.786	1554
491.003	1590
491.221	1631
491.439	1550
491.657	1593
491.874	1642
492.092	1595
492.31	1631
492.527	1622
492.745	1617
492.963	1592
493.18	1616
493.398	1648
493.615	1608
493.833	1617
494.05	1627
494.268	1671
494.485	1720
494.703	1681
494.92	1672
495.138	1673
495.355	1648
495.573	1631
495.79	1683
496.008	1690
496.225	1681
496.442	1748
496.66	1775
496.877	1813
497.094	1805
497.312	1816
497.529	1869
497.746	1955
497.963	2022
498.181	2040
498.398	2147
498.615	2277
498.832	2336
499.049	2487
499.267	2683
499.484	2852
499.701	3013
499.918	3269
500.135	3545
500.352	3783
500.569	3958
500.786	3915
501.003	3805
501.22	3504
501.437	3280
501.654	3005
501.871	2819
502.088	2614
502.305	2511
502.522	2396
502.739	2272
502.956	2151
503.172	2080
503.389	2038
503.606	1949
503.823	1942
504.04	1899
504.256	1879
504.473	1867
504.69	1859
504.907	1836
505.123	1786
505.34	1662
505.557	1673
505.773	1639
505.99	1590
506.207	1597
506.423	1542
506.64	1522
506.856	1453
507.073	1493
507.289	1500
507.506	1456
507.722	1450
507.939	1407
508.155	1401
508.372	1417
508.588	1395
508.805	1363
509.021	1340
509.238	1371
509.454	1369
509.67	1341
509.887	1351
510.103	1339
510.319	1307
510.536	1354
510.752	1314
510.968	1329
511.184	1274
511.401	1305
511.617	1290
511.833	1267
512.049	1296
512.265	1287
512.481	1298
512.698	1314
512.914	1286
513.13	1318
513.346	1314
513.562	1294
513.778	1307
513.994	1310
514.21	1333
514.426	1331
514.642	1344
514.858	1383
515.074	1338
515.29	1357
515.506	1367
515.721	1397
515.937	1392
516.153	1417
516.369	1449
516.585	1489
516.801	1533
517.016	1541
517.232	1615
517.448	1636
517.664	1688
517.879	1682
518.095	1681
518.311	1669
518.527	1615
518.742	1575
518.958	1509
519.173	1508
519.389	1454
519.605	1434
519.82	1384
520.036	1373
520.251	1366
520.467	1282
520.682	1341
520.898	1280
521.113	1262
521.329	1263
521.544	1286
521.76	1283
521.975	1224
522.19	1248
522.406	1223
522.621	1208
522.836	1229
523.052	1211
523.267	1217
523.482	1184
523.698	1185
523.913	1173
524.128	1217
524.343	1178
524.559	1195
524.774	1179
524.989	1169
525.204	1169
525.419	1153
525.634	1164
525.849	1179
526.064	1196
526.28	1192
526.495	1167
526.71	1116
526.925	1131
527.14	1148
527.355	1151
527.57	1151
527.785	1118
527.999	1162
528.214	1153
528.429	1145
528.644	1164
528.859	1135
529.074	1146
529.289	1127
529.503	1147
529.718	1128
529.933	1098
530.148	1124
530.363	1151
530.577	1137
530.792	1141
531.007	1138
531.221	1151
531.436	1128
531.651	1144
531.865	1140
532.08	1139
532.295	1119
532.509	1127
532.724	1113
532.938	1145
533.153	1104
533.367	1098
533.582	1135
533.796	1100
534.011	1114
534.225	1147
534.44	1103
534.654	1083
534.868	1092
535.083	1085
535.297	1080
535.511	1091
535.726	1087
535.94	1099
536.154	1057
536.369	1048
536.583	1065
536.797	1043
537.011	1065
537.225	1044
537.44	1059
537.654	1073
537.868	1028
538.082	1025
538.296	1038
538.51	1013
538.724	1040
538.938	1027
539.153	1009
539.367	1026
539.581	1002
539.795	1009
540.009	998
540.222	1027
540.436	997
540.65	1028
540.864	989
541.078	1009
541.292	1033
541.506	1026
541.72	1047
541.934	1014
542.147	1058
542.361	1000
542.575	1016
542.789	1006
543.002	992
543.216	998
543.43	994
543.644	967
543.857	996
544.071	1013
544.285	1021
544.498	1006
544.712	1005
544.925	1004
545.139	1021
545.352	1006
545.566	1018
545.779	993
545.993	1011
546.206	1033
546.42	1053
546.633	1036
546.847	1006
547.06	1025
547.274	1019
547.487	1031
547.7	1010
547.914	1048
548.127	1057
548.34	1036
548.554	1023
548.767	1035
548.98	1023
549.193	1039
549.407	1003
549.62	1039
549.833	1055
550.046	1049
550.259	1023
550.473	1023
550.686	1012
550.899	1049
551.112	1025
551.325	1018
551.538	1011
551.751	1011
551.964	1004
552.177	990
552.39	1045
552.603	1037
552.816	1056
553.029	1095
553.242	1089
553.455	1076
553.667	1073
553.88	1064
554.093	1060
554.306	1051
554.519	1012
554.732	1025
554.944	1005
555.157	963
555.37	954
555.583	925
555.795	930
556.008	938
556.221	936
556.433	916
556.646	916
556.859	917
557.071	910
557.284	875
557.496	869
557.709	899
557.921	891
558.134	840
558.346	866
558.559	879
558.771	831
558.984	859
559.196	864
559.409	852
559.621	879
559.833	839
560.046	863
560.258	850
560.47	822
560.683	845
560.895	839
561.107	856
561.32	822
561.532	846
561.744	831
561.956	842
562.168	841
562.381	881
562.593	835
562.805	839
563.017	848
563.229	863
563.441	873
563.653	855
563.865	864
564.077	861
564.289	892
564.501	891
564.713	935
564.925	945
565.137	935
565.349	945
565.561	995
565.773	1033
565.985	1080
566.197	1086
566.408	1133
566.62	1179
566.832	1251
567.044	1252
567.255	1229
567.467	1282
567.679	1312
567.891	1366
568.102	1370
568.314	1333
568.526	1253
568.737	1177
568.949	1111
569.161	1028
569.372	973
569.584	968
569.795	885
570.007	895
570.218	894
570.43	888
570.641	886
570.853	861
571.064	858
571.276	831
571.487	808
571.698	790
571.91	761
572.121	763
572.333	779
572.544	754
572.755	742
572.966	744
573.178	697
573.389	718
573.6	699
573.811	698
574.023	669
574.234	699
574.445	675
574.656	665
574.867	665
575.078	695
575.289	670
575.501	674
575.712	645
575.923	656
576.134	666
576.345	660
576.556	638
576.767	661
576.978	632
577.188	635
577.399	617
577.61	632
577.821	625
578.032	610
578.243	615
578.454	623
578.665	605
578.875	619
579.086	609
579.297	581
579.508	588
579.718	596
579.929	580
580.14	584
580.35	625
580.561	591
580.772	571
580.982	570
581.193	594
581.403	575
581.614	574
581.825	573
582.035	574
582.246	555
582.456	570
582.667	575
582.877	558
583.087	561
583.298	547
583.508	567
583.719	570
583.929	571
584.139	546
584.35	558
584.56	562
584.77	560
584.981	539
585.191	553
585.401	565
585.611	541
585.821	543
586.032	559
586.242	541
586.452	546
586.662	543
586.872	535
587.082	557
587.292	522
587.502	550
587.713	509
587.923	539
588.133	535
588.343	574
588.553	541
588.762	546
588.972	564
589.182	647
589.392	633
589.602	570
589.812	625
590.022	609
590.232	553
590.441	576
590.651	541
590.861	573
591.071	576
591.281	568
591.49	576
591.7	562
591.91	570
592.119	571
592.329	600
592.539	597
592.748	594
592.958	616
593.167	608
593.377	623
593.587	617
593.796	641
594.006	641
594.215	622
594.424	664
594.634	630
594.843	622
595.053	615
595.262	603
595.472	575
595.681	542
595.89	564
596.1	546
596.309	544
596.518	519
596.727	541
596.937	497
597.146	496
597.355	504
597.564	493
597.774	480
597.983	496
598.192	488
598.401	467
598.61	464
598.819	472
599.028	441
599.237	463
599.446	465
599.655	464
599.864	427
600.073	439
600.282	455
600.491	447
600.7	451
600.909	453
601.118	448
601.327	435
601.536	453
601.745	448
601.953	445
602.162	432
602.371	417
602.58	412
602.789	431
602.997	427
603.206	418
603.415	439
603.623	438
603.832	422
604.041	402
604.249	429
604.458	402
604.666	421
604.875	414
605.084	389
605.292	383
605.501	406
605.709	415
605.918	405
606.126	420
606.334	392
606.543	392
606.751	408
606.96	401
607.168	382
607.376	374
607.585	388
607.793	392
608.001	409
608.21	371
608.418	396
608.626	396
608.834	410
609.043	406
609.251	395
609.459	390
609.667	386
609.875	398
610.083	385
610.291	399
610.499	392
610.707	393
610.916	393
611.124	377
611.332	371
611.54	370
611.748	390
611.955	374
612.163	381
612.371	395
612.579	375
612.787	383
612.995	367
613.203	383
613.411	368
613.618	375
613.826	359
614.034	361
614.242	370
614.449	373
614.657	371
614.865	371
615.072	358
615.28	370
615.488	367
615.695	365
615.903	375
616.111	381
616.318	360
616.526	371
616.733	351
616.941	375
617.148	363
617.356	393
617.563	357
617.771	362
617.978	354
618.185	349
618.393	348
618.6	345
618.807	340
619.015	360
619.222	353
619.429	355
619.637	351
619.844	352
620.051	346
620.258	356
620.466	334
620.673	332
620.88	331
621.087	342
621.294	349
621.501	327
621.708	333
621.915	345
622.122	350
622.329	333
622.536	324
622.743	342
622.95	332
623.157	330
623.364	344
623.571	338
623.778	325
623.985	311
624.192	334
624.399	334
624.606	332
624.812	315
625.019	347
625.226	335
625.433	321
625.639	304
625.846	315
626.053	319
626.259	311
626.466	309
626.673	318
626.879	313
627.086	294
627.293	313
627.499	311
627.706	325
627.912	309
628.119	273
628.325	287
628.532	304
628.738	290
628.945	303
629.151	309
629.357	294
629.564	305
629.77	292
629.976	307
630.183	288
630.389	307
630.595	295
630.802	296
631.008	274
631.214	290
631.42	270
631.627	289
631.833	280
632.039	271
632.245	282
632.451	251
632.657	264
632.863	278
633.069	279
633.275	282
633.481	279
633.688	275
633.893	268
634.099	273
634.305	268
634.511	265
634.717	257
634.923	266
635.129	279
635.335	273
635.541	266
635.747	266
635.952	272
636.158	262
636.364	267
636.57	267
636.775	274
636.981	247
637.187	261
637.392	266
637.598	253
637.804	246
638.009	254
638.215	235
638.421	257
638.626	248
638.832	265
639.037	233
639.243	233
639.448	261
639.654	244
639.859	246
640.065	270
640.27	247
640.475	239
640.681	267
640.886	237
641.091	253
641.297	253
641.502	235
641.707	260
641.913	244
642.118	233
642.323	238
642.528	237
642.733	245
642.939	248
643.144	241
643.349	224
643.554	233
643.759	224
643.964	235
644.169	234
644.374	243
644.579	247
644.784	232
644.989	235
645.194	217
645.399	248
645.604	241
645.809	229
646.014	249
646.219	239
646.423	230
646.628	240
646.833	257
647.038	229
647.243	236
647.447	242
647.652	246
647.857	255
648.062	249
648.266	248
648.471	230
648.676	255
648.88	254
649.085	249
649.289	261
649.494	227
649.698	245
649.903	249
650.107	232
650.312	251
650.516	201
650.721	222
650.925	212
651.13	233
651.334	220
651.539	219
651.743	226
651.947	221
652.152	209
652.356	225
652.56	213
652.764	217
652.969	223
653.173	204
653.377	202
653.581	201
653.785	204
653.99	193
654.194	192
654.398	202
654.602	198
654.806	209
655.01	194
655.214	207
655.418	218
655.622	201
655.826	201
656.03	208
656.234	213
656.438	195
656.642	218
656.846	203
657.049	202
657.253	193
657.457	156
657.661	183
657.865	177
658.068	139
658.272	149
658.476	139
658.68	148
658.883	133
659.087	120
659.291	119
659.494	113
659.698	104
659.901	117
660.105	105
660.309	115
660.512	104
660.716	113
660.919	94
661.123	107
661.326	102
661.53	101
661.733	90
661.936	85
662.14	84
662.343	89
662.546	86
662.75	91
662.953	71
663.156	78
663.36	92
663.563	74
663.766	76
663.969	73
664.173	85
664.376	82
664.579	80
664.782	82
664.985	79
665.188	72
665.391	95
665.594	80
665.797	81
666	77
666.203	82
666.406	81
666.609	81
666.812	102
667.015	79
667.218	89
667.421	77
667.624	96
667.827	77
668.03	86
668.232	67
668.435	86
668.638	68
668.841	78
669.043	82
669.246	78
669.449	84
669.651	75
669.854	85
670.057	93
670.259	85
670.462	64
670.665	74
670.867	83
671.07	87
671.272	83
671.475	77
671.677	75
671.88	53
672.082	82
672.284	93
672.487	84
672.689	77
672.892	89
