Data from NiCl2@0.0625M.TitratingCurve.Agarose3%dH2O.NegLispCup.LampEnergy10.LIBS07252019_HRD10591_18-32-25-575.txt Node
Date: Thu Jul 25 18:32:25 EDT 2019
User: cochatt
Spectrometer: HR+D1059
Trigger mode: 1
Integration Time (sec): 1.000000E-1
Scans to average: 1
Electric dark correction enabled: true
Nonlinearity correction enabled: false
Boxcar width: 0
XAxis mode: Wavelengths
Number of Pixels in Spectrum: 2048
>>>>>Begin Spectral Data<<<<<
223.165	-18
223.4	-18
223.635	-18
223.869	-19
224.104	-27
224.338	-12
224.573	-12
224.808	-11
225.042	-1
225.277	-6
225.511	7
225.746	4
225.98	16
226.215	10
226.449	16
226.683	18
226.918	18
227.152	17
227.387	27
227.621	39
227.856	41
228.09	53
228.324	55
228.559	55
228.793	88
229.027	145
229.262	173
229.496	180
229.73	174
229.964	206
230.199	198
230.433	189
230.667	185
230.901	187
231.136	203
231.37	187
231.604	191
231.838	208
232.072	204
232.306	219
232.541	208
232.775	229
233.009	221
233.243	212
233.477	210
233.711	224
233.945	205
234.179	215
234.413	223
234.647	227
234.881	243
235.115	235
235.349	223
235.583	228
235.817	224
236.051	237
236.285	235
236.519	223
236.753	243
236.987	223
237.221	253
237.455	243
237.689	246
237.922	253
238.156	256
238.39	275
238.624	259
238.858	262
239.091	258
239.325	265
239.559	255
239.793	276
240.027	307
240.26	293
240.494	292
240.728	284
240.961	277
241.195	285
241.429	302
241.662	308
241.896	320
242.13	333
242.363	317
242.597	334
242.83	331
243.064	320
243.298	345
243.531	355
243.765	343
243.998	336
244.232	346
244.465	350
244.699	343
244.932	345
245.166	343
245.399	335
245.633	376
245.866	373
246.099	375
246.333	378
246.566	364
246.8	360
247.033	378
247.266	357
247.5	369
247.733	373
247.966	397
248.2	420
248.433	413
248.666	385
248.899	408
249.133	382
249.366	392
249.599	399
249.832	402
250.066	403
250.299	428
250.532	445
250.765	423
250.998	431
251.231	443
251.465	457
251.698	459
251.931	433
252.164	457
252.397	446
252.63	471
252.863	455
253.096	459
253.329	445
253.562	451
253.795	455
254.028	471
254.261	478
254.494	467
254.727	472
254.96	483
255.193	466
255.426	480
255.659	504
255.892	495
256.124	487
256.357	488
256.59	491
256.823	480
257.056	503
257.289	521
257.521	505
257.754	523
257.987	526
258.22	535
258.452	522
258.685	535
258.918	536
259.151	518
259.383	525
259.616	542
259.849	556
260.081	543
260.314	567
260.547	531
260.779	547
261.012	565
261.244	569
261.477	559
261.71	562
261.942	557
262.175	563
262.407	557
262.64	569
262.872	555
263.105	593
263.337	580
263.57	592
263.802	585
264.035	598
264.267	580
264.499	601
264.732	619
264.964	583
265.197	602
265.429	614
265.661	612
265.894	632
266.126	613
266.358	639
266.591	615
266.823	632
267.055	645
267.287	638
267.52	644
267.752	633
267.984	637
268.216	641
268.448	642
268.681	638
268.913	658
269.145	653
269.377	649
269.609	641
269.841	659
270.073	655
270.306	652
270.538	643
270.77	641
271.002	662
271.234	658
271.466	668
271.698	672
271.93	688
272.162	688
272.394	691
272.626	703
272.858	657
273.09	716
273.322	711
273.553	697
273.785	689
274.017	701
274.249	699
274.481	719
274.713	718
274.945	712
275.176	760
275.408	723
275.64	735
275.872	756
276.104	727
276.335	737
276.567	725
276.799	753
277.031	744
277.262	765
277.494	749
277.726	748
277.957	749
278.189	778
278.421	761
278.652	786
278.884	781
279.115	793
279.347	792
279.579	805
279.81	775
280.042	781
280.273	799
280.505	795
280.736	813
280.968	792
281.199	800
281.431	806
281.662	828
281.894	836
282.125	816
282.356	860
282.588	840
282.819	815
283.051	837
283.282	823
283.513	847
283.745	865
283.976	864
284.207	829
284.439	844
284.67	860
284.901	851
285.132	876
285.364	872
285.595	879
285.826	843
286.057	891
286.288	856
286.52	893
286.751	873
286.982	891
287.213	873
287.444	875
287.675	903
287.906	897
288.138	893
288.369	888
288.6	925
288.831	917
289.062	909
289.293	948
289.524	933
289.755	913
289.986	903
290.217	891
290.448	904
290.679	934
290.91	933
291.141	928
291.371	926
291.602	942
291.833	912
292.064	932
292.295	914
292.526	893
292.757	918
292.987	936
293.218	917
293.449	939
293.68	967
293.91	913
294.141	928
294.372	921
294.603	937
294.833	956
295.064	944
295.295	938
295.525	911
295.756	939
295.987	961
296.217	949
296.448	938
296.679	921
296.909	951
297.14	969
297.37	963
297.601	981
297.831	979
298.062	960
298.292	1017
298.523	1019
298.753	1022
298.984	1005
299.214	996
299.445	1017
299.675	1021
299.905	1002
300.136	1015
300.366	1032
300.597	1055
300.827	1028
301.057	1041
301.288	1042
301.518	1053
301.748	1035
301.979	1057
302.209	1088
302.439	1047
302.669	1072
302.9	1082
303.13	1045
303.36	1055
303.59	1048
303.82	1077
304.051	1060
304.281	1062
304.511	1027
304.741	1051
304.971	1051
305.201	1062
305.431	1059
305.661	1047
305.891	1065
306.121	1037
306.352	1045
306.582	1045
306.812	1056
307.042	1057
307.272	1053
307.502	1029
307.731	1046
307.961	1047
308.191	1067
308.421	1053
308.651	1036
308.881	1055
309.111	1055
309.341	1055
309.571	1063
309.8	1059
310.03	1049
310.26	1042
310.49	1070
310.72	1083
310.949	1068
311.179	1077
311.409	1058
311.639	1067
311.868	1089
312.098	1091
312.328	1101
312.557	1086
312.787	1099
313.017	1089
313.246	1125
313.476	1125
313.706	1123
313.935	1140
314.165	1120
314.394	1141
314.624	1126
314.853	1130
315.083	1130
315.312	1143
315.542	1123
315.771	1124
316.001	1138
316.23	1143
316.46	1117
316.689	1134
316.919	1116
317.148	1078
317.377	1124
317.607	1116
317.836	1105
318.065	1075
318.295	1118
318.524	1140
318.753	1083
318.983	1097
319.212	1116
319.441	1113
319.67	1078
319.9	1103
320.129	1095
320.358	1122
320.587	1112
320.816	1148
321.046	1124
321.275	1135
321.504	1130
321.733	1123
321.962	1112
322.191	1143
322.42	1170
322.649	1132
322.878	1130
323.108	1130
323.337	1121
323.566	1143
323.795	1156
324.024	1146
324.253	1178
324.482	1146
324.71	1183
324.939	1177
325.168	1184
325.397	1149
325.626	1181
325.855	1240
326.084	1235
326.313	1221
326.542	1190
326.77	1251
326.999	1229
327.228	1184
327.457	1243
327.686	1226
327.914	1231
328.143	1231
328.372	1233
328.6	1197
328.829	1197
329.058	1228
329.287	1240
329.515	1229
329.744	1251
329.972	1232
330.201	1267
330.43	1259
330.658	1255
330.887	1289
331.115	1287
331.344	1324
331.572	1301
331.801	1312
332.03	1335
332.258	1321
332.486	1405
332.715	1455
332.943	1445
333.172	1470
333.4	1557
333.629	1534
333.857	1581
334.085	1575
334.314	1580
334.542	1545
334.771	1540
334.999	1557
335.227	1543
335.455	1503
335.684	1515
335.912	1501
336.14	1463
336.369	1483
336.597	1461
336.825	1452
337.053	1451
337.281	1462
337.51	1400
337.738	1422
337.966	1371
338.194	1371
338.422	1361
338.65	1391
338.878	1391
339.106	1327
339.334	1341
339.562	1321
339.79	1293
340.018	1315
340.246	1259
340.474	1291
340.702	1281
340.93	1313
341.158	1271
341.386	1331
341.614	1321
341.842	1314
342.07	1295
342.298	1274
342.526	1252
342.754	1265
342.981	1263
343.209	1327
343.437	1379
343.665	1419
343.893	1487
344.12	1510
344.348	1503
344.576	1471
344.804	1398
345.031	1344
345.259	1310
345.487	1289
345.714	1289
345.942	1253
346.17	1259
346.397	1259
346.625	1252
346.853	1227
347.08	1260
347.308	1245
347.535	1255
347.763	1207
347.99	1223
348.218	1236
348.445	1252
348.673	1213
348.9	1208
349.128	1193
349.355	1214
349.583	1220
349.81	1189
350.037	1175
350.265	1194
350.492	1211
350.72	1171
350.947	1156
351.174	1198
351.402	1168
351.629	1187
351.856	1187
352.083	1161
352.311	1210
352.538	1237
352.765	1235
352.992	1171
353.22	1187
353.447	1151
353.674	1171
353.901	1211
354.128	1169
354.355	1197
354.583	1167
354.81	1196
355.037	1212
355.264	1185
355.491	1175
355.718	1205
355.945	1224
356.172	1196
356.399	1194
356.626	1176
356.853	1190
357.08	1207
357.307	1196
357.534	1159
357.761	1211
357.988	1198
358.215	1192
358.441	1201
358.668	1176
358.895	1179
359.122	1170
359.349	1199
359.576	1177
359.802	1220
360.029	1173
360.256	1195
360.483	1227
360.709	1195
360.936	1203
361.163	1192
361.39	1222
361.616	1230
361.843	1197
362.07	1202
362.296	1176
362.523	1174
362.749	1209
362.976	1182
363.203	1183
363.429	1148
363.656	1188
363.882	1191
364.109	1217
364.335	1183
364.562	1204
364.788	1191
365.015	1175
365.241	1206
365.468	1189
365.694	1155
365.92	1212
366.147	1161
366.373	1187
366.599	1226
366.826	1198
367.052	1194
367.278	1174
367.505	1180
367.731	1208
367.957	1206
368.184	1187
368.41	1189
368.636	1213
368.862	1262
369.089	1228
369.315	1223
369.541	1215
369.767	1247
369.993	1251
370.219	1239
370.445	1261
370.672	1246
370.898	1283
371.124	1252
371.35	1299
371.576	1305
371.802	1302
372.028	1275
372.254	1311
372.48	1294
372.706	1309
372.932	1353
373.158	1321
373.384	1299
373.61	1311
373.835	1304
374.061	1285
374.287	1333
374.513	1372
374.739	1358
374.965	1407
375.191	1403
375.416	1399
375.642	1380
375.868	1368
376.094	1375
376.319	1304
376.545	1303
376.771	1320
376.997	1288
377.222	1295
377.448	1318
377.674	1278
377.899	1278
378.125	1283
378.35	1285
378.576	1271
378.802	1269
379.027	1261
379.253	1275
379.478	1272
379.704	1283
379.929	1285
380.155	1307
380.38	1302
380.606	1310
380.831	1237
381.057	1309
381.282	1287
381.507	1324
381.733	1304
381.958	1322
382.184	1295
382.409	1342
382.634	1329
382.86	1312
383.085	1320
383.31	1376
383.535	1402
383.761	1425
383.986	1442
384.211	1477
384.436	1446
384.662	1501
384.887	1499
385.112	1487
385.337	1573
385.562	1544
385.787	1520
386.013	1541
386.238	1573
386.463	1589
386.688	1587
386.913	1542
387.138	1521
387.363	1569
387.588	1516
387.813	1598
388.038	1517
388.263	1546
388.488	1555
388.713	1523
388.938	1510
389.163	1499
389.387	1521
389.612	1507
389.837	1535
390.062	1515
390.287	1508
390.512	1503
390.736	1548
390.961	1606
391.186	1618
391.411	1618
391.636	1660
391.86	1661
392.085	1740
392.31	1710
392.534	1678
392.759	1680
392.984	1624
393.208	1635
393.433	1659
393.658	1672
393.882	1581
394.107	1617
394.331	1660
394.556	1643
394.78	1691
395.005	1707
395.229	1652
395.454	1699
395.678	1679
395.903	1736
396.127	1691
396.352	1699
396.576	1672
396.801	1679
397.025	1680
397.249	1672
397.474	1702
397.698	1733
397.922	1732
398.147	1724
398.371	1777
398.595	1816
398.82	1897
399.044	2016
399.268	2181
399.492	2432
399.717	2665
399.941	2720
400.165	2459
400.389	2284
400.613	2126
400.837	2049
401.062	2005
401.286	1937
401.51	1927
401.734	1909
401.958	1962
402.182	1923
402.406	1908
402.63	1948
402.854	2016
403.078	2039
403.302	2047
403.526	2048
403.75	2059
403.974	2179
404.198	2161
404.422	2099
404.645	2100
404.869	2106
405.093	2085
405.317	2064
405.541	2037
405.765	2065
405.988	2064
406.212	2087
406.436	2069
406.66	2146
406.883	2143
407.107	2272
407.331	2327
407.555	2411
407.778	2403
408.002	2380
408.226	2318
408.449	2280
408.673	2217
408.896	2152
409.12	2094
409.344	2119
409.567	2092
409.791	2109
410.014	2076
410.238	2111
410.461	2069
410.685	2055
410.908	2070
411.132	2007
411.355	1965
411.578	2009
411.802	1964
412.025	1955
412.249	1995
412.472	2003
412.695	1975
412.919	1916
413.142	1918
413.365	1898
413.589	1950
413.812	1918
414.035	1874
414.258	1888
414.482	1902
414.705	1895
414.928	1916
415.151	1950
415.374	1872
415.597	1888
415.821	1876
416.044	1846
416.267	1848
416.49	1823
416.713	1852
416.936	1862
417.159	1819
417.382	1838
417.605	1796
417.828	1839
418.051	1862
418.274	1831
418.497	1847
418.72	1891
418.943	1888
419.166	1973
419.389	2131
419.611	2083
419.834	2044
420.057	1919
420.28	1901
420.503	1795
420.726	1836
420.948	1825
421.171	1847
421.394	1853
421.617	1830
421.839	1859
422.062	1840
422.285	1819
422.507	1915
422.73	1872
422.953	1859
423.175	1898
423.398	1908
423.621	1883
423.843	1951
424.066	1905
424.288	1922
424.511	1889
424.733	1893
424.956	1874
425.178	1848
425.401	1863
425.623	1847
425.846	1796
426.068	1804
426.291	1765
426.513	1756
426.735	1717
426.958	1721
427.18	1710
427.402	1736
427.625	1734
427.847	1699
428.069	1709
428.292	1671
428.514	1675
428.736	1655
428.958	1668
429.181	1648
429.403	1630
429.625	1656
429.847	1619
430.069	1642
430.292	1675
430.514	1631
430.736	1655
430.958	1671
431.18	1631
431.402	1646
431.624	1656
431.846	1706
432.068	1682
432.29	1703
432.512	1687
432.734	1700
432.956	1648
433.178	1721
433.4	1687
433.622	1704
433.844	1741
434.066	1714
434.287	1706
434.509	1793
434.731	1848
434.953	1852
435.175	1867
435.397	1868
435.618	1767
435.84	1729
436.062	1718
436.284	1693
436.505	1665
436.727	1701
436.949	1688
437.17	1675
437.392	1613
437.614	1613
437.835	1632
438.057	1628
438.278	1607
438.5	1591
438.721	1609
438.943	1604
439.165	1609
439.386	1601
439.608	1632
439.829	1637
440.05	1664
440.272	1651
440.493	1672
440.715	1689
440.936	1717
441.158	1704
441.379	1770
441.6	1828
441.822	1825
442.043	1837
442.264	1821
442.486	1768
442.707	1786
442.928	1746
443.149	1790
443.371	1774
443.592	1826
443.813	1865
444.034	1846
444.255	1878
444.476	1912
444.698	2063
444.919	2066
445.14	2098
445.361	1955
445.582	1929
445.803	1744
446.024	1763
446.245	1717
446.466	1710
446.687	1683
446.908	1687
447.129	1597
447.35	1603
447.571	1616
447.792	1535
448.013	1547
448.234	1543
448.455	1527
448.675	1536
448.896	1562
449.117	1520
449.338	1475
449.559	1484
449.779	1510
450	1482
450.221	1490
450.442	1488
450.662	1488
450.883	1512
451.104	1493
451.324	1514
451.545	1493
451.766	1502
451.986	1508
452.207	1525
452.428	1476
452.648	1478
452.869	1447
453.089	1451
453.31	1452
453.53	1449
453.751	1436
453.971	1434
454.192	1452
454.412	1414
454.633	1441
454.853	1451
455.073	1392
455.294	1406
455.514	1399
455.734	1417
455.955	1412
456.175	1414
456.395	1390
456.616	1395
456.836	1388
457.056	1386
457.276	1389
457.497	1431
457.717	1405
457.937	1440
458.157	1449
458.377	1461
458.598	1495
458.818	1472
459.038	1548
459.258	1603
459.478	1665
459.698	1710
459.918	1735
460.138	1766
460.358	1843
460.578	1866
460.798	1892
461.018	1952
461.238	1880
461.458	1901
461.678	1888
461.898	1913
462.118	1968
462.338	1991
462.558	2072
462.777	2144
462.997	2275
463.217	2420
463.437	2433
463.657	2272
463.876	2274
464.096	2175
464.316	2177
464.536	2181
464.755	2118
464.975	2053
465.195	1945
465.414	1892
465.634	1755
465.854	1681
466.073	1709
466.293	1657
466.512	1626
466.732	1577
466.951	1621
467.171	1615
467.391	1589
467.61	1564
467.829	1553
468.049	1548
468.268	1504
468.488	1521
468.707	1519
468.927	1534
469.146	1526
469.365	1545
469.585	1519
469.804	1585
470.023	1557
470.243	1579
470.462	1613
470.681	1617
470.901	1591
471.12	1588
471.339	1607
471.558	1588
471.777	1551
471.997	1551
472.216	1561
472.435	1502
472.654	1547
472.873	1491
473.092	1459
473.311	1509
473.53	1501
473.749	1515
473.968	1507
474.187	1511
474.406	1500
474.625	1510
474.844	1511
475.063	1492
475.282	1526
475.501	1521
475.72	1547
475.939	1576
476.158	1578
476.377	1584
476.596	1607
476.814	1625
477.033	1601
477.252	1646
477.471	1665
477.69	1667
477.908	1739
478.127	1765
478.346	1804
478.564	1843
478.783	1825
479.002	1885
479.22	1903
479.439	1918
479.658	1900
479.876	1892
480.095	1925
480.313	1971
480.532	1983
480.751	1992
480.969	1967
481.188	1912
481.406	1896
481.624	1809
481.843	1820
482.061	1783
482.28	1803
482.498	1795
482.717	1810
482.935	1830
483.153	1797
483.372	1849
483.59	1838
483.808	1827
484.027	1897
484.245	1863
484.463	1861
484.681	1921
484.9	1917
485.118	1889
485.336	1904
485.554	1972
485.772	1950
485.99	1959
486.209	1953
486.427	1980
486.645	1980
486.863	1962
487.081	1885
487.299	1916
487.517	1921
487.735	1883
487.953	1919
488.171	1923
488.389	1919
488.607	1912
488.825	1853
489.043	1834
489.261	1891
489.479	1911
489.696	1852
489.914	1902
490.132	1888
490.35	1876
490.568	1896
490.786	1837
491.003	1882
491.221	1855
491.439	1898
491.657	1909
491.874	1869
492.092	1878
492.31	1918
492.527	1936
492.745	1898
492.963	1896
493.18	1912
493.398	1869
493.615	1918
493.833	1917
494.05	1908
494.268	1936
494.485	1909
494.703	1923
494.92	1956
495.138	1917
495.355	1903
495.573	1974
495.79	1925
496.008	1971
496.225	1981
496.442	2028
496.66	2038
496.877	2053
497.094	2051
497.312	2094
497.529	2123
497.746	2187
497.963	2237
498.181	2381
498.398	2476
498.615	2521
498.832	2700
499.049	2861
499.267	3056
499.484	3360
499.701	3677
499.918	3943
500.135	4391
500.352	4790
500.569	4901
500.786	4857
501.003	4684
501.22	4268
501.437	3857
501.654	3523
501.871	3263
502.088	3007
502.305	2785
502.522	2731
502.739	2607
502.956	2510
503.172	2366
503.389	2315
503.606	2225
503.823	2155
504.04	2163
504.256	2165
504.473	2169
504.69	2235
504.907	2145
505.123	2084
505.34	1947
505.557	1881
505.773	1862
505.99	1828
506.207	1725
506.423	1766
506.64	1713
506.856	1705
507.073	1672
507.289	1689
507.506	1607
507.722	1685
507.939	1639
508.155	1631
508.372	1565
508.588	1573
508.805	1620
509.021	1578
509.238	1588
509.454	1562
509.67	1582
509.887	1525
510.103	1533
510.319	1548
510.536	1517
510.752	1532
510.968	1475
511.184	1495
511.401	1529
511.617	1499
511.833	1518
512.049	1513
512.265	1526
512.481	1492
512.698	1531
512.914	1471
513.13	1485
513.346	1498
513.562	1476
513.778	1487
513.994	1516
514.21	1518
514.426	1533
514.642	1506
514.858	1576
515.074	1519
515.29	1572
515.506	1583
515.721	1611
515.937	1627
516.153	1592
516.369	1674
516.585	1693
516.801	1710
517.016	1797
517.232	1825
517.448	1936
517.664	1968
517.879	2008
518.095	1981
518.311	1925
518.527	1900
518.742	1811
518.958	1748
519.173	1693
519.389	1670
519.605	1636
519.82	1549
520.036	1590
520.251	1545
520.467	1543
520.682	1467
520.898	1456
521.113	1451
521.329	1460
521.544	1439
521.76	1443
521.975	1421
522.19	1436
522.406	1407
522.621	1416
522.836	1416
523.052	1409
523.267	1416
523.482	1391
523.698	1379
523.913	1344
524.128	1366
524.343	1365
524.559	1344
524.774	1324
524.989	1357
525.204	1369
525.419	1313
525.634	1360
525.849	1352
526.064	1347
526.28	1298
526.495	1320
526.71	1340
526.925	1339
527.14	1295
527.355	1323
527.57	1303
527.785	1308
527.999	1308
528.214	1323
528.429	1340
528.644	1335
528.859	1341
529.074	1300
529.289	1326
529.503	1341
529.718	1299
529.933	1280
530.148	1310
530.363	1284
530.577	1269
530.792	1271
531.007	1292
531.221	1319
531.436	1269
531.651	1337
531.865	1308
532.08	1291
532.295	1278
532.509	1352
532.724	1304
532.938	1271
533.153	1292
533.367	1314
533.582	1334
533.796	1283
534.011	1271
534.225	1299
534.44	1255
534.654	1274
534.868	1288
535.083	1287
535.297	1276
535.511	1249
535.726	1234
535.94	1237
536.154	1254
536.369	1247
536.583	1197
536.797	1186
537.011	1189
537.225	1156
537.44	1207
537.654	1184
537.868	1185
538.082	1183
538.296	1200
538.51	1181
538.724	1173
538.938	1226
539.153	1165
539.367	1181
539.581	1209
539.795	1178
540.009	1179
540.222	1169
540.436	1171
540.65	1193
540.864	1126
541.078	1152
541.292	1167
541.506	1161
541.72	1151
541.934	1132
542.147	1136
542.361	1150
542.575	1116
542.789	1125
543.002	1140
543.216	1128
543.43	1132
543.644	1124
543.857	1155
544.071	1153
544.285	1176
544.498	1159
544.712	1128
544.925	1147
545.139	1160
545.352	1168
545.566	1164
545.779	1181
545.993	1199
546.206	1160
546.42	1150
546.633	1169
546.847	1153
547.06	1180
547.274	1164
547.487	1157
547.7	1158
547.914	1149
548.127	1182
548.34	1143
548.554	1159
548.767	1182
548.98	1155
549.193	1175
549.407	1174
549.62	1162
549.833	1198
550.046	1199
550.259	1182
550.473	1148
550.686	1163
550.899	1190
551.112	1174
551.325	1126
551.538	1148
551.751	1186
551.964	1171
552.177	1167
552.39	1178
552.603	1221
552.816	1215
553.029	1260
553.242	1232
553.455	1254
553.667	1243
553.88	1243
554.093	1209
554.306	1168
554.519	1154
554.732	1161
554.944	1113
555.157	1128
555.37	1084
555.583	1081
555.795	1077
556.008	1071
556.221	1027
556.433	1046
556.646	1056
556.859	1019
557.071	1035
557.284	1009
557.496	1004
557.709	991
557.921	1014
558.134	991
558.346	1019
558.559	983
558.771	982
558.984	967
559.196	977
559.409	957
559.621	977
559.833	984
560.046	963
560.258	979
560.47	954
560.683	953
560.895	942
561.107	941
561.32	934
561.532	968
561.744	968
561.956	941
562.168	953
562.381	944
562.593	943
562.805	969
563.017	965
563.229	980
563.441	982
563.653	971
563.865	1004
564.077	986
564.289	1001
564.501	1015
564.713	1040
564.925	1034
565.137	1051
565.349	1092
565.561	1128
565.773	1158
565.985	1218
566.197	1244
566.408	1303
566.62	1398
566.832	1457
567.044	1492
567.255	1523
567.467	1571
567.679	1580
567.891	1707
568.102	1710
568.314	1661
568.526	1509
568.737	1404
568.949	1297
569.161	1240
569.372	1175
569.584	1098
569.795	1055
570.007	1013
570.218	1013
570.43	996
570.641	976
570.853	979
571.064	987
571.276	968
571.487	974
571.698	907
571.91	885
572.121	867
572.333	861
572.544	861
572.755	840
572.966	848
573.178	816
573.389	822
573.6	826
573.811	808
574.023	825
574.234	820
574.445	800
574.656	780
574.867	800
575.078	785
575.289	791
575.501	775
575.712	747
575.923	745
576.134	741
576.345	743
576.556	743
576.767	757
576.978	744
577.188	713
577.399	734
577.61	742
577.821	727
578.032	734
578.243	697
578.454	717
578.665	711
578.875	704
579.086	698
579.297	676
579.508	698
579.718	685
579.929	686
580.14	671
580.35	672
580.561	658
580.772	677
580.982	661
581.193	692
581.403	680
581.614	665
581.825	680
582.035	640
582.246	664
582.456	656
582.667	635
582.877	646
583.087	653
583.298	638
583.508	674
583.719	638
583.929	633
584.139	623
584.35	621
584.56	633
584.77	638
584.981	655
585.191	620
585.401	627
585.611	613
585.821	627
586.032	619
586.242	607
586.452	621
586.662	643
586.872	625
587.082	615
587.292	641
587.502	627
587.713	629
587.923	616
588.133	623
588.343	620
588.553	636
588.762	606
588.972	613
589.182	636
589.392	644
589.602	644
589.812	623
590.022	639
590.232	637
590.441	614
590.651	643
590.861	643
591.071	628
591.281	665
591.49	651
591.7	660
591.91	672
592.119	665
592.329	691
592.539	701
592.748	711
592.958	703
593.167	751
593.377	747
593.587	771
593.796	761
594.006	756
594.215	733
594.424	753
594.634	748
594.843	711
595.053	710
595.262	664
595.472	654
595.681	653
595.89	635
596.1	632
596.309	614
596.518	589
596.727	588
596.937	580
597.146	580
597.355	596
597.564	553
597.774	530
597.983	543
598.192	536
598.401	570
598.61	535
598.819	547
599.028	527
599.237	536
599.446	522
599.655	518
599.864	516
600.073	521
600.282	528
600.491	508
600.7	523
600.909	521
601.118	518
601.327	511
601.536	490
601.745	515
601.953	539
602.162	488
602.371	492
602.58	474
602.789	486
602.997	491
603.206	481
603.415	506
603.623	490
603.832	474
604.041	485
604.249	485
604.458	481
604.666	480
604.875	462
605.084	481
605.292	474
605.501	483
605.709	484
605.918	473
606.126	451
606.334	488
606.543	468
606.751	463
606.96	469
607.168	459
607.376	451
607.585	431
607.793	467
608.001	455
608.21	451
608.418	472
608.626	462
608.834	457
609.043	475
609.251	459
609.459	463
609.667	472
609.875	424
610.083	440
610.291	442
610.499	440
610.707	440
610.916	421
611.124	463
611.332	432
611.54	461
611.748	448
611.955	440
612.163	452
612.371	423
612.579	443
612.787	454
612.995	446
613.203	430
613.411	444
613.618	433
613.826	435
614.034	439
614.242	427
614.449	406
614.657	429
614.865	425
615.072	423
615.28	424
615.488	428
615.695	451
615.903	425
616.111	422
616.318	461
616.526	449
616.733	446
616.941	433
617.148	419
617.356	402
617.563	429
617.771	433
617.978	417
618.185	431
618.393	414
618.6	424
618.807	425
619.015	421
619.222	413
619.429	398
619.637	411
619.844	414
620.051	427
620.258	409
620.466	405
620.673	398
620.88	390
621.087	395
621.294	399
621.501	404
621.708	388
621.915	408
622.122	378
622.329	393
622.536	406
622.743	386
622.95	419
623.157	391
623.364	390
623.571	392
623.778	392
623.985	404
624.192	384
624.399	368
624.606	383
624.812	394
625.019	373
625.226	383
625.433	381
625.639	384
625.846	374
626.053	361
626.259	381
626.466	376
626.673	376
626.879	346
627.086	376
627.293	345
627.499	373
627.706	363
627.912	359
628.119	358
628.325	363
628.532	346
628.738	360
628.945	360
629.151	360
629.357	360
629.564	310
629.77	330
629.976	351
630.183	345
630.389	342
630.595	319
630.802	325
631.008	320
631.214	340
631.42	321
631.627	339
631.833	344
632.039	319
632.245	328
632.451	318
632.657	332
632.863	341
633.069	328
633.275	339
633.481	307
633.688	327
633.893	326
634.099	331
634.305	331
634.511	320
634.717	335
634.923	318
635.129	312
635.335	324
635.541	333
635.747	324
635.952	309
636.158	318
636.364	320
636.57	308
636.775	303
636.981	307
637.187	313
637.392	290
637.598	301
637.804	302
638.009	324
638.215	322
638.421	314
638.626	288
638.832	309
639.037	297
639.243	278
639.448	301
639.654	299
639.859	294
640.065	290
640.27	292
640.475	273
640.681	301
640.886	296
641.091	310
641.297	287
641.502	297
641.707	302
641.913	295
642.118	293
642.323	278
642.528	296
642.733	284
642.939	296
643.144	281
643.349	278
643.554	299
643.759	306
643.964	279
644.169	289
644.374	283
644.579	285
644.784	297
644.989	284
645.194	290
645.399	299
645.604	300
645.809	283
646.014	291
646.219	303
646.423	298
646.628	279
646.833	292
647.038	309
647.243	290
647.447	296
647.652	300
647.857	302
648.062	298
648.266	314
648.471	313
648.676	334
648.88	334
649.085	327
649.289	304
649.494	301
649.698	286
649.903	297
650.107	302
650.312	306
650.516	298
650.721	277
650.925	307
651.13	278
651.334	298
651.539	289
651.743	279
651.947	285
652.152	300
652.356	286
652.56	269
652.764	278
652.969	279
653.173	278
653.377	285
653.581	256
653.785	269
653.99	272
654.194	284
654.398	280
654.602	278
654.806	294
655.01	267
655.214	295
655.418	303
655.622	301
655.826	288
656.03	313
656.234	336
656.438	356
656.642	363
656.846	333
657.049	327
657.253	274
657.457	262
657.661	247
657.865	213
658.068	192
658.272	191
658.476	185
658.68	180
658.883	169
659.087	155
659.291	161
659.494	145
659.698	143
659.901	128
660.105	131
660.309	135
660.512	125
660.716	112
660.919	107
661.123	111
661.326	126
661.53	105
661.733	106
661.936	117
662.14	110
662.343	95
662.546	85
662.75	94
662.953	89
663.156	85
663.36	84
663.563	81
663.766	81
663.969	104
664.173	92
664.376	95
664.579	87
664.782	88
664.985	101
665.188	95
665.391	92
665.594	62
665.797	81
666	92
666.203	86
666.406	85
666.609	92
666.812	71
667.015	89
667.218	89
667.421	101
667.624	92
667.827	88
668.03	77
668.232	69
668.435	73
668.638	77
668.841	91
669.043	91
669.246	65
669.449	94
669.651	87
669.854	73
670.057	64
670.259	81
670.462	70
670.665	80
670.867	86
671.07	83
671.272	87
671.475	88
671.677	86
671.88	83
672.082	76
672.284	80
672.487	79
672.689	80
672.892	90
