Data from NiCl2@0.25M.TitratingCurve.Agarose3%dH2O.NegLispCup.LampEnergy10.LIBS07252019_HRD10591_18-25-38-573.txt Node
Date: Thu Jul 25 18:25:38 EDT 2019
User: cochatt
Spectrometer: HR+D1059
Trigger mode: 1
Integration Time (sec): 1.000000E-1
Scans to average: 1
Electric dark correction enabled: true
Nonlinearity correction enabled: false
Boxcar width: 0
XAxis mode: Wavelengths
Number of Pixels in Spectrum: 2048
>>>>>Begin Spectral Data<<<<<
223.165	-11
223.4	-11
223.635	-11
223.869	-23
224.104	-28
224.338	-10
224.573	-8
224.808	-26
225.042	-24
225.277	-7
225.511	17
225.746	10
225.98	15
226.215	5
226.449	12
226.683	28
226.918	21
227.152	29
227.387	34
227.621	37
227.856	44
228.09	49
228.324	49
228.559	54
228.793	72
229.027	127
229.262	138
229.496	134
229.73	132
229.964	148
230.199	142
230.433	139
230.667	169
230.901	164
231.136	160
231.37	166
231.604	181
231.838	171
232.072	167
232.306	174
232.541	184
232.775	176
233.009	173
233.243	164
233.477	162
233.711	188
233.945	183
234.179	179
234.413	181
234.647	174
234.881	167
235.115	173
235.349	187
235.583	176
235.817	193
236.051	182
236.285	181
236.519	165
236.753	173
236.987	185
237.221	193
237.455	161
237.689	188
237.922	200
238.156	228
238.39	215
238.624	208
238.858	199
239.091	192
239.325	192
239.559	198
239.793	213
240.027	219
240.26	199
240.494	205
240.728	224
240.961	221
241.195	221
241.429	237
241.662	223
241.896	224
242.13	226
242.363	238
242.597	221
242.83	238
243.064	240
243.298	246
243.531	261
243.765	264
243.998	246
244.232	263
244.465	277
244.699	250
244.932	264
245.166	273
245.399	265
245.633	267
245.866	276
246.099	272
246.333	279
246.566	269
246.8	267
247.033	275
247.266	268
247.5	286
247.733	299
247.966	278
248.2	298
248.433	315
248.666	303
248.899	307
249.133	299
249.366	301
249.599	311
249.832	310
250.066	316
250.299	288
250.532	303
250.765	297
250.998	323
251.231	304
251.465	321
251.698	321
251.931	310
252.164	315
252.397	342
252.63	340
252.863	330
253.096	347
253.329	347
253.562	340
253.795	382
254.028	355
254.261	336
254.494	332
254.727	356
254.96	370
255.193	357
255.426	362
255.659	343
255.892	361
256.124	366
256.357	364
256.59	369
256.823	363
257.056	353
257.289	377
257.521	372
257.754	369
257.987	366
258.22	380
258.452	375
258.685	381
258.918	375
259.151	387
259.383	391
259.616	369
259.849	388
260.081	371
260.314	383
260.547	423
260.779	404
261.012	401
261.244	402
261.477	395
261.71	407
261.942	390
262.175	410
262.407	403
262.64	412
262.872	405
263.105	416
263.337	410
263.57	420
263.802	421
264.035	441
264.267	431
264.499	443
264.732	443
264.964	424
265.197	424
265.429	431
265.661	423
265.894	452
266.126	445
266.358	435
266.591	445
266.823	451
267.055	443
267.287	456
267.52	439
267.752	464
267.984	468
268.216	461
268.448	474
268.681	459
268.913	488
269.145	446
269.377	459
269.609	455
269.841	453
270.073	466
270.306	451
270.538	470
270.77	471
271.002	472
271.234	494
271.466	477
271.698	487
271.93	490
272.162	491
272.394	518
272.626	465
272.858	496
273.09	517
273.322	504
273.553	511
273.785	503
274.017	504
274.249	505
274.481	501
274.713	495
274.945	535
275.176	508
275.408	538
275.64	546
275.872	548
276.104	526
276.335	523
276.567	503
276.799	517
277.031	527
277.262	517
277.494	532
277.726	523
277.957	546
278.189	536
278.421	546
278.652	575
278.884	549
279.115	558
279.347	583
279.579	568
279.81	543
280.042	583
280.273	568
280.505	551
280.736	571
280.968	597
281.199	581
281.431	603
281.662	579
281.894	608
282.125	569
282.356	584
282.588	592
282.819	599
283.051	615
283.282	619
283.513	595
283.745	597
283.976	589
284.207	615
284.439	641
284.67	631
284.901	607
285.132	594
285.364	621
285.595	622
285.826	633
286.057	637
286.288	612
286.52	634
286.751	644
286.982	648
287.213	653
287.444	647
287.675	650
287.906	647
288.138	653
288.369	637
288.6	657
288.831	662
289.062	671
289.293	662
289.524	644
289.755	673
289.986	655
290.217	659
290.448	678
290.679	665
290.91	694
291.141	671
291.371	676
291.602	673
291.833	665
292.064	698
292.295	665
292.526	674
292.757	661
292.987	664
293.218	669
293.449	680
293.68	676
293.91	663
294.141	675
294.372	673
294.603	697
294.833	687
295.064	691
295.295	686
295.525	682
295.756	655
295.987	693
296.217	702
296.448	699
296.679	684
296.909	696
297.14	697
297.37	741
297.601	723
297.831	722
298.062	733
298.292	726
298.523	752
298.753	736
298.984	736
299.214	710
299.445	721
299.675	710
299.905	760
300.136	739
300.366	775
300.597	719
300.827	757
301.057	757
301.288	763
301.518	760
301.748	784
301.979	788
302.209	787
302.439	769
302.669	795
302.9	770
303.13	752
303.36	766
303.59	758
303.82	759
304.051	755
304.281	782
304.511	743
304.741	766
304.971	768
305.201	784
305.431	774
305.661	770
305.891	749
306.121	761
306.352	744
306.582	740
306.812	741
307.042	726
307.272	723
307.502	732
307.731	753
307.961	755
308.191	755
308.421	744
308.651	748
308.881	763
309.111	727
309.341	743
309.571	756
309.8	744
310.03	727
310.26	732
310.49	744
310.72	730
310.949	780
311.179	766
311.409	752
311.639	754
311.868	756
312.098	757
312.328	777
312.557	775
312.787	766
313.017	775
313.246	802
313.476	781
313.706	799
313.935	836
314.165	823
314.394	802
314.624	833
314.853	796
315.083	807
315.312	807
315.542	806
315.771	780
316.001	795
316.23	806
316.46	792
316.689	776
316.919	784
317.148	767
317.377	776
317.607	767
317.836	763
318.065	796
318.295	807
318.524	787
318.753	793
318.983	797
319.212	757
319.441	773
319.67	811
319.9	791
320.129	789
320.358	784
320.587	801
320.816	776
321.046	797
321.275	791
321.504	809
321.733	784
321.962	792
322.191	802
322.42	781
322.649	803
322.878	800
323.108	796
323.337	821
323.566	781
323.795	811
324.024	809
324.253	816
324.482	805
324.71	815
324.939	814
325.168	835
325.397	830
325.626	837
325.855	846
326.084	863
326.313	879
326.542	891
326.77	889
326.999	858
327.228	866
327.457	848
327.686	847
327.914	868
328.143	870
328.372	855
328.6	873
328.829	883
329.058	849
329.287	864
329.515	848
329.744	878
329.972	889
330.201	895
330.43	904
330.658	903
330.887	912
331.115	924
331.344	936
331.572	919
331.801	957
332.03	945
332.258	977
332.486	988
332.715	1008
332.943	1059
333.172	1083
333.4	1136
333.629	1188
333.857	1190
334.085	1207
334.314	1181
334.542	1184
334.771	1166
334.999	1135
335.227	1144
335.455	1087
335.684	1072
335.912	1077
336.14	1102
336.369	1051
336.597	1075
336.825	1076
337.053	1065
337.281	1006
337.51	1011
337.738	1014
337.966	986
338.194	943
338.422	947
338.65	949
338.878	921
339.106	954
339.334	952
339.562	928
339.79	916
340.018	918
340.246	910
340.474	927
340.702	885
340.93	906
341.158	896
341.386	900
341.614	925
341.842	915
342.07	899
342.298	875
342.526	913
342.754	888
342.981	920
343.209	923
343.437	943
343.665	1006
343.893	1088
344.12	1126
344.348	1125
344.576	1058
344.804	1033
345.031	949
345.259	916
345.487	922
345.714	918
345.942	905
346.17	880
346.397	903
346.625	873
346.853	858
347.08	839
347.308	870
347.535	879
347.763	871
347.99	869
348.218	877
348.445	887
348.673	873
348.9	891
349.128	855
349.355	868
349.583	856
349.81	831
350.037	835
350.265	831
350.492	847
350.72	832
350.947	840
351.174	820
351.402	827
351.629	860
351.856	838
352.083	849
352.311	848
352.538	846
352.765	856
352.992	821
353.22	800
353.447	813
353.674	827
353.901	838
354.128	787
354.355	795
354.583	823
354.81	827
355.037	853
355.264	852
355.491	825
355.718	834
355.945	847
356.172	831
356.399	857
356.626	863
356.853	855
357.08	832
357.307	849
357.534	835
357.761	843
357.988	864
358.215	862
358.441	840
358.668	847
358.895	853
359.122	835
359.349	821
359.576	841
359.802	849
360.029	851
360.256	832
360.483	841
360.709	860
360.936	836
361.163	867
361.39	842
361.616	831
361.843	838
362.07	850
362.296	844
362.523	840
362.749	844
362.976	840
363.203	844
363.429	850
363.656	849
363.882	845
364.109	847
364.335	845
364.562	834
364.788	825
365.015	872
365.241	823
365.468	837
365.694	838
365.92	863
366.147	831
366.373	856
366.599	814
366.826	830
367.052	845
367.278	851
367.505	854
367.731	854
367.957	844
368.184	835
368.41	851
368.636	873
368.862	848
369.089	852
369.315	847
369.541	855
369.767	847
369.993	875
370.219	851
370.445	869
370.672	895
370.898	879
371.124	917
371.35	913
371.576	914
371.802	947
372.028	891
372.254	914
372.48	914
372.706	918
372.932	967
373.158	979
373.384	920
373.61	923
373.835	919
374.061	922
374.287	909
374.513	938
374.739	1002
374.965	1008
375.191	1047
375.416	1014
375.642	987
375.868	982
376.094	963
376.319	941
376.545	921
376.771	943
376.997	913
377.222	925
377.448	936
377.674	911
377.899	927
378.125	933
378.35	901
378.576	914
378.802	876
379.027	892
379.253	921
379.478	893
379.704	903
379.929	883
380.155	922
380.38	892
380.606	899
380.831	930
381.057	934
381.282	910
381.507	922
381.733	933
381.958	947
382.184	909
382.409	938
382.634	979
382.86	956
383.085	930
383.31	979
383.535	996
383.761	1015
383.986	1039
384.211	1061
384.436	1067
384.662	1106
384.887	1083
385.112	1113
385.337	1095
385.562	1124
385.787	1145
386.013	1128
386.238	1135
386.463	1132
386.688	1127
386.913	1127
387.138	1104
387.363	1143
387.588	1097
387.813	1105
388.038	1114
388.263	1112
388.488	1130
388.713	1109
388.938	1113
389.163	1092
389.387	1100
389.612	1113
389.837	1096
390.062	1143
390.287	1091
390.512	1119
390.736	1113
390.961	1141
391.186	1149
391.411	1208
391.636	1225
391.86	1259
392.085	1270
392.31	1277
392.534	1293
392.759	1226
392.984	1232
393.208	1234
393.433	1212
393.658	1191
393.882	1167
394.107	1153
394.331	1218
394.556	1186
394.78	1225
395.005	1211
395.229	1212
395.454	1262
395.678	1267
395.903	1289
396.127	1276
396.352	1251
396.576	1180
396.801	1196
397.025	1198
397.249	1256
397.474	1301
397.698	1291
397.922	1298
398.147	1332
398.371	1352
398.595	1384
398.82	1426
399.044	1548
399.268	1697
399.492	1928
399.717	2187
399.941	2159
400.165	2018
400.389	1855
400.613	1663
400.837	1596
401.062	1523
401.286	1516
401.51	1459
401.734	1491
401.958	1500
402.182	1480
402.406	1492
402.63	1528
402.854	1535
403.078	1517
403.302	1575
403.526	1579
403.75	1608
403.974	1614
404.198	1641
404.422	1649
404.645	1651
404.869	1630
405.093	1652
405.317	1628
405.541	1617
405.765	1595
405.988	1615
406.212	1620
406.436	1619
406.66	1623
406.883	1672
407.107	1784
407.331	1847
407.555	1878
407.778	1876
408.002	1827
408.226	1834
408.449	1754
408.673	1640
408.896	1643
409.12	1625
409.344	1646
409.567	1583
409.791	1661
410.014	1619
410.238	1591
410.461	1619
410.685	1568
410.908	1569
411.132	1507
411.355	1476
411.578	1502
411.802	1484
412.025	1507
412.249	1533
412.472	1539
412.695	1488
412.919	1475
413.142	1447
413.365	1431
413.589	1423
413.812	1467
414.035	1425
414.258	1446
414.482	1443
414.705	1448
414.928	1437
415.151	1475
415.374	1436
415.597	1403
415.821	1415
416.044	1393
416.267	1369
416.49	1339
416.713	1374
416.936	1417
417.159	1395
417.382	1415
417.605	1401
417.828	1396
418.051	1412
418.274	1383
418.497	1400
418.72	1446
418.943	1432
419.166	1544
419.389	1659
419.611	1661
419.834	1536
420.057	1452
420.28	1449
420.503	1393
420.726	1383
420.948	1433
421.171	1401
421.394	1399
421.617	1403
421.839	1412
422.062	1429
422.285	1415
422.507	1478
422.73	1445
422.953	1395
423.175	1438
423.398	1489
423.621	1462
423.843	1440
424.066	1473
424.288	1456
424.511	1480
424.733	1444
424.956	1431
425.178	1421
425.401	1433
425.623	1431
425.846	1390
426.068	1377
426.291	1372
426.513	1344
426.735	1304
426.958	1309
427.18	1306
427.402	1288
427.625	1297
427.847	1283
428.069	1280
428.292	1272
428.514	1254
428.736	1257
428.958	1260
429.181	1247
429.403	1228
429.625	1211
429.847	1197
430.069	1211
430.292	1217
430.514	1187
430.736	1211
430.958	1246
431.18	1217
431.402	1207
431.624	1223
431.846	1224
432.068	1255
432.29	1236
432.512	1267
432.734	1223
432.956	1249
433.178	1267
433.4	1228
433.622	1258
433.844	1255
434.066	1246
434.287	1290
434.509	1332
434.731	1382
434.953	1389
435.175	1421
435.397	1416
435.618	1339
435.84	1283
436.062	1254
436.284	1243
436.505	1215
436.727	1247
436.949	1235
437.17	1226
437.392	1215
437.614	1207
437.835	1191
438.057	1228
438.278	1161
438.5	1185
438.721	1174
438.943	1230
439.165	1190
439.386	1187
439.608	1191
439.829	1227
440.05	1210
440.272	1224
440.493	1237
440.715	1276
440.936	1258
441.158	1292
441.379	1362
441.6	1419
441.822	1423
442.043	1423
442.264	1384
442.486	1377
442.707	1390
442.928	1336
443.149	1354
443.371	1380
443.592	1349
443.813	1400
444.034	1419
444.255	1459
444.476	1514
444.698	1601
444.919	1657
445.14	1695
445.361	1576
445.582	1478
445.803	1364
446.024	1358
446.245	1305
446.466	1262
446.687	1253
446.908	1231
447.129	1233
447.35	1193
447.571	1229
447.792	1197
448.013	1153
448.234	1152
448.455	1122
448.675	1104
448.896	1141
449.117	1129
449.338	1118
449.559	1098
449.779	1094
450	1115
450.221	1120
450.442	1133
450.662	1137
450.883	1142
451.104	1149
451.324	1120
451.545	1132
451.766	1164
451.986	1139
452.207	1127
452.428	1132
452.648	1118
452.869	1085
453.089	1089
453.31	1103
453.53	1082
453.751	1088
453.971	1090
454.192	1078
454.412	1091
454.633	1059
454.853	1090
455.073	1053
455.294	1059
455.514	1070
455.734	1079
455.955	1063
456.175	1031
456.395	1035
456.616	1022
456.836	1075
457.056	1070
457.276	1052
457.497	1087
457.717	1064
457.937	1070
458.157	1121
458.377	1128
458.598	1132
458.818	1143
459.038	1175
459.258	1205
459.478	1260
459.698	1320
459.918	1327
460.138	1405
460.358	1499
460.578	1493
460.798	1520
461.018	1492
461.238	1497
461.458	1484
461.678	1491
461.898	1512
462.118	1555
462.338	1609
462.558	1666
462.777	1712
462.997	1830
463.217	1964
463.437	1989
463.657	1879
463.876	1785
464.096	1789
464.316	1769
464.536	1760
464.755	1666
464.975	1655
465.195	1570
465.414	1481
465.634	1393
465.854	1319
466.073	1295
466.293	1278
466.512	1212
466.732	1193
466.951	1205
467.171	1190
467.391	1183
467.61	1197
467.829	1169
468.049	1129
468.268	1144
468.488	1142
468.707	1131
468.927	1126
469.146	1148
469.365	1151
469.585	1158
469.804	1187
470.023	1212
470.243	1183
470.462	1225
470.681	1250
470.901	1222
471.12	1243
471.339	1210
471.558	1175
471.777	1159
471.997	1150
472.216	1184
472.435	1146
472.654	1087
472.873	1149
473.092	1137
473.311	1121
473.53	1119
473.749	1082
473.968	1086
474.187	1100
474.406	1094
474.625	1142
474.844	1109
475.063	1105
475.282	1131
475.501	1117
475.72	1132
475.939	1126
476.158	1153
476.377	1158
476.596	1134
476.814	1217
477.033	1207
477.252	1216
477.471	1250
477.69	1251
477.908	1289
478.127	1313
478.346	1307
478.564	1324
478.783	1399
479.002	1419
479.22	1427
479.439	1411
479.658	1399
479.876	1424
480.095	1435
480.313	1484
480.532	1491
480.751	1524
480.969	1459
481.188	1425
481.406	1363
481.624	1302
481.843	1307
482.061	1299
482.28	1282
482.498	1295
482.717	1255
482.935	1317
483.153	1268
483.372	1292
483.59	1256
483.808	1289
484.027	1290
484.245	1291
484.463	1244
484.681	1323
484.9	1309
485.118	1324
485.336	1349
485.554	1319
485.772	1324
485.99	1345
486.209	1351
486.427	1362
486.645	1364
486.863	1340
487.081	1342
487.299	1339
487.517	1373
487.735	1334
487.953	1344
488.171	1342
488.389	1319
488.607	1293
488.825	1303
489.043	1305
489.261	1301
489.479	1364
489.696	1341
489.914	1338
490.132	1347
490.35	1371
490.568	1370
490.786	1365
491.003	1357
491.221	1330
491.439	1363
491.657	1362
491.874	1373
492.092	1376
492.31	1364
492.527	1377
492.745	1352
492.963	1436
493.18	1379
493.398	1413
493.615	1397
493.833	1374
494.05	1415
494.268	1461
494.485	1462
494.703	1439
494.92	1438
495.138	1432
495.355	1473
495.573	1467
495.79	1456
496.008	1482
496.225	1474
496.442	1539
496.66	1539
496.877	1562
497.094	1581
497.312	1586
497.529	1668
497.746	1710
497.963	1782
498.181	1821
498.398	1923
498.615	2039
498.832	2183
499.049	2340
499.267	2548
499.484	2838
499.701	3135
499.918	3431
500.135	3903
500.352	4253
500.569	4441
500.786	4419
501.003	4205
501.22	3828
501.437	3433
501.654	3098
501.871	2704
502.088	2519
502.305	2380
502.522	2239
502.739	2142
502.956	1981
503.172	1925
503.389	1826
503.606	1760
503.823	1699
504.04	1714
504.256	1732
504.473	1763
504.69	1734
504.907	1709
505.123	1651
505.34	1547
505.557	1498
505.773	1427
505.99	1437
506.207	1350
506.423	1345
506.64	1340
506.856	1314
507.073	1298
507.289	1295
507.506	1277
507.722	1259
507.939	1262
508.155	1254
508.372	1232
508.588	1230
508.805	1200
509.021	1211
509.238	1180
509.454	1208
509.67	1173
509.887	1195
510.103	1179
510.319	1191
510.536	1172
510.752	1150
510.968	1157
511.184	1156
511.401	1143
511.617	1125
511.833	1139
512.049	1168
512.265	1143
512.481	1149
512.698	1140
512.914	1140
513.13	1183
513.346	1143
513.562	1156
513.778	1161
513.994	1160
514.21	1190
514.426	1152
514.642	1179
514.858	1208
515.074	1191
515.29	1203
515.506	1226
515.721	1224
515.937	1237
516.153	1283
516.369	1337
516.585	1367
516.801	1419
517.016	1431
517.232	1501
517.448	1588
517.664	1635
517.879	1654
518.095	1627
518.311	1631
518.527	1589
518.742	1495
518.958	1446
519.173	1390
519.389	1339
519.605	1280
519.82	1323
520.036	1244
520.251	1172
520.467	1172
520.682	1177
520.898	1149
521.113	1143
521.329	1153
521.544	1118
521.76	1091
521.975	1124
522.19	1103
522.406	1096
522.621	1112
522.836	1083
523.052	1111
523.267	1067
523.482	1097
523.698	1093
523.913	1059
524.128	1081
524.343	1069
524.559	1063
524.774	1064
524.989	1057
525.204	1054
525.419	1041
525.634	1037
525.849	1044
526.064	1027
526.28	1040
526.495	1009
526.71	1023
526.925	1043
527.14	1025
527.355	1019
527.57	1038
527.785	1035
527.999	1029
528.214	1054
528.429	1018
528.644	1018
528.859	1016
529.074	1006
529.289	1014
529.503	1022
529.718	1028
529.933	1028
530.148	1016
530.363	1031
530.577	1012
530.792	1013
531.007	1041
531.221	1048
531.436	1039
531.651	1010
531.865	1016
532.08	1049
532.295	1044
532.509	1027
532.724	1020
532.938	1035
533.153	1027
533.367	1057
533.582	1018
533.796	1011
534.011	1056
534.225	1023
534.44	1016
534.654	1013
534.868	997
535.083	1027
535.297	989
535.511	978
535.726	984
535.94	976
536.154	952
536.369	975
536.583	990
536.797	990
537.011	936
537.225	947
537.44	955
537.654	958
537.868	968
538.082	915
538.296	933
538.51	929
538.724	931
538.938	942
539.153	921
539.367	911
539.581	974
539.795	934
540.009	913
540.222	946
540.436	909
540.65	902
540.864	902
541.078	939
541.292	917
541.506	925
541.72	912
541.934	926
542.147	931
542.361	936
542.575	928
542.789	888
543.002	893
543.216	905
543.43	913
543.644	906
543.857	907
544.071	935
544.285	933
544.498	918
544.712	944
544.925	907
545.139	929
545.352	936
545.566	955
545.779	925
545.993	974
546.206	971
546.42	975
546.633	952
546.847	950
547.06	933
547.274	969
547.487	939
547.7	948
547.914	955
548.127	964
548.34	966
548.554	936
548.767	947
548.98	979
549.193	955
549.407	970
549.62	979
549.833	1006
550.046	976
550.259	951
550.473	932
550.686	949
550.899	912
551.112	940
551.325	944
551.538	958
551.751	950
551.964	969
552.177	948
552.39	997
552.603	999
552.816	1033
553.029	1038
553.242	1034
553.455	1053
553.667	1059
553.88	1050
554.093	1017
554.306	1003
554.519	981
554.732	939
554.944	936
555.157	904
555.37	920
555.583	913
555.795	872
556.008	833
556.221	855
556.433	850
556.646	819
556.859	817
557.071	810
557.284	830
557.496	794
557.709	811
557.921	806
558.134	783
558.346	777
558.559	789
558.771	800
558.984	791
559.196	785
559.409	778
559.621	802
559.833	769
560.046	773
560.258	779
560.47	776
560.683	778
560.895	805
561.107	786
561.32	742
561.532	801
561.744	764
561.956	764
562.168	793
562.381	772
562.593	771
562.805	766
563.017	777
563.229	776
563.441	797
563.653	811
563.865	810
564.077	822
564.289	841
564.501	842
564.713	839
564.925	831
565.137	870
565.349	901
565.561	923
565.773	989
565.985	1007
566.197	1062
566.408	1138
566.62	1217
566.832	1315
567.044	1337
567.255	1343
567.467	1361
567.679	1439
567.891	1497
568.102	1508
568.314	1512
568.526	1349
568.737	1225
568.949	1126
569.161	1031
569.372	963
569.584	921
569.795	883
570.007	880
570.218	843
570.43	840
570.641	827
570.853	801
571.064	823
571.276	814
571.487	812
571.698	768
571.91	724
572.121	751
572.333	699
572.544	706
572.755	662
572.966	662
573.178	680
573.389	678
573.6	653
573.811	648
574.023	637
574.234	641
574.445	642
574.656	653
574.867	643
575.078	647
575.289	635
575.501	627
575.712	609
575.923	621
576.134	598
576.345	648
576.556	613
576.767	559
576.978	595
577.188	597
577.399	589
577.61	588
577.821	586
578.032	573
578.243	595
578.454	569
578.665	580
578.875	559
579.086	553
579.297	558
579.508	549
579.718	577
579.929	559
580.14	552
580.35	542
580.561	552
580.772	557
580.982	561
581.193	555
581.403	538
581.614	526
581.825	535
582.035	522
582.246	536
582.456	520
582.667	520
582.877	543
583.087	536
583.298	536
583.508	538
583.719	533
583.929	520
584.139	547
584.35	520
584.56	544
584.77	535
584.981	493
585.191	505
585.401	525
585.611	509
585.821	523
586.032	549
586.242	539
586.452	543
586.662	525
586.872	487
587.082	517
587.292	515
587.502	503
587.713	525
587.923	493
588.133	502
588.343	523
588.553	545
588.762	505
588.972	512
589.182	519
589.392	500
589.602	511
589.812	521
590.022	530
590.232	521
590.441	495
590.651	521
590.861	527
591.071	540
591.281	551
591.49	546
591.7	544
591.91	563
592.119	563
592.329	577
592.539	591
592.748	601
592.958	636
593.167	631
593.377	647
593.587	660
593.796	668
594.006	681
594.215	687
594.424	667
594.634	647
594.843	653
595.053	589
595.262	593
595.472	590
595.681	548
595.89	531
596.1	527
596.309	524
596.518	489
596.727	494
596.937	470
597.146	495
597.355	478
597.564	475
597.774	464
597.983	441
598.192	440
598.401	449
598.61	449
598.819	461
599.028	440
599.237	455
599.446	431
599.655	426
599.864	423
600.073	433
600.282	426
600.491	443
600.7	429
600.909	451
601.118	433
601.327	433
601.536	418
601.745	410
601.953	422
602.162	417
602.371	419
602.58	418
602.789	405
602.997	408
603.206	416
603.415	401
603.623	396
603.832	392
604.041	394
604.249	410
604.458	392
604.666	398
604.875	405
605.084	397
605.292	380
605.501	407
605.709	405
605.918	395
606.126	393
606.334	380
606.543	389
606.751	391
606.96	409
607.168	386
607.376	395
607.585	369
607.793	375
608.001	391
608.21	385
608.418	363
608.626	375
608.834	383
609.043	381
609.251	390
609.459	376
609.667	374
609.875	378
610.083	363
610.291	366
610.499	353
610.707	367
610.916	357
611.124	373
611.332	369
611.54	379
611.748	379
611.955	363
612.163	375
612.371	356
612.579	342
612.787	355
612.995	366
613.203	360
613.411	344
613.618	359
613.826	368
614.034	349
614.242	373
614.449	364
614.657	357
614.865	369
615.072	359
615.28	346
615.488	346
615.695	342
615.903	360
616.111	371
616.318	381
616.526	383
616.733	354
616.941	342
617.148	361
617.356	355
617.563	359
617.771	352
617.978	333
618.185	364
618.393	358
618.6	342
618.807	348
619.015	344
619.222	332
619.429	349
619.637	334
619.844	347
620.051	345
620.258	329
620.466	333
620.673	336
620.88	328
621.087	331
621.294	345
621.501	336
621.708	336
621.915	364
622.122	314
622.329	319
622.536	315
622.743	327
622.95	321
623.157	316
623.364	323
623.571	327
623.778	343
623.985	324
624.192	319
624.399	341
624.606	311
624.812	329
625.019	321
625.226	313
625.433	333
625.639	311
625.846	298
626.053	286
626.259	299
626.466	284
626.673	315
626.879	331
627.086	315
627.293	308
627.499	306
627.706	282
627.912	303
628.119	290
628.325	291
628.532	282
628.738	300
628.945	308
629.151	298
629.357	302
629.564	307
629.77	279
629.976	296
630.183	274
630.389	291
630.595	285
630.802	279
631.008	243
631.214	260
631.42	273
631.627	262
631.833	286
632.039	262
632.245	261
632.451	264
632.657	266
632.863	257
633.069	259
633.275	272
633.481	249
633.688	240
633.893	271
634.099	261
634.305	267
634.511	260
634.717	248
634.923	261
635.129	263
635.335	255
635.541	280
635.747	249
635.952	251
636.158	248
636.364	269
636.57	263
636.775	285
636.981	263
637.187	249
637.392	244
637.598	257
637.804	259
638.009	263
638.215	237
638.421	243
638.626	248
638.832	263
639.037	247
639.243	243
639.448	235
639.654	259
639.859	243
640.065	246
640.27	251
640.475	245
640.681	229
640.886	235
641.091	237
641.297	230
641.502	240
641.707	233
641.913	241
642.118	217
642.323	249
642.528	249
642.733	216
642.939	228
643.144	219
643.349	231
643.554	229
643.759	234
643.964	227
644.169	235
644.374	235
644.579	234
644.784	222
644.989	222
645.194	225
645.399	230
645.604	219
645.809	212
646.014	240
646.219	232
646.423	236
646.628	221
646.833	217
647.038	216
647.243	233
647.447	237
647.652	239
647.857	233
648.062	228
648.266	225
648.471	225
648.676	237
648.88	238
649.085	229
649.289	231
649.494	233
649.698	214
649.903	200
650.107	213
650.312	217
650.516	203
650.721	196
650.925	191
651.13	209
651.334	195
651.539	198
651.743	180
651.947	201
652.152	193
652.356	206
652.56	200
652.764	177
652.969	174
653.173	172
653.377	156
653.581	176
653.785	177
653.99	157
654.194	163
654.398	172
654.602	187
654.806	169
655.01	160
655.214	159
655.418	166
655.622	153
655.826	164
656.03	166
656.234	159
656.438	166
656.642	148
656.846	170
657.049	144
657.253	165
657.457	146
657.661	148
657.865	137
658.068	152
658.272	117
658.476	109
658.68	114
658.883	123
659.087	129
659.291	129
659.494	124
659.698	126
659.901	110
660.105	109
660.309	119
660.512	118
660.716	102
660.919	107
661.123	101
661.326	91
661.53	90
661.733	101
661.936	103
662.14	79
662.343	86
662.546	94
662.75	89
662.953	94
663.156	97
663.36	72
663.563	91
663.766	96
663.969	86
664.173	90
664.376	85
664.579	70
664.782	91
664.985	95
665.188	104
665.391	73
665.594	91
665.797	83
666	96
666.203	82
666.406	86
666.609	85
666.812	94
667.015	81
667.218	100
667.421	78
667.624	84
667.827	89
668.03	93
668.232	68
668.435	89
668.638	85
668.841	87
669.043	96
669.246	98
669.449	99
669.651	79
669.854	88
670.057	92
670.259	76
670.462	82
670.665	81
670.867	64
671.07	99
671.272	79
671.475	102
671.677	79
671.88	78
672.082	76
672.284	80
672.487	81
672.689	81
672.892	87
