Data from NiCl2@0.0625M.TitratingCurve.Agarose3%dH2O.NegLispCup.LampEnergy10.LIBS07252019_HRD10591_18-34-59-576.txt Node
Date: Thu Jul 25 18:34:59 EDT 2019
User: cochatt
Spectrometer: HR+D1059
Trigger mode: 1
Integration Time (sec): 1.000000E-1
Scans to average: 1
Electric dark correction enabled: true
Nonlinearity correction enabled: false
Boxcar width: 0
XAxis mode: Wavelengths
Number of Pixels in Spectrum: 2048
>>>>>Begin Spectral Data<<<<<
223.165	-3
223.4	-3
223.635	-3
223.869	-21
224.104	-15
224.338	-18
224.573	-4
224.808	-20
225.042	-4
225.277	2
225.511	-7
225.746	-3
225.98	8
226.215	2
226.449	14
226.683	20
226.918	19
227.152	30
227.387	21
227.621	33
227.856	43
228.09	54
228.324	54
228.559	61
228.793	77
229.027	134
229.262	142
229.496	154
229.73	154
229.964	168
230.199	169
230.433	180
230.667	164
230.901	176
231.136	178
231.37	188
231.604	187
231.838	193
232.072	188
232.306	187
232.541	179
232.775	185
233.009	195
233.243	194
233.477	184
233.711	199
233.945	204
234.179	200
234.413	214
234.647	205
234.881	213
235.115	204
235.349	214
235.583	220
235.817	197
236.051	214
236.285	222
236.519	218
236.753	219
236.987	220
237.221	215
237.455	248
237.689	236
237.922	224
238.156	199
238.39	253
238.624	221
238.858	249
239.091	228
239.325	237
239.559	245
239.793	241
240.027	263
240.26	250
240.494	260
240.728	250
240.961	260
241.195	265
241.429	251
241.662	288
241.896	272
242.13	287
242.363	268
242.597	303
242.83	284
243.064	288
243.298	288
243.531	280
243.765	315
243.998	297
244.232	298
244.465	318
244.699	288
244.932	301
245.166	322
245.399	323
245.633	306
245.866	329
246.099	323
246.333	322
246.566	331
246.8	330
247.033	353
247.266	329
247.5	329
247.733	356
247.966	377
248.2	382
248.433	360
248.666	343
248.899	348
249.133	353
249.366	376
249.599	376
249.832	368
250.066	364
250.299	373
250.532	388
250.765	400
250.998	404
251.231	408
251.465	409
251.698	407
251.931	396
252.164	397
252.397	392
252.63	396
252.863	412
253.096	417
253.329	416
253.562	403
253.795	427
254.028	446
254.261	420
254.494	449
254.727	419
254.96	441
255.193	436
255.426	437
255.659	441
255.892	448
256.124	456
256.357	470
256.59	440
256.823	461
257.056	465
257.289	457
257.521	460
257.754	474
257.987	470
258.22	468
258.452	473
258.685	477
258.918	491
259.151	466
259.383	476
259.616	477
259.849	470
260.081	477
260.314	500
260.547	498
260.779	507
261.012	504
261.244	520
261.477	500
261.71	512
261.942	526
262.175	508
262.407	527
262.64	520
262.872	526
263.105	502
263.337	524
263.57	547
263.802	534
264.035	539
264.267	518
264.499	537
264.732	556
264.964	551
265.197	541
265.429	522
265.661	551
265.894	556
266.126	558
266.358	579
266.591	573
266.823	565
267.055	563
267.287	591
267.52	596
267.752	560
267.984	592
268.216	572
268.448	585
268.681	580
268.913	587
269.145	588
269.377	597
269.609	607
269.841	614
270.073	594
270.306	639
270.538	622
270.77	605
271.002	598
271.234	600
271.466	621
271.698	628
271.93	608
272.162	649
272.394	638
272.626	649
272.858	617
273.09	638
273.322	670
273.553	635
273.785	646
274.017	658
274.249	650
274.481	653
274.713	658
274.945	651
275.176	653
275.408	641
275.64	677
275.872	672
276.104	676
276.335	667
276.567	677
276.799	693
277.031	710
277.262	672
277.494	704
277.726	706
277.957	699
278.189	725
278.421	709
278.652	693
278.884	713
279.115	716
279.347	708
279.579	705
279.81	714
280.042	704
280.273	714
280.505	714
280.736	749
280.968	728
281.199	740
281.431	729
281.662	742
281.894	739
282.125	752
282.356	757
282.588	758
282.819	763
283.051	761
283.282	749
283.513	797
283.745	774
283.976	776
284.207	753
284.439	775
284.67	789
284.901	778
285.132	811
285.364	793
285.595	781
285.826	773
286.057	803
286.288	812
286.52	814
286.751	812
286.982	806
287.213	818
287.444	841
287.675	824
287.906	799
288.138	811
288.369	823
288.6	809
288.831	839
289.062	836
289.293	833
289.524	827
289.755	794
289.986	810
290.217	838
290.448	812
290.679	820
290.91	848
291.141	835
291.371	829
291.602	852
291.833	835
292.064	866
292.295	838
292.526	842
292.757	821
292.987	837
293.218	855
293.449	869
293.68	819
293.91	842
294.141	841
294.372	836
294.603	838
294.833	848
295.064	881
295.295	884
295.525	874
295.756	876
295.987	872
296.217	861
296.448	869
296.679	896
296.909	886
297.14	881
297.37	881
297.601	907
297.831	913
298.062	928
298.292	933
298.523	924
298.753	939
298.984	925
299.214	915
299.445	908
299.675	881
299.905	945
300.136	923
300.366	934
300.597	911
300.827	931
301.057	930
301.288	973
301.518	953
301.748	980
301.979	952
302.209	980
302.439	971
302.669	951
302.9	958
303.13	974
303.36	954
303.59	962
303.82	977
304.051	978
304.281	989
304.511	957
304.741	956
304.971	931
305.201	952
305.431	944
305.661	940
305.891	936
306.121	957
306.352	932
306.582	964
306.812	938
307.042	976
307.272	971
307.502	949
307.731	939
307.961	953
308.191	917
308.421	946
308.651	951
308.881	945
309.111	970
309.341	961
309.571	975
309.8	961
310.03	968
310.26	975
310.49	935
310.72	982
310.949	946
311.179	997
311.409	957
311.639	1008
311.868	988
312.098	998
312.328	1026
312.557	1026
312.787	1008
313.017	1014
313.246	1017
313.476	1036
313.706	972
313.935	1062
314.165	1046
314.394	1038
314.624	1046
314.853	1037
315.083	1039
315.312	1036
315.542	1028
315.771	1041
316.001	1044
316.23	993
316.46	1017
316.689	1051
316.919	1053
317.148	1015
317.377	1051
317.607	1020
317.836	993
318.065	1000
318.295	1032
318.524	1042
318.753	1027
318.983	1016
319.212	1010
319.441	1027
319.67	1017
319.9	1006
320.129	1023
320.358	1048
320.587	1038
320.816	1029
321.046	1038
321.275	1041
321.504	1042
321.733	1021
321.962	1016
322.191	1058
322.42	1042
322.649	1030
322.878	1051
323.108	1047
323.337	1062
323.566	1073
323.795	1068
324.024	1082
324.253	1067
324.482	1061
324.71	1061
324.939	1078
325.168	1078
325.397	1086
325.626	1057
325.855	1118
326.084	1099
326.313	1089
326.542	1073
326.77	1128
326.999	1094
327.228	1091
327.457	1109
327.686	1108
327.914	1124
328.143	1119
328.372	1121
328.6	1102
328.829	1106
329.058	1133
329.287	1114
329.515	1134
329.744	1141
329.972	1106
330.201	1148
330.43	1136
330.658	1132
330.887	1154
331.115	1183
331.344	1152
331.572	1158
331.801	1192
332.03	1201
332.258	1222
332.486	1255
332.715	1278
332.943	1282
333.172	1337
333.4	1322
333.629	1374
333.857	1436
334.085	1436
334.314	1396
334.542	1392
334.771	1397
334.999	1394
335.227	1388
335.455	1359
335.684	1373
335.912	1363
336.14	1354
336.369	1330
336.597	1340
336.825	1353
337.053	1332
337.281	1292
337.51	1286
337.738	1255
337.966	1251
338.194	1220
338.422	1218
338.65	1217
338.878	1227
339.106	1251
339.334	1198
339.562	1207
339.79	1207
340.018	1202
340.246	1191
340.474	1191
340.702	1158
340.93	1184
341.158	1175
341.386	1173
341.614	1148
341.842	1162
342.07	1146
342.298	1148
342.526	1199
342.754	1147
342.981	1165
343.209	1171
343.437	1222
343.665	1251
343.893	1340
344.12	1383
344.348	1343
344.576	1304
344.804	1281
345.031	1243
345.259	1217
345.487	1184
345.714	1155
345.942	1166
346.17	1176
346.397	1147
346.625	1126
346.853	1144
347.08	1151
347.308	1114
347.535	1138
347.763	1128
347.99	1117
348.218	1124
348.445	1118
348.673	1090
348.9	1121
349.128	1101
349.355	1094
349.583	1091
349.81	1117
350.037	1113
350.265	1102
350.492	1103
350.72	1061
350.947	1108
351.174	1099
351.402	1106
351.629	1082
351.856	1077
352.083	1092
352.311	1068
352.538	1085
352.765	1072
352.992	1089
353.22	1058
353.447	1070
353.674	1090
353.901	1061
354.128	1084
354.355	1106
354.583	1090
354.81	1091
355.037	1057
355.264	1097
355.491	1074
355.718	1092
355.945	1073
356.172	1061
356.399	1097
356.626	1093
356.853	1093
357.08	1091
357.307	1066
357.534	1086
357.761	1112
357.988	1109
358.215	1069
358.441	1095
358.668	1057
358.895	1090
359.122	1061
359.349	1094
359.576	1122
359.802	1075
360.029	1072
360.256	1072
360.483	1119
360.709	1098
360.936	1084
361.163	1088
361.39	1076
361.616	1077
361.843	1112
362.07	1093
362.296	1092
362.523	1067
362.749	1078
362.976	1093
363.203	1098
363.429	1089
363.656	1112
363.882	1105
364.109	1098
364.335	1092
364.562	1056
364.788	1067
365.015	1100
365.241	1087
365.468	1100
365.694	1086
365.92	1079
366.147	1066
366.373	1076
366.599	1112
366.826	1084
367.052	1074
367.278	1098
367.505	1073
367.731	1078
367.957	1081
368.184	1102
368.41	1093
368.636	1148
368.862	1128
369.089	1081
369.315	1118
369.541	1125
369.767	1122
369.993	1124
370.219	1146
370.445	1132
370.672	1148
370.898	1134
371.124	1170
371.35	1162
371.576	1147
371.802	1212
372.028	1168
372.254	1186
372.48	1184
372.706	1198
372.932	1194
373.158	1249
373.384	1212
373.61	1196
373.835	1196
374.061	1192
374.287	1221
374.513	1219
374.739	1249
374.965	1256
375.191	1287
375.416	1277
375.642	1251
375.868	1232
376.094	1225
376.319	1186
376.545	1190
376.771	1171
376.997	1165
377.222	1189
377.448	1194
377.674	1205
377.899	1182
378.125	1149
378.35	1156
378.576	1130
378.802	1160
379.027	1189
379.253	1159
379.478	1148
379.704	1169
379.929	1160
380.155	1139
380.38	1202
380.606	1152
380.831	1136
381.057	1156
381.282	1194
381.507	1172
381.733	1180
381.958	1193
382.184	1189
382.409	1190
382.634	1207
382.86	1251
383.085	1214
383.31	1236
383.535	1206
383.761	1264
383.986	1268
384.211	1266
384.436	1330
384.662	1336
384.887	1347
385.112	1293
385.337	1390
385.562	1377
385.787	1372
386.013	1375
386.238	1389
386.463	1384
386.688	1371
386.913	1367
387.138	1400
387.363	1398
387.588	1368
387.813	1378
388.038	1389
388.263	1403
388.488	1371
388.713	1410
388.938	1380
389.163	1350
389.387	1366
389.612	1376
389.837	1352
390.062	1373
390.287	1370
390.512	1346
390.736	1360
390.961	1429
391.186	1408
391.411	1460
391.636	1485
391.86	1508
392.085	1554
392.31	1552
392.534	1508
392.759	1494
392.984	1491
393.208	1461
393.433	1467
393.658	1477
393.882	1454
394.107	1456
394.331	1479
394.556	1482
394.78	1454
395.005	1499
395.229	1476
395.454	1520
395.678	1516
395.903	1536
396.127	1516
396.352	1494
396.576	1485
396.801	1446
397.025	1516
397.249	1536
397.474	1552
397.698	1542
397.922	1537
398.147	1567
398.371	1609
398.595	1615
398.82	1683
399.044	1784
399.268	1873
399.492	2108
399.717	2304
399.941	2336
400.165	2172
400.389	2060
400.613	1943
400.837	1850
401.062	1780
401.286	1758
401.51	1723
401.734	1708
401.958	1737
402.182	1739
402.406	1740
402.63	1745
402.854	1740
403.078	1778
403.302	1804
403.526	1816
403.75	1851
403.974	1867
404.198	1769
404.422	1874
404.645	1850
404.869	1859
405.093	1849
405.317	1824
405.541	1834
405.765	1851
405.988	1849
406.212	1830
406.436	1857
406.66	1918
406.883	1924
407.107	2041
407.331	2020
407.555	2123
407.778	2146
408.002	2102
408.226	2080
408.449	2012
408.673	1974
408.896	1938
409.12	1933
409.344	1918
409.567	1894
409.791	1914
410.014	1850
410.238	1871
410.461	1857
410.685	1844
410.908	1829
411.132	1806
411.355	1792
411.578	1813
411.802	1764
412.025	1796
412.249	1760
412.472	1811
412.695	1743
412.919	1729
413.142	1750
413.365	1740
413.589	1730
413.812	1741
414.035	1697
414.258	1697
414.482	1734
414.705	1749
414.928	1716
415.151	1721
415.374	1694
415.597	1665
415.821	1635
416.044	1696
416.267	1636
416.49	1653
416.713	1631
416.936	1672
417.159	1635
417.382	1658
417.605	1670
417.828	1645
418.051	1641
418.274	1671
418.497	1640
418.72	1668
418.943	1666
419.166	1772
419.389	1888
419.611	1821
419.834	1786
420.057	1730
420.28	1709
420.503	1614
420.726	1580
420.948	1643
421.171	1648
421.394	1666
421.617	1637
421.839	1643
422.062	1637
422.285	1620
422.507	1676
422.73	1666
422.953	1684
423.175	1648
423.398	1664
423.621	1657
423.843	1697
424.066	1671
424.288	1701
424.511	1638
424.733	1649
424.956	1678
425.178	1694
425.401	1677
425.623	1684
425.846	1620
426.068	1645
426.291	1613
426.513	1572
426.735	1558
426.958	1565
427.18	1537
427.402	1540
427.625	1534
427.847	1526
428.069	1523
428.292	1548
428.514	1525
428.736	1527
428.958	1532
429.181	1500
429.403	1475
429.625	1484
429.847	1469
430.069	1470
430.292	1470
430.514	1453
430.736	1504
430.958	1504
431.18	1514
431.402	1521
431.624	1490
431.846	1535
432.068	1540
432.29	1518
432.512	1485
432.734	1517
432.956	1547
433.178	1533
433.4	1508
433.622	1532
433.844	1534
434.066	1562
434.287	1552
434.509	1590
434.731	1645
434.953	1656
435.175	1677
435.397	1690
435.618	1623
435.84	1558
436.062	1552
436.284	1536
436.505	1516
436.727	1527
436.949	1512
437.17	1513
437.392	1522
437.614	1454
437.835	1425
438.057	1459
438.278	1450
438.5	1453
438.721	1428
438.943	1439
439.165	1451
439.386	1452
439.608	1493
439.829	1471
440.05	1494
440.272	1457
440.493	1493
440.715	1484
440.936	1524
441.158	1598
441.379	1559
441.6	1599
441.822	1637
442.043	1637
442.264	1600
442.486	1563
442.707	1588
442.928	1584
443.149	1637
443.371	1578
443.592	1613
443.813	1633
444.034	1627
444.255	1696
444.476	1700
444.698	1817
444.919	1781
445.14	1897
445.361	1784
445.582	1655
445.803	1612
446.024	1566
446.245	1557
446.466	1538
446.687	1467
446.908	1486
447.129	1473
447.35	1464
447.571	1444
447.792	1402
448.013	1389
448.234	1412
448.455	1377
448.675	1346
448.896	1352
449.117	1314
449.338	1349
449.559	1362
449.779	1330
450	1342
450.221	1336
450.442	1348
450.662	1330
450.883	1340
451.104	1389
451.324	1336
451.545	1320
451.766	1338
451.986	1351
452.207	1300
452.428	1320
452.648	1314
452.869	1274
453.089	1297
453.31	1320
453.53	1284
453.751	1257
453.971	1295
454.192	1296
454.412	1283
454.633	1264
454.853	1265
455.073	1274
455.294	1236
455.514	1251
455.734	1252
455.955	1240
456.175	1238
456.395	1271
456.616	1284
456.836	1290
457.056	1297
457.276	1233
457.497	1289
457.717	1242
457.937	1291
458.157	1289
458.377	1342
458.598	1352
458.818	1376
459.038	1390
459.258	1445
459.478	1511
459.698	1490
459.918	1558
460.138	1625
460.358	1626
460.578	1638
460.798	1661
461.018	1726
461.238	1656
461.458	1684
461.678	1654
461.898	1754
462.118	1736
462.338	1829
462.558	1829
462.777	1868
462.997	1969
463.217	2083
463.437	2116
463.657	2033
463.876	1913
464.096	1938
464.316	1895
464.536	1887
464.755	1857
464.975	1835
465.195	1757
465.414	1669
465.634	1558
465.854	1574
466.073	1538
466.293	1523
466.512	1474
466.732	1451
466.951	1400
467.171	1356
467.391	1411
467.61	1414
467.829	1420
468.049	1416
468.268	1368
468.488	1396
468.707	1359
468.927	1351
469.146	1368
469.365	1394
469.585	1363
469.804	1428
470.023	1428
470.243	1428
470.462	1468
470.681	1424
470.901	1476
471.12	1428
471.339	1408
471.558	1414
471.777	1424
471.997	1379
472.216	1368
472.435	1383
472.654	1344
472.873	1346
473.092	1347
473.311	1345
473.53	1367
473.749	1355
473.968	1377
474.187	1353
474.406	1351
474.625	1368
474.844	1366
475.063	1405
475.282	1381
475.501	1369
475.72	1416
475.939	1376
476.158	1418
476.377	1426
476.596	1435
476.814	1416
477.033	1464
477.252	1460
477.471	1507
477.69	1558
477.908	1530
478.127	1597
478.346	1654
478.564	1656
478.783	1643
479.002	1660
479.22	1690
479.439	1685
479.658	1687
479.876	1737
480.095	1705
480.313	1720
480.532	1800
480.751	1777
480.969	1741
481.188	1724
481.406	1707
481.624	1670
481.843	1660
482.061	1678
482.28	1670
482.498	1663
482.717	1662
482.935	1664
483.153	1676
483.372	1662
483.59	1670
483.808	1706
484.027	1697
484.245	1734
484.463	1741
484.681	1742
484.9	1765
485.118	1781
485.336	1768
485.554	1810
485.772	1818
485.99	1833
486.209	1777
486.427	1797
486.645	1805
486.863	1768
487.081	1792
487.299	1765
487.517	1794
487.735	1762
487.953	1800
488.171	1805
488.389	1777
488.607	1785
488.825	1705
489.043	1730
489.261	1730
489.479	1763
489.696	1688
489.914	1706
490.132	1726
490.35	1726
490.568	1717
490.786	1692
491.003	1716
491.221	1728
491.439	1742
491.657	1677
491.874	1710
492.092	1662
492.31	1721
492.527	1741
492.745	1701
492.963	1699
493.18	1708
493.398	1708
493.615	1725
493.833	1664
494.05	1740
494.268	1725
494.485	1755
494.703	1749
494.92	1757
495.138	1714
495.355	1749
495.573	1762
495.79	1774
496.008	1769
496.225	1809
496.442	1800
496.66	1811
496.877	1841
497.094	1870
497.312	1862
497.529	1943
497.746	2002
497.963	2003
498.181	2126
498.398	2183
498.615	2296
498.832	2433
499.049	2514
499.267	2737
499.484	2914
499.701	3156
499.918	3405
500.135	3762
500.352	4036
500.569	4208
500.786	4216
501.003	3967
501.22	3737
501.437	3303
501.654	3111
501.871	2855
502.088	2624
502.305	2504
502.522	2402
502.739	2319
502.956	2147
503.172	2122
503.389	2037
503.606	2004
503.823	1982
504.04	1960
504.256	1913
504.473	1962
504.69	1956
504.907	1897
505.123	1840
505.34	1736
505.557	1678
505.773	1684
505.99	1642
506.207	1593
506.423	1566
506.64	1570
506.856	1521
507.073	1526
507.289	1472
507.506	1492
507.722	1483
507.939	1484
508.155	1454
508.372	1464
508.588	1458
508.805	1430
509.021	1396
509.238	1406
509.454	1373
509.67	1397
509.887	1388
510.103	1377
510.319	1350
510.536	1387
510.752	1364
510.968	1332
511.184	1376
511.401	1373
511.617	1366
511.833	1334
512.049	1338
512.265	1350
512.481	1365
512.698	1366
512.914	1349
513.13	1373
513.346	1337
513.562	1363
513.778	1369
513.994	1328
514.21	1375
514.426	1412
514.642	1374
514.858	1396
515.074	1352
515.29	1402
515.506	1421
515.721	1410
515.937	1422
516.153	1465
516.369	1440
516.585	1532
516.801	1577
517.016	1618
517.232	1678
517.448	1682
517.664	1725
517.879	1725
518.095	1755
518.311	1699
518.527	1675
518.742	1624
518.958	1562
519.173	1506
519.389	1504
519.605	1484
519.82	1446
520.036	1452
520.251	1343
520.467	1357
520.682	1365
520.898	1316
521.113	1315
521.329	1309
521.544	1316
521.76	1293
521.975	1250
522.19	1262
522.406	1261
522.621	1277
522.836	1246
523.052	1269
523.267	1252
523.482	1264
523.698	1252
523.913	1279
524.128	1239
524.343	1264
524.559	1213
524.774	1225
524.989	1222
525.204	1225
525.419	1215
525.634	1202
525.849	1232
526.064	1208
526.28	1211
526.495	1174
526.71	1188
526.925	1196
527.14	1176
527.355	1156
527.57	1154
527.785	1164
527.999	1209
528.214	1188
528.429	1173
528.644	1212
528.859	1200
529.074	1180
529.289	1172
529.503	1176
529.718	1176
529.933	1151
530.148	1189
530.363	1186
530.577	1172
530.792	1196
531.007	1184
531.221	1161
531.436	1153
531.651	1183
531.865	1182
532.08	1126
532.295	1184
532.509	1172
532.724	1192
532.938	1155
533.153	1185
533.367	1132
533.582	1150
533.796	1136
534.011	1179
534.225	1170
534.44	1146
534.654	1128
534.868	1160
535.083	1146
535.297	1148
535.511	1136
535.726	1130
535.94	1136
536.154	1105
536.369	1068
536.583	1088
536.797	1087
537.011	1083
537.225	1123
537.44	1095
537.654	1094
537.868	1106
538.082	1092
538.296	1106
538.51	1089
538.724	1082
538.938	1070
539.153	1046
539.367	1075
539.581	1060
539.795	1033
540.009	1052
540.222	1036
540.436	1069
540.65	1015
540.864	1042
541.078	1072
541.292	1034
541.506	1026
541.72	1038
541.934	1033
542.147	1046
542.361	1041
542.575	1013
542.789	1026
543.002	1009
543.216	1036
543.43	1037
543.644	1039
543.857	1020
544.071	1033
544.285	1031
544.498	1037
544.712	1016
544.925	1052
545.139	1053
545.352	1071
545.566	1049
545.779	1048
545.993	984
546.206	1052
546.42	1025
546.633	1050
546.847	1024
547.06	1063
547.274	1033
547.487	1016
547.7	1037
547.914	1045
548.127	1051
548.34	1054
548.554	1061
548.767	1048
548.98	1072
549.193	1048
549.407	1067
549.62	1056
549.833	1094
550.046	1070
550.259	1079
550.473	1048
550.686	1054
550.899	1053
551.112	1014
551.325	1053
551.538	1033
551.751	1042
551.964	1049
552.177	1037
552.39	1057
552.603	1070
552.816	1087
553.029	1112
553.242	1101
553.455	1112
553.667	1136
553.88	1090
554.093	1081
554.306	1076
554.519	1078
554.732	1016
554.944	1001
555.157	987
555.37	998
555.583	971
555.795	972
556.008	948
556.221	931
556.433	936
556.646	944
556.859	927
557.071	893
557.284	904
557.496	917
557.709	929
557.921	888
558.134	881
558.346	893
558.559	914
558.771	885
558.984	886
559.196	871
559.409	877
559.621	889
559.833	865
560.046	854
560.258	845
560.47	868
560.683	867
560.895	854
561.107	864
561.32	864
561.532	874
561.744	864
561.956	838
562.168	864
562.381	884
562.593	888
562.805	864
563.017	879
563.229	869
563.441	861
563.653	899
563.865	871
564.077	897
564.289	894
564.501	904
564.713	915
564.925	934
565.137	978
565.349	963
565.561	1004
565.773	1052
565.985	1050
566.197	1108
566.408	1164
566.62	1219
566.832	1304
567.044	1337
567.255	1330
567.467	1352
567.679	1420
567.891	1477
568.102	1465
568.314	1412
568.526	1310
568.737	1229
568.949	1147
569.161	1081
569.372	1026
569.584	989
569.795	936
570.007	929
570.218	922
570.43	897
570.641	875
570.853	902
571.064	858
571.276	880
571.487	861
571.698	828
571.91	792
572.121	773
572.333	782
572.544	770
572.755	754
572.966	748
573.178	745
573.389	737
573.6	733
573.811	705
574.023	718
574.234	707
574.445	696
574.656	714
574.867	707
575.078	712
575.289	677
575.501	705
575.712	668
575.923	670
576.134	680
576.345	684
576.556	682
576.767	659
576.978	658
577.188	661
577.399	650
577.61	650
577.821	654
578.032	637
578.243	652
578.454	653
578.665	644
578.875	627
579.086	607
579.297	610
579.508	644
579.718	612
579.929	605
580.14	602
580.35	605
580.561	619
580.772	610
580.982	613
581.193	611
581.403	605
581.614	617
581.825	588
582.035	608
582.246	595
582.456	577
582.667	588
582.877	587
583.087	610
583.298	593
583.508	592
583.719	594
583.929	604
584.139	580
584.35	597
584.56	584
584.77	586
584.981	579
585.191	566
585.401	591
585.611	570
585.821	564
586.032	576
586.242	583
586.452	573
586.662	557
586.872	544
587.082	551
587.292	556
587.502	549
587.713	564
587.923	590
588.133	545
588.343	554
588.553	540
588.762	562
588.972	570
589.182	573
589.392	570
589.602	551
589.812	579
590.022	571
590.232	573
590.441	567
590.651	578
590.861	580
591.071	584
591.281	562
591.49	600
591.7	611
591.91	590
592.119	614
592.329	617
592.539	629
592.748	629
592.958	655
593.167	664
593.377	666
593.587	670
593.796	659
594.006	701
594.215	654
594.424	699
594.634	659
594.843	644
595.053	650
595.262	601
595.472	588
595.681	581
595.89	588
596.1	562
596.309	551
596.518	546
596.727	530
596.937	490
597.146	502
597.355	520
597.564	525
597.774	525
597.983	496
598.192	497
598.401	514
598.61	518
598.819	468
599.028	492
599.237	461
599.446	486
599.655	468
599.864	472
600.073	445
600.282	462
600.491	465
600.7	458
600.909	472
601.118	464
601.327	441
601.536	452
601.745	459
601.953	446
602.162	469
602.371	449
602.58	449
602.789	447
602.997	449
603.206	446
603.415	466
603.623	449
603.832	441
604.041	435
604.249	435
604.458	435
604.666	453
604.875	425
605.084	442
605.292	435
605.501	440
605.709	411
605.918	435
606.126	433
606.334	428
606.543	427
606.751	436
606.96	422
607.168	410
607.376	427
607.585	438
607.793	426
608.001	412
608.21	408
608.418	417
608.626	417
608.834	414
609.043	407
609.251	422
609.459	426
609.667	427
609.875	400
610.083	421
610.291	398
610.499	404
610.707	400
610.916	406
611.124	390
611.332	406
611.54	416
611.748	416
611.955	410
612.163	392
612.371	401
612.579	388
612.787	392
612.995	410
613.203	420
613.411	410
613.618	405
613.826	389
614.034	401
614.242	371
614.449	386
614.657	401
614.865	381
615.072	386
615.28	407
615.488	386
615.695	390
615.903	384
616.111	396
616.318	393
616.526	402
616.733	392
616.941	391
617.148	416
617.356	395
617.563	396
617.771	398
617.978	396
618.185	383
618.393	394
618.6	372
618.807	388
619.015	396
619.222	383
619.429	378
619.637	366
619.844	386
620.051	374
620.258	379
620.466	374
620.673	357
620.88	356
621.087	363
621.294	366
621.501	379
621.708	377
621.915	372
622.122	361
622.329	361
622.536	348
622.743	376
622.95	340
623.157	361
623.364	372
623.571	361
623.778	348
623.985	354
624.192	347
624.399	358
624.606	342
624.812	345
625.019	334
625.226	352
625.433	355
625.639	340
625.846	337
626.053	324
626.259	337
626.466	326
626.673	340
626.879	313
627.086	325
627.293	335
627.499	320
627.706	334
627.912	325
628.119	340
628.325	328
628.532	321
628.738	336
628.945	331
629.151	334
629.357	311
629.564	322
629.77	312
629.976	300
630.183	312
630.389	319
630.595	305
630.802	293
631.008	312
631.214	320
631.42	293
631.627	304
631.833	322
632.039	309
632.245	304
632.451	290
632.657	297
632.863	300
633.069	295
633.275	298
633.481	289
633.688	291
633.893	280
634.099	290
634.305	301
634.511	273
634.717	288
634.923	260
635.129	278
635.335	296
635.541	286
635.747	302
635.952	293
636.158	281
636.364	286
636.57	290
636.775	292
636.981	292
637.187	285
637.392	286
637.598	290
637.804	288
638.009	285
638.215	266
638.421	274
638.626	289
638.832	279
639.037	276
639.243	280
639.448	286
639.654	274
639.859	275
640.065	273
640.27	281
640.475	273
640.681	276
640.886	266
641.091	267
641.297	285
641.502	271
641.707	262
641.913	282
642.118	268
642.323	259
642.528	258
642.733	279
642.939	272
643.144	264
643.349	258
643.554	258
643.759	237
643.964	256
644.169	268
644.374	264
644.579	272
644.784	266
644.989	266
645.194	257
645.399	276
645.604	269
645.809	262
646.014	275
646.219	268
646.423	278
646.628	285
646.833	260
647.038	284
647.243	278
647.447	277
647.652	264
647.857	277
648.062	296
648.266	281
648.471	301
648.676	313
648.88	286
649.085	296
649.289	282
649.494	283
649.698	260
649.903	295
650.107	278
650.312	279
650.516	281
650.721	268
650.925	266
651.13	268
651.334	253
651.539	276
651.743	264
651.947	274
652.152	258
652.356	273
652.56	253
652.764	265
652.969	273
653.173	247
653.377	268
653.581	262
653.785	254
653.99	252
654.194	264
654.398	263
654.602	281
654.806	289
655.01	291
655.214	279
655.418	294
655.622	316
655.826	322
656.03	313
656.234	348
656.438	364
656.642	366
656.846	365
657.049	337
657.253	293
657.457	272
657.661	258
657.865	213
658.068	212
658.272	205
658.476	169
658.68	177
658.883	152
659.087	138
659.291	142
659.494	136
659.698	135
659.901	126
660.105	128
660.309	125
660.512	112
660.716	107
660.919	108
661.123	110
661.326	105
661.53	98
661.733	94
661.936	99
662.14	97
662.343	81
662.546	93
662.75	94
662.953	90
663.156	73
663.36	96
663.563	100
663.766	87
663.969	84
664.173	88
664.376	78
664.579	79
664.782	67
664.985	77
665.188	82
665.391	85
665.594	81
665.797	93
666	89
666.203	87
666.406	91
666.609	71
666.812	68
667.015	76
667.218	84
667.421	89
667.624	86
667.827	75
668.03	82
668.232	83
668.435	65
668.638	70
668.841	79
669.043	77
669.246	82
669.449	90
669.651	82
669.854	89
670.057	79
670.259	72
670.462	76
670.665	94
670.867	93
671.07	78
671.272	84
671.475	72
671.677	73
671.88	91
672.082	94
672.284	92
672.487	79
672.689	90
672.892	90
