Data from NiCl2@0.0625M.TitratingCurve.Agarose3%dH2O.NegLispCup.LampEnergy10.LIBS07252019_HRD10591_18-35-29-577.txt Node
Date: Thu Jul 25 18:35:29 EDT 2019
User: cochatt
Spectrometer: HR+D1059
Trigger mode: 1
Integration Time (sec): 1.000000E-1
Scans to average: 1
Electric dark correction enabled: true
Nonlinearity correction enabled: false
Boxcar width: 0
XAxis mode: Wavelengths
Number of Pixels in Spectrum: 2048
>>>>>Begin Spectral Data<<<<<
223.165	-23
223.4	-23
223.635	-23
223.869	-26
224.104	-26
224.338	11
224.573	-16
224.808	-21
225.042	-20
225.277	-13
225.511	10
225.746	6
225.98	20
226.215	2
226.449	22
226.683	8
226.918	28
227.152	38
227.387	38
227.621	39
227.856	39
228.09	53
228.324	55
228.559	58
228.793	77
229.027	143
229.262	128
229.496	157
229.73	153
229.964	157
230.199	175
230.433	184
230.667	166
230.901	180
231.136	178
231.37	175
231.604	189
231.838	178
232.072	193
232.306	188
232.541	199
232.775	193
233.009	201
233.243	189
233.477	183
233.711	203
233.945	205
234.179	197
234.413	201
234.647	201
234.881	198
235.115	189
235.349	209
235.583	219
235.817	208
236.051	207
236.285	219
236.519	233
236.753	206
236.987	213
237.221	207
237.455	233
237.689	218
237.922	257
238.156	246
238.39	233
238.624	220
238.858	255
239.091	244
239.325	237
239.559	254
239.793	243
240.027	263
240.26	259
240.494	243
240.728	257
240.961	261
241.195	257
241.429	267
241.662	284
241.896	290
242.13	276
242.363	300
242.597	275
242.83	282
243.064	308
243.298	300
243.531	281
243.765	312
243.998	308
244.232	312
244.465	305
244.699	289
244.932	329
245.166	335
245.399	320
245.633	320
245.866	307
246.099	314
246.333	341
246.566	324
246.8	308
247.033	330
247.266	342
247.5	316
247.733	356
247.966	350
248.2	355
248.433	328
248.666	352
248.899	353
249.133	365
249.366	366
249.599	379
249.832	372
250.066	379
250.299	375
250.532	361
250.765	375
250.998	374
251.231	389
251.465	381
251.698	390
251.931	380
252.164	401
252.397	409
252.63	401
252.863	402
253.096	428
253.329	420
253.562	415
253.795	433
254.028	439
254.261	423
254.494	422
254.727	424
254.96	408
255.193	433
255.426	426
255.659	429
255.892	443
256.124	435
256.357	434
256.59	429
256.823	442
257.056	473
257.289	454
257.521	440
257.754	475
257.987	458
258.22	471
258.452	458
258.685	477
258.918	476
259.151	489
259.383	489
259.616	472
259.849	492
260.081	486
260.314	484
260.547	491
260.779	480
261.012	510
261.244	476
261.477	499
261.71	505
261.942	502
262.175	520
262.407	522
262.64	537
262.872	520
263.105	498
263.337	501
263.57	528
263.802	511
264.035	536
264.267	540
264.499	536
264.732	532
264.964	544
265.197	531
265.429	539
265.661	532
265.894	554
266.126	543
266.358	546
266.591	562
266.823	563
267.055	564
267.287	572
267.52	560
267.752	556
267.984	577
268.216	569
268.448	573
268.681	570
268.913	586
269.145	588
269.377	591
269.609	581
269.841	605
270.073	602
270.306	586
270.538	598
270.77	598
271.002	594
271.234	617
271.466	595
271.698	581
271.93	611
272.162	614
272.394	603
272.626	621
272.858	623
273.09	593
273.322	624
273.553	652
273.785	622
274.017	643
274.249	632
274.481	666
274.713	652
274.945	658
275.176	638
275.408	654
275.64	655
275.872	666
276.104	668
276.335	633
276.567	664
276.799	677
277.031	681
277.262	670
277.494	680
277.726	677
277.957	670
278.189	700
278.421	704
278.652	681
278.884	691
279.115	696
279.347	711
279.579	731
279.81	688
280.042	694
280.273	725
280.505	719
280.736	700
280.968	744
281.199	719
281.431	703
281.662	720
281.894	731
282.125	744
282.356	744
282.588	748
282.819	728
283.051	747
283.282	743
283.513	748
283.745	750
283.976	768
284.207	766
284.439	761
284.67	783
284.901	789
285.132	799
285.364	786
285.595	802
285.826	758
286.057	795
286.288	777
286.52	792
286.751	795
286.982	806
287.213	795
287.444	802
287.675	816
287.906	802
288.138	810
288.369	797
288.6	809
288.831	822
289.062	821
289.293	810
289.524	800
289.755	812
289.986	830
290.217	818
290.448	839
290.679	839
290.91	830
291.141	837
291.371	832
291.602	844
291.833	845
292.064	816
292.295	856
292.526	854
292.757	846
292.987	811
293.218	842
293.449	843
293.68	853
293.91	834
294.141	816
294.372	833
294.603	830
294.833	835
295.064	852
295.295	873
295.525	853
295.756	858
295.987	847
296.217	869
296.448	872
296.679	880
296.909	861
297.14	886
297.37	875
297.601	867
297.831	899
298.062	900
298.292	911
298.523	922
298.753	913
298.984	902
299.214	896
299.445	892
299.675	894
299.905	908
300.136	916
300.366	931
300.597	938
300.827	943
301.057	932
301.288	933
301.518	961
301.748	946
301.979	954
302.209	985
302.439	965
302.669	972
302.9	959
303.13	972
303.36	968
303.59	931
303.82	934
304.051	947
304.281	953
304.511	983
304.741	937
304.971	939
305.201	964
305.431	938
305.661	974
305.891	933
306.121	963
306.352	954
306.582	942
306.812	928
307.042	969
307.272	956
307.502	946
307.731	961
307.961	946
308.191	916
308.421	932
308.651	926
308.881	955
309.111	958
309.341	929
309.571	946
309.8	956
310.03	960
310.26	948
310.49	957
310.72	957
310.949	948
311.179	936
311.409	951
311.639	985
311.868	959
312.098	939
312.328	946
312.557	984
312.787	1003
313.017	995
313.246	1020
313.476	1032
313.706	1015
313.935	1038
314.165	996
314.394	1002
314.624	995
314.853	1024
315.083	1013
315.312	1031
315.542	1045
315.771	1024
316.001	1013
316.23	1006
316.46	1026
316.689	1031
316.919	1004
317.148	997
317.377	1008
317.607	993
317.836	981
318.065	1024
318.295	1001
318.524	1024
318.753	1030
318.983	1032
319.212	984
319.441	1028
319.67	1053
319.9	1005
320.129	1008
320.358	988
320.587	1012
320.816	1027
321.046	1018
321.275	1006
321.504	1009
321.733	1001
321.962	1022
322.191	1009
322.42	1022
322.649	1061
322.878	1011
323.108	1046
323.337	1032
323.566	1063
323.795	1043
324.024	1057
324.253	1054
324.482	1080
324.71	1034
324.939	1061
325.168	1061
325.397	1052
325.626	1056
325.855	1053
326.084	1099
326.313	1093
326.542	1107
326.77	1107
326.999	1087
327.228	1109
327.457	1076
327.686	1084
327.914	1088
328.143	1107
328.372	1085
328.6	1105
328.829	1094
329.058	1126
329.287	1110
329.515	1102
329.744	1100
329.972	1112
330.201	1126
330.43	1147
330.658	1158
330.887	1128
331.115	1119
331.344	1147
331.572	1146
331.801	1183
332.03	1204
332.258	1184
332.486	1237
332.715	1294
332.943	1300
333.172	1304
333.4	1378
333.629	1413
333.857	1406
334.085	1414
334.314	1389
334.542	1384
334.771	1402
334.999	1379
335.227	1376
335.455	1356
335.684	1359
335.912	1336
336.14	1318
336.369	1323
336.597	1330
336.825	1319
337.053	1313
337.281	1307
337.51	1268
337.738	1251
337.966	1262
338.194	1247
338.422	1200
338.65	1187
338.878	1203
339.106	1226
339.334	1226
339.562	1193
339.79	1175
340.018	1133
340.246	1180
340.474	1168
340.702	1166
340.93	1197
341.158	1182
341.386	1155
341.614	1157
341.842	1173
342.07	1161
342.298	1138
342.526	1110
342.754	1147
342.981	1122
343.209	1184
343.437	1214
343.665	1255
343.893	1347
344.12	1368
344.348	1332
344.576	1287
344.804	1249
345.031	1194
345.259	1197
345.487	1181
345.714	1189
345.942	1129
346.17	1129
346.397	1114
346.625	1136
346.853	1120
347.08	1089
347.308	1083
347.535	1116
347.763	1091
347.99	1120
348.218	1069
348.445	1098
348.673	1097
348.9	1083
349.128	1114
349.355	1086
349.583	1072
349.81	1092
350.037	1058
350.265	1068
350.492	1099
350.72	1074
350.947	1060
351.174	1096
351.402	1069
351.629	1083
351.856	1071
352.083	1057
352.311	1038
352.538	1059
352.765	1052
352.992	1046
353.22	1068
353.447	1060
353.674	1049
353.901	1048
354.128	1064
354.355	1057
354.583	1072
354.81	1058
355.037	1078
355.264	1065
355.491	1061
355.718	1069
355.945	1086
356.172	1077
356.399	1061
356.626	1093
356.853	1097
357.08	1101
357.307	1092
357.534	1061
357.761	1101
357.988	1099
358.215	1060
358.441	1052
358.668	1063
358.895	1095
359.122	1072
359.349	1077
359.576	1054
359.802	1052
360.029	1099
360.256	1060
360.483	1065
360.709	1083
360.936	1090
361.163	1082
361.39	1091
361.616	1105
361.843	1088
362.07	1077
362.296	1059
362.523	1057
362.749	1060
362.976	1077
363.203	1073
363.429	1078
363.656	1074
363.882	1090
364.109	1065
364.335	1057
364.562	1066
364.788	1045
365.015	1067
365.241	1073
365.468	1038
365.694	1078
365.92	1074
366.147	1068
366.373	1082
366.599	1062
366.826	1060
367.052	1054
367.278	1091
367.505	1113
367.731	1085
367.957	1076
368.184	1072
368.41	1082
368.636	1120
368.862	1145
369.089	1104
369.315	1109
369.541	1102
369.767	1137
369.993	1123
370.219	1099
370.445	1120
370.672	1126
370.898	1150
371.124	1171
371.35	1172
371.576	1174
371.802	1151
372.028	1141
372.254	1148
372.48	1188
372.706	1154
372.932	1222
373.158	1206
373.384	1161
373.61	1172
373.835	1146
374.061	1138
374.287	1206
374.513	1195
374.739	1245
374.965	1258
375.191	1282
375.416	1244
375.642	1234
375.868	1194
376.094	1226
376.319	1197
376.545	1179
376.771	1190
376.997	1165
377.222	1138
377.448	1157
377.674	1150
377.899	1166
378.125	1161
378.35	1123
378.576	1128
378.802	1136
379.027	1144
379.253	1192
379.478	1124
379.704	1129
379.929	1145
380.155	1161
380.38	1153
380.606	1136
380.831	1149
381.057	1148
381.282	1138
381.507	1114
381.733	1163
381.958	1192
382.184	1192
382.409	1175
382.634	1211
382.86	1206
383.085	1236
383.31	1230
383.535	1238
383.761	1264
383.986	1271
384.211	1269
384.436	1300
384.662	1314
384.887	1319
385.112	1331
385.337	1372
385.562	1402
385.787	1379
386.013	1361
386.238	1387
386.463	1353
386.688	1378
386.913	1338
387.138	1352
387.363	1386
387.588	1361
387.813	1406
388.038	1380
388.263	1375
388.488	1402
388.713	1371
388.938	1369
389.163	1351
389.387	1366
389.612	1360
389.837	1392
390.062	1371
390.287	1382
390.512	1371
390.736	1402
390.961	1398
391.186	1419
391.411	1427
391.636	1451
391.86	1532
392.085	1523
392.31	1502
392.534	1506
392.759	1497
392.984	1465
393.208	1483
393.433	1458
393.658	1432
393.882	1417
394.107	1442
394.331	1448
394.556	1466
394.78	1475
395.005	1474
395.229	1481
395.454	1502
395.678	1517
395.903	1498
396.127	1516
396.352	1512
396.576	1495
396.801	1491
397.025	1519
397.249	1501
397.474	1524
397.698	1554
397.922	1569
398.147	1576
398.371	1594
398.595	1619
398.82	1700
399.044	1798
399.268	1928
399.492	2155
399.717	2277
399.941	2398
400.165	2209
400.389	2080
400.613	1926
400.837	1806
401.062	1803
401.286	1777
401.51	1721
401.734	1757
401.958	1710
402.182	1712
402.406	1700
402.63	1748
402.854	1790
403.078	1800
403.302	1801
403.526	1827
403.75	1862
403.974	1851
404.198	1836
404.422	1873
404.645	1850
404.869	1832
405.093	1874
405.317	1867
405.541	1817
405.765	1816
405.988	1822
406.212	1893
406.436	1876
406.66	1875
406.883	1947
407.107	2060
407.331	2107
407.555	2163
407.778	2151
408.002	2106
408.226	2090
408.449	2013
408.673	1988
408.896	1931
409.12	1918
409.344	1955
409.567	1895
409.791	1935
410.014	1906
410.238	1901
410.461	1892
410.685	1861
410.908	1846
411.132	1799
411.355	1782
411.578	1770
411.802	1794
412.025	1797
412.249	1860
412.472	1794
412.695	1795
412.919	1759
413.142	1752
413.365	1695
413.589	1740
413.812	1714
414.035	1698
414.258	1705
414.482	1698
414.705	1726
414.928	1730
415.151	1715
415.374	1720
415.597	1728
415.821	1622
416.044	1644
416.267	1641
416.49	1639
416.713	1633
416.936	1625
417.159	1622
417.382	1632
417.605	1644
417.828	1651
418.051	1683
418.274	1639
418.497	1641
418.72	1656
418.943	1679
419.166	1828
419.389	1910
419.611	1891
419.834	1764
420.057	1721
420.28	1671
420.503	1621
420.726	1618
420.948	1614
421.171	1635
421.394	1660
421.617	1616
421.839	1640
422.062	1633
422.285	1656
422.507	1668
422.73	1685
422.953	1654
423.175	1664
423.398	1728
423.621	1690
423.843	1729
424.066	1693
424.288	1659
424.511	1716
424.733	1680
424.956	1672
425.178	1702
425.401	1642
425.623	1664
425.846	1632
426.068	1640
426.291	1612
426.513	1581
426.735	1566
426.958	1590
427.18	1556
427.402	1557
427.625	1540
427.847	1517
428.069	1526
428.292	1521
428.514	1528
428.736	1501
428.958	1475
429.181	1488
429.403	1476
429.625	1470
429.847	1486
430.069	1480
430.292	1488
430.514	1457
430.736	1480
430.958	1472
431.18	1519
431.402	1485
431.624	1492
431.846	1525
432.068	1529
432.29	1566
432.512	1531
432.734	1534
432.956	1493
433.178	1528
433.4	1514
433.622	1549
433.844	1556
434.066	1578
434.287	1580
434.509	1593
434.731	1638
434.953	1686
435.175	1712
435.397	1668
435.618	1613
435.84	1561
436.062	1522
436.284	1546
436.505	1503
436.727	1547
436.949	1530
437.17	1475
437.392	1470
437.614	1501
437.835	1427
438.057	1482
438.278	1412
438.5	1408
438.721	1432
438.943	1472
439.165	1452
439.386	1476
439.608	1458
439.829	1478
440.05	1489
440.272	1488
440.493	1504
440.715	1520
440.936	1531
441.158	1512
441.379	1556
441.6	1644
441.822	1669
442.043	1645
442.264	1584
442.486	1576
442.707	1617
442.928	1560
443.149	1602
443.371	1589
443.592	1623
443.813	1638
444.034	1654
444.255	1670
444.476	1730
444.698	1797
444.919	1883
445.14	1927
445.361	1796
445.582	1671
445.803	1626
446.024	1557
446.245	1598
446.466	1542
446.687	1479
446.908	1462
447.129	1464
447.35	1384
447.571	1410
447.792	1388
448.013	1403
448.234	1410
448.455	1371
448.675	1358
448.896	1353
449.117	1351
449.338	1346
449.559	1351
449.779	1343
450	1313
450.221	1328
450.442	1325
450.662	1349
450.883	1363
451.104	1372
451.324	1336
451.545	1318
451.766	1375
451.986	1308
452.207	1313
452.428	1333
452.648	1313
452.869	1324
453.089	1267
453.31	1312
453.53	1299
453.751	1304
453.971	1278
454.192	1315
454.412	1296
454.633	1272
454.853	1307
455.073	1262
455.294	1267
455.514	1282
455.734	1256
455.955	1261
456.175	1244
456.395	1258
456.616	1248
456.836	1268
457.056	1265
457.276	1250
457.497	1293
457.717	1257
457.937	1268
458.157	1320
458.377	1331
458.598	1347
458.818	1380
459.038	1421
459.258	1464
459.478	1476
459.698	1509
459.918	1492
460.138	1598
460.358	1655
460.578	1664
460.798	1761
461.018	1739
461.238	1682
461.458	1669
461.678	1664
461.898	1714
462.118	1713
462.338	1787
462.558	1836
462.777	1895
462.997	1993
463.217	2121
463.437	2120
463.657	2059
463.876	1940
464.096	1993
464.316	1956
464.536	1977
464.755	1868
464.975	1828
465.195	1762
465.414	1717
465.634	1588
465.854	1541
466.073	1509
466.293	1461
466.512	1450
466.732	1445
466.951	1421
467.171	1401
467.391	1437
467.61	1436
467.829	1359
468.049	1412
468.268	1362
468.488	1376
468.707	1366
468.927	1393
469.146	1352
469.365	1403
469.585	1419
469.804	1411
470.023	1426
470.243	1456
470.462	1418
470.681	1427
470.901	1470
471.12	1475
471.339	1398
471.558	1413
471.777	1369
471.997	1370
472.216	1384
472.435	1367
472.654	1338
472.873	1320
473.092	1376
473.311	1347
473.53	1338
473.749	1304
473.968	1362
474.187	1331
474.406	1338
474.625	1300
474.844	1370
475.063	1360
475.282	1359
475.501	1364
475.72	1375
475.939	1386
476.158	1389
476.377	1397
476.596	1426
476.814	1435
477.033	1458
477.252	1493
477.471	1490
477.69	1545
477.908	1512
478.127	1574
478.346	1572
478.564	1585
478.783	1641
479.002	1680
479.22	1721
479.439	1700
479.658	1722
479.876	1743
480.095	1699
480.313	1800
480.532	1776
480.751	1833
480.969	1729
481.188	1726
481.406	1694
481.624	1657
481.843	1664
482.061	1626
482.28	1620
482.498	1615
482.717	1665
482.935	1660
483.153	1632
483.372	1637
483.59	1691
483.808	1674
484.027	1678
484.245	1695
484.463	1680
484.681	1735
484.9	1810
485.118	1775
485.336	1797
485.554	1801
485.772	1830
485.99	1806
486.209	1832
486.427	1806
486.645	1797
486.863	1831
487.081	1800
487.299	1793
487.517	1798
487.735	1757
487.953	1738
488.171	1788
488.389	1769
488.607	1726
488.825	1739
489.043	1728
489.261	1693
489.479	1752
489.696	1677
489.914	1734
490.132	1736
490.35	1700
490.568	1706
490.786	1718
491.003	1674
491.221	1715
491.439	1728
491.657	1686
491.874	1694
492.092	1681
492.31	1690
492.527	1722
492.745	1702
492.963	1649
493.18	1676
493.398	1707
493.615	1710
493.833	1669
494.05	1749
494.268	1710
494.485	1734
494.703	1725
494.92	1748
495.138	1763
495.355	1733
495.573	1744
495.79	1753
496.008	1765
496.225	1751
496.442	1803
496.66	1826
496.877	1857
497.094	1866
497.312	1875
497.529	1916
497.746	1987
497.963	2075
498.181	2101
498.398	2146
498.615	2284
498.832	2429
499.049	2600
499.267	2718
499.484	2937
499.701	3200
499.918	3512
500.135	3818
500.352	4173
500.569	4386
500.786	4295
501.003	4130
501.22	3828
501.437	3426
501.654	3128
501.871	2905
502.088	2686
502.305	2544
502.522	2424
502.739	2332
502.956	2228
503.172	2150
503.389	2036
503.606	1958
503.823	1930
504.04	1928
504.256	1946
504.473	1940
504.69	1971
504.907	1908
505.123	1834
505.34	1784
505.557	1714
505.773	1658
505.99	1638
506.207	1548
506.423	1554
506.64	1552
506.856	1564
507.073	1529
507.289	1518
507.506	1492
507.722	1481
507.939	1428
508.155	1443
508.372	1448
508.588	1431
508.805	1418
509.021	1394
509.238	1407
509.454	1376
509.67	1387
509.887	1374
510.103	1330
510.319	1371
510.536	1357
510.752	1312
510.968	1360
511.184	1342
511.401	1352
511.617	1334
511.833	1340
512.049	1318
512.265	1314
512.481	1353
512.698	1340
512.914	1332
513.13	1357
513.346	1374
513.562	1328
513.778	1374
513.994	1358
514.21	1346
514.426	1372
514.642	1358
514.858	1397
515.074	1394
515.29	1397
515.506	1404
515.721	1402
515.937	1444
516.153	1404
516.369	1515
516.585	1518
516.801	1570
517.016	1612
517.232	1653
517.448	1708
517.664	1766
517.879	1772
518.095	1739
518.311	1744
518.527	1656
518.742	1626
518.958	1600
519.173	1580
519.389	1491
519.605	1460
519.82	1436
520.036	1440
520.251	1390
520.467	1359
520.682	1331
520.898	1319
521.113	1317
521.329	1320
521.544	1272
521.76	1295
521.975	1318
522.19	1325
522.406	1274
522.621	1284
522.836	1281
523.052	1268
523.267	1231
523.482	1245
523.698	1243
523.913	1237
524.128	1212
524.343	1233
524.559	1184
524.774	1229
524.989	1228
525.204	1195
525.419	1226
525.634	1200
525.849	1230
526.064	1244
526.28	1212
526.495	1178
526.71	1185
526.925	1164
527.14	1173
527.355	1187
527.57	1186
527.785	1220
527.999	1180
528.214	1189
528.429	1189
528.644	1211
528.859	1179
529.074	1157
529.289	1205
529.503	1180
529.718	1206
529.933	1164
530.148	1180
530.363	1186
530.577	1165
530.792	1132
531.007	1146
531.221	1163
531.436	1185
531.651	1181
531.865	1149
532.08	1177
532.295	1147
532.509	1155
532.724	1177
532.938	1181
533.153	1153
533.367	1133
533.582	1162
533.796	1152
534.011	1175
534.225	1169
534.44	1147
534.654	1174
534.868	1165
535.083	1120
535.297	1149
535.511	1129
535.726	1130
535.94	1131
536.154	1127
536.369	1105
536.583	1101
536.797	1117
537.011	1097
537.225	1080
537.44	1077
537.654	1078
537.868	1076
538.082	1056
538.296	1078
538.51	1097
538.724	1060
538.938	1034
539.153	1077
539.367	1062
539.581	1046
539.795	1049
540.009	1063
540.222	1040
540.436	1062
540.65	1015
540.864	1051
541.078	1014
541.292	1059
541.506	1060
541.72	1039
541.934	1030
542.147	1046
542.361	1028
542.575	1013
542.789	1026
543.002	1027
543.216	1024
543.43	1051
543.644	1053
543.857	1015
544.071	1021
544.285	1032
544.498	1019
544.712	1039
544.925	1044
545.139	1084
545.352	1059
545.566	1050
545.779	1036
545.993	1030
546.206	1043
546.42	1093
546.633	1081
546.847	1058
547.06	1085
547.274	1042
547.487	1013
547.7	1068
547.914	1087
548.127	1072
548.34	1038
548.554	1042
548.767	1077
548.98	1086
549.193	1051
549.407	1060
549.62	1057
549.833	1061
550.046	1066
550.259	1053
550.473	1026
550.686	1053
550.899	1025
551.112	1017
551.325	1052
551.538	1051
551.751	1041
551.964	1055
552.177	1067
552.39	1056
552.603	1103
552.816	1107
553.029	1086
553.242	1108
553.455	1124
553.667	1131
553.88	1103
554.093	1091
554.306	1051
554.519	1058
554.732	1044
554.944	1030
555.157	1011
555.37	1005
555.583	994
555.795	963
556.008	959
556.221	946
556.433	908
556.646	932
556.859	915
557.071	935
557.284	904
557.496	913
557.709	887
557.921	894
558.134	902
558.346	911
558.559	876
558.771	877
558.984	857
559.196	896
559.409	875
559.621	868
559.833	884
560.046	874
560.258	858
560.47	871
560.683	863
560.895	859
561.107	854
561.32	852
561.532	876
561.744	866
561.956	872
562.168	850
562.381	864
562.593	864
562.805	851
563.017	857
563.229	853
563.441	885
563.653	898
563.865	892
564.077	920
564.289	903
564.501	940
564.713	936
564.925	931
565.137	961
565.349	1014
565.561	1003
565.773	1028
565.985	1047
566.197	1142
566.408	1193
566.62	1248
566.832	1315
567.044	1364
567.255	1362
567.467	1370
567.679	1422
567.891	1504
568.102	1497
568.314	1425
568.526	1365
568.737	1246
568.949	1153
569.161	1089
569.372	1034
569.584	990
569.795	934
570.007	920
570.218	896
570.43	882
570.641	885
570.853	907
571.064	889
571.276	870
571.487	883
571.698	837
571.91	794
572.121	802
572.333	778
572.544	769
572.755	759
572.966	750
573.178	735
573.389	743
573.6	737
573.811	712
574.023	720
574.234	725
574.445	735
574.656	717
574.867	697
575.078	702
575.289	696
575.501	699
575.712	689
575.923	656
576.134	683
576.345	681
576.556	670
576.767	660
576.978	693
577.188	660
577.399	678
577.61	650
577.821	664
578.032	650
578.243	654
578.454	646
578.665	639
578.875	613
579.086	642
579.297	637
579.508	604
579.718	621
579.929	626
580.14	633
580.35	592
580.561	617
580.772	618
580.982	600
581.193	611
581.403	603
581.614	598
581.825	600
582.035	600
582.246	613
582.456	596
582.667	607
582.877	605
583.087	594
583.298	590
583.508	600
583.719	570
583.929	588
584.139	596
584.35	588
584.56	587
584.77	586
584.981	586
585.191	585
585.401	586
585.611	549
585.821	566
586.032	584
586.242	570
586.452	570
586.662	559
586.872	560
587.082	578
587.292	562
587.502	568
587.713	562
587.923	593
588.133	563
588.343	566
588.553	535
588.762	585
588.972	547
589.182	585
589.392	574
589.602	570
589.812	582
590.022	581
590.232	577
590.441	560
590.651	578
590.861	568
591.071	570
591.281	572
591.49	551
591.7	579
591.91	612
592.119	625
592.329	614
592.539	634
592.748	642
592.958	635
593.167	662
593.377	685
593.587	670
593.796	670
594.006	676
594.215	691
594.424	679
594.634	658
594.843	635
595.053	656
595.262	615
595.472	615
595.681	574
595.89	563
596.1	574
596.309	539
596.518	524
596.727	538
596.937	526
597.146	551
597.355	517
597.564	513
597.774	506
597.983	530
598.192	517
598.401	504
598.61	495
598.819	488
599.028	475
599.237	483
599.446	482
599.655	476
599.864	454
600.073	471
600.282	478
600.491	474
600.7	473
600.909	486
601.118	492
601.327	460
601.536	457
601.745	458
601.953	455
602.162	454
602.371	436
602.58	457
602.789	438
602.997	444
603.206	439
603.415	446
603.623	456
603.832	455
604.041	454
604.249	438
604.458	445
604.666	455
604.875	440
605.084	449
605.292	430
605.501	428
605.709	440
605.918	405
606.126	434
606.334	438
606.543	416
606.751	437
606.96	406
607.168	435
607.376	423
607.585	441
607.793	410
608.001	420
608.21	407
608.418	416
608.626	414
608.834	413
609.043	411
609.251	426
609.459	418
609.667	408
609.875	405
610.083	427
610.291	395
610.499	398
610.707	411
610.916	408
611.124	414
611.332	409
611.54	396
611.748	388
611.955	395
612.163	389
612.371	366
612.579	392
612.787	388
612.995	379
613.203	384
613.411	382
613.618	399
613.826	382
614.034	406
614.242	398
614.449	408
614.657	407
614.865	379
615.072	398
615.28	412
615.488	389
615.695	390
615.903	370
616.111	395
616.318	389
616.526	397
616.733	396
616.941	376
617.148	388
617.356	394
617.563	393
617.771	379
617.978	383
618.185	386
618.393	379
618.6	390
618.807	390
619.015	389
619.222	389
619.429	373
619.637	384
619.844	372
620.051	368
620.258	398
620.466	361
620.673	362
620.88	359
621.087	372
621.294	359
621.501	376
621.708	362
621.915	360
622.122	368
622.329	362
622.536	368
622.743	344
622.95	364
623.157	357
623.364	365
623.571	344
623.778	368
623.985	345
624.192	346
624.399	344
624.606	340
624.812	332
625.019	349
625.226	332
625.433	333
625.639	337
625.846	337
626.053	348
626.259	360
626.466	336
626.673	336
626.879	312
627.086	334
627.293	329
627.499	325
627.706	325
627.912	325
628.119	339
628.325	328
628.532	324
628.738	322
628.945	326
629.151	336
629.357	307
629.564	321
629.77	306
629.976	318
630.183	312
630.389	309
630.595	318
630.802	314
631.008	323
631.214	316
631.42	317
631.627	300
631.833	295
632.039	321
632.245	296
632.451	291
632.657	295
632.863	311
633.069	295
633.275	309
633.481	298
633.688	296
633.893	309
634.099	284
634.305	299
634.511	284
634.717	303
634.923	273
635.129	286
635.335	280
635.541	285
635.747	304
635.952	284
636.158	271
636.364	281
636.57	274
636.775	294
636.981	303
637.187	276
637.392	270
637.598	280
637.804	278
638.009	267
638.215	268
638.421	281
638.626	269
638.832	282
639.037	269
639.243	291
639.448	266
639.654	281
639.859	281
640.065	296
640.27	277
640.475	274
640.681	276
640.886	268
641.091	271
641.297	259
641.502	246
641.707	258
641.913	261
642.118	259
642.323	258
642.528	270
642.733	265
642.939	276
643.144	262
643.349	260
643.554	267
643.759	271
643.964	258
644.169	267
644.374	267
644.579	270
644.784	267
644.989	272
645.194	282
645.399	257
645.604	259
645.809	261
646.014	260
646.219	275
646.423	281
646.628	264
646.833	254
647.038	264
647.243	286
647.447	281
647.652	266
647.857	296
648.062	313
648.266	292
648.471	294
648.676	299
648.88	284
649.085	287
649.289	277
649.494	285
649.698	284
649.903	285
650.107	269
650.312	282
650.516	274
650.721	282
650.925	282
651.13	265
651.334	271
651.539	266
651.743	271
651.947	264
652.152	247
652.356	266
652.56	276
652.764	253
652.969	274
653.173	268
653.377	276
653.581	274
653.785	262
653.99	261
654.194	260
654.398	264
654.602	260
654.806	264
655.01	278
655.214	270
655.418	306
655.622	301
655.826	291
656.03	332
656.234	356
656.438	374
656.642	390
656.846	361
657.049	317
657.253	301
657.457	253
657.661	246
657.865	220
658.068	200
658.272	205
658.476	184
658.68	188
658.883	159
659.087	156
659.291	146
659.494	143
659.698	141
659.901	139
660.105	128
660.309	123
660.512	129
660.716	117
660.919	100
661.123	112
661.326	96
661.53	110
661.733	119
661.936	94
662.14	96
662.343	104
662.546	99
662.75	94
662.953	112
663.156	85
663.36	93
663.563	92
663.766	92
663.969	80
664.173	86
664.376	89
664.579	84
664.782	83
664.985	84
665.188	88
665.391	82
665.594	75
665.797	77
666	81
666.203	86
666.406	87
666.609	82
666.812	81
667.015	80
667.218	76
667.421	87
667.624	77
667.827	75
668.03	87
668.232	96
668.435	80
668.638	83
668.841	78
669.043	83
669.246	80
669.449	82
669.651	91
669.854	81
670.057	86
670.259	88
670.462	75
670.665	76
670.867	85
671.07	88
671.272	75
671.475	86
671.677	84
671.88	78
672.082	74
672.284	96
672.487	83
672.689	91
672.892	78
