Data from NiCl2@0.5M.TitratingCurve.Agarose3%dH2O.NegLispCup.LampEnergy10.LIBS07252019_HRD10591_18-18-32-570.txt Node
Date: Thu Jul 25 18:18:32 EDT 2019
User: cochatt
Spectrometer: HR+D1059
Trigger mode: 1
Integration Time (sec): 1.000000E-1
Scans to average: 1
Electric dark correction enabled: true
Nonlinearity correction enabled: false
Boxcar width: 0
XAxis mode: Wavelengths
Number of Pixels in Spectrum: 2048
>>>>>Begin Spectral Data<<<<<
223.165	-19
223.4	-19
223.635	-19
223.869	4
224.104	-21
224.338	-11
224.573	-18
224.808	-9
225.042	-4
225.277	1
225.511	4
225.746	5
225.98	2
226.215	-16
226.449	6
226.683	16
226.918	28
227.152	32
227.387	37
227.621	54
227.856	53
228.09	46
228.324	68
228.559	62
228.793	84
229.027	138
229.262	172
229.496	170
229.73	167
229.964	193
230.199	262
230.433	237
230.667	214
230.901	234
231.136	206
231.37	224
231.604	225
231.838	240
232.072	258
232.306	258
232.541	236
232.775	220
233.009	231
233.243	214
233.477	220
233.711	221
233.945	221
234.179	229
234.413	202
234.647	209
234.881	229
235.115	219
235.349	215
235.583	220
235.817	228
236.051	224
236.285	210
236.519	228
236.753	224
236.987	230
237.221	228
237.455	244
237.689	241
237.922	242
238.156	252
238.39	248
238.624	230
238.858	245
239.091	263
239.325	258
239.559	267
239.793	318
240.027	303
240.26	264
240.494	253
240.728	275
240.961	272
241.195	271
241.429	286
241.662	276
241.896	322
242.13	318
242.363	297
242.597	296
242.83	277
243.064	289
243.298	301
243.531	302
243.765	324
243.998	334
244.232	323
244.465	312
244.699	336
244.932	325
245.166	336
245.399	357
245.633	322
245.866	348
246.099	346
246.333	331
246.566	335
246.8	339
247.033	353
247.266	337
247.5	338
247.733	345
247.966	350
248.2	361
248.433	345
248.666	372
248.899	374
249.133	377
249.366	361
249.599	386
249.832	392
250.066	382
250.299	394
250.532	392
250.765	389
250.998	413
251.231	423
251.465	466
251.698	414
251.931	425
252.164	400
252.397	410
252.63	431
252.863	423
253.096	422
253.329	429
253.562	412
253.795	438
254.028	438
254.261	460
254.494	438
254.727	460
254.96	443
255.193	453
255.426	453
255.659	453
255.892	455
256.124	481
256.357	481
256.59	454
256.823	473
257.056	471
257.289	468
257.521	465
257.754	477
257.987	475
258.22	510
258.452	482
258.685	484
258.918	484
259.151	466
259.383	496
259.616	472
259.849	505
260.081	535
260.314	529
260.547	533
260.779	532
261.012	522
261.244	535
261.477	506
261.71	523
261.942	536
262.175	520
262.407	544
262.64	532
262.872	532
263.105	545
263.337	523
263.57	525
263.802	553
264.035	576
264.267	538
264.499	577
264.732	561
264.964	558
265.197	567
265.429	578
265.661	563
265.894	578
266.126	584
266.358	577
266.591	588
266.823	592
267.055	572
267.287	586
267.52	609
267.752	591
267.984	592
268.216	615
268.448	594
268.681	618
268.913	616
269.145	628
269.377	616
269.609	615
269.841	622
270.073	628
270.306	646
270.538	639
270.77	618
271.002	632
271.234	640
271.466	637
271.698	642
271.93	658
272.162	655
272.394	662
272.626	674
272.858	644
273.09	637
273.322	688
273.553	678
273.785	662
274.017	671
274.249	681
274.481	672
274.713	675
274.945	703
275.176	698
275.408	694
275.64	672
275.872	705
276.104	704
276.335	701
276.567	714
276.799	701
277.031	714
277.262	712
277.494	720
277.726	721
277.957	725
278.189	713
278.421	718
278.652	724
278.884	750
279.115	745
279.347	750
279.579	760
279.81	753
280.042	728
280.273	767
280.505	741
280.736	764
280.968	737
281.199	760
281.431	780
281.662	796
281.894	786
282.125	776
282.356	811
282.588	782
282.819	796
283.051	789
283.282	782
283.513	773
283.745	812
283.976	792
284.207	808
284.439	828
284.67	806
284.901	826
285.132	840
285.364	830
285.595	837
285.826	804
286.057	835
286.288	835
286.52	817
286.751	831
286.982	837
287.213	842
287.444	846
287.675	847
287.906	828
288.138	847
288.369	858
288.6	868
288.831	862
289.062	850
289.293	889
289.524	880
289.755	866
289.986	863
290.217	865
290.448	848
290.679	878
290.91	873
291.141	886
291.371	884
291.602	877
291.833	889
292.064	886
292.295	893
292.526	871
292.757	884
292.987	884
293.218	887
293.449	921
293.68	885
293.91	876
294.141	876
294.372	897
294.603	910
294.833	897
295.064	887
295.295	932
295.525	876
295.756	905
295.987	912
296.217	914
296.448	928
296.679	904
296.909	899
297.14	938
297.37	971
297.601	937
297.831	959
298.062	972
298.292	956
298.523	968
298.753	974
298.984	975
299.214	952
299.445	980
299.675	997
299.905	984
300.136	998
300.366	1045
300.597	1034
300.827	1032
301.057	1030
301.288	1028
301.518	1033
301.748	1026
301.979	1042
302.209	1030
302.439	1002
302.669	972
302.9	1005
303.13	1015
303.36	1033
303.59	1026
303.82	1050
304.051	1047
304.281	1039
304.511	1004
304.741	998
304.971	1077
305.201	1042
305.431	1073
305.661	1105
305.891	1085
306.121	1056
306.352	1017
306.582	1004
306.812	1010
307.042	1029
307.272	1018
307.502	999
307.731	1022
307.961	1038
308.191	1017
308.421	1024
308.651	1015
308.881	1001
309.111	1028
309.341	982
309.571	1018
309.8	1019
310.03	1050
310.26	1120
310.49	1115
310.72	1030
310.949	1023
311.179	1056
311.409	1044
311.639	1021
311.868	1058
312.098	1093
312.328	1066
312.557	1066
312.787	1044
313.017	1076
313.246	1127
313.476	1118
313.706	1158
313.935	1144
314.165	1114
314.394	1089
314.624	1089
314.853	1107
315.083	1104
315.312	1126
315.542	1114
315.771	1094
316.001	1108
316.23	1088
316.46	1121
316.689	1111
316.919	1092
317.148	1080
317.377	1137
317.607	1116
317.836	1108
318.065	1089
318.295	1112
318.524	1118
318.753	1082
318.983	1080
319.212	1088
319.441	1098
319.67	1095
319.9	1120
320.129	1096
320.358	1102
320.587	1114
320.816	1124
321.046	1140
321.275	1108
321.504	1130
321.733	1143
321.962	1104
322.191	1137
322.42	1141
322.649	1104
322.878	1125
323.108	1143
323.337	1169
323.566	1161
323.795	1196
324.024	1166
324.253	1166
324.482	1151
324.71	1131
324.939	1118
325.168	1178
325.397	1178
325.626	1169
325.855	1186
326.084	1197
326.313	1219
326.542	1200
326.77	1197
326.999	1190
327.228	1185
327.457	1218
327.686	1208
327.914	1188
328.143	1206
328.372	1200
328.6	1184
328.829	1169
329.058	1181
329.287	1211
329.515	1225
329.744	1205
329.972	1231
330.201	1213
330.43	1220
330.658	1241
330.887	1253
331.115	1246
331.344	1247
331.572	1276
331.801	1326
332.03	1278
332.258	1336
332.486	1353
332.715	1340
332.943	1404
333.172	1385
333.4	1432
333.629	1490
333.857	1480
334.085	1499
334.314	1479
334.542	1462
334.771	1482
334.999	1507
335.227	1432
335.455	1465
335.684	1472
335.912	1449
336.14	1453
336.369	1451
336.597	1460
336.825	1476
337.053	1488
337.281	1471
337.51	1408
337.738	1427
337.966	1409
338.194	1419
338.422	1393
338.65	1320
338.878	1329
339.106	1335
339.334	1392
339.562	1370
339.79	1331
340.018	1304
340.246	1271
340.474	1290
340.702	1284
340.93	1256
341.158	1297
341.386	1372
341.614	1417
341.842	1359
342.07	1312
342.298	1287
342.526	1286
342.754	1278
342.981	1296
343.209	1308
343.437	1361
343.665	1412
343.893	1434
344.12	1485
344.348	1478
344.576	1439
344.804	1451
345.031	1398
345.259	1336
345.487	1338
345.714	1306
345.942	1379
346.17	1409
346.397	1384
346.625	1286
346.853	1220
347.08	1192
347.308	1227
347.535	1222
347.763	1240
347.99	1214
348.218	1214
348.445	1219
348.673	1220
348.9	1185
349.128	1236
349.355	1249
349.583	1299
349.81	1200
350.037	1190
350.265	1189
350.492	1166
350.72	1171
350.947	1190
351.174	1245
351.402	1292
351.629	1345
351.856	1289
352.083	1228
352.311	1223
352.538	1306
352.765	1343
352.992	1184
353.22	1160
353.447	1145
353.674	1189
353.901	1166
354.128	1189
354.355	1173
354.583	1134
354.81	1149
355.037	1178
355.264	1152
355.491	1152
355.718	1134
355.945	1172
356.172	1164
356.399	1179
356.626	1217
356.853	1261
357.08	1231
357.307	1197
357.534	1213
357.761	1178
357.988	1132
358.215	1146
358.441	1145
358.668	1147
358.895	1152
359.122	1169
359.349	1168
359.576	1161
359.802	1185
360.029	1168
360.256	1158
360.483	1157
360.709	1160
360.936	1186
361.163	1173
361.39	1189
361.616	1193
361.843	1201
362.07	1308
362.296	1271
362.523	1186
362.749	1164
362.976	1176
363.203	1133
363.429	1147
363.656	1126
363.882	1150
364.109	1140
364.335	1156
364.562	1156
364.788	1153
365.015	1158
365.241	1147
365.468	1148
365.694	1140
365.92	1144
366.147	1122
366.373	1154
366.599	1146
366.826	1133
367.052	1112
367.278	1179
367.505	1158
367.731	1158
367.957	1143
368.184	1172
368.41	1177
368.636	1194
368.862	1143
369.089	1180
369.315	1177
369.541	1166
369.767	1206
369.993	1194
370.219	1170
370.445	1183
370.672	1204
370.898	1189
371.124	1232
371.35	1235
371.576	1224
371.802	1224
372.028	1221
372.254	1223
372.48	1241
372.706	1263
372.932	1259
373.158	1243
373.384	1234
373.61	1246
373.835	1226
374.061	1223
374.287	1226
374.513	1244
374.739	1286
374.965	1297
375.191	1309
375.416	1327
375.642	1287
375.868	1285
376.094	1264
376.319	1247
376.545	1226
376.771	1217
376.997	1220
377.222	1230
377.448	1196
377.674	1252
377.899	1231
378.125	1228
378.35	1202
378.576	1239
378.802	1207
379.027	1242
379.253	1197
379.478	1210
379.704	1199
379.929	1201
380.155	1226
380.38	1207
380.606	1221
380.831	1223
381.057	1244
381.282	1211
381.507	1206
381.733	1208
381.958	1223
382.184	1213
382.409	1229
382.634	1231
382.86	1249
383.085	1290
383.31	1297
383.535	1305
383.761	1263
383.986	1305
384.211	1292
384.436	1335
384.662	1356
384.887	1366
385.112	1381
385.337	1386
385.562	1413
385.787	1416
386.013	1460
386.238	1444
386.463	1401
386.688	1426
386.913	1422
387.138	1406
387.363	1428
387.588	1415
387.813	1438
388.038	1405
388.263	1425
388.488	1410
388.713	1397
388.938	1429
389.163	1398
389.387	1428
389.612	1384
389.837	1432
390.062	1392
390.287	1418
390.512	1422
390.736	1472
390.961	1472
391.186	1435
391.411	1474
391.636	1505
391.86	1557
392.085	1527
392.31	1546
392.534	1517
392.759	1511
392.984	1524
393.208	1500
393.433	1499
393.658	1529
393.882	1480
394.107	1496
394.331	1532
394.556	1534
394.78	1516
395.005	1524
395.229	1499
395.454	1544
395.678	1538
395.903	1565
396.127	1555
396.352	1525
396.576	1529
396.801	1503
397.025	1580
397.249	1548
397.474	1570
397.698	1618
397.922	1593
398.147	1670
398.371	1669
398.595	1684
398.82	1753
399.044	1834
399.268	1968
399.492	2102
399.717	2251
399.941	2273
400.165	2181
400.389	2026
400.613	1964
400.837	1839
401.062	1808
401.286	1787
401.51	1783
401.734	1764
401.958	1792
402.182	1781
402.406	1798
402.63	1767
402.854	1772
403.078	1789
403.302	1744
403.526	1862
403.75	1871
403.974	1887
404.198	1876
404.422	1859
404.645	1870
404.869	1824
405.093	1893
405.317	1859
405.541	1870
405.765	1880
405.988	1861
406.212	1916
406.436	1911
406.66	1953
406.883	1948
407.107	2016
407.331	2083
407.555	2144
407.778	2140
408.002	2108
408.226	2064
408.449	2073
408.673	1982
408.896	1967
409.12	1946
409.344	1948
409.567	1898
409.791	1916
410.014	1891
410.238	1892
410.461	1896
410.685	1877
410.908	1892
411.132	1866
411.355	1812
411.578	1828
411.802	1807
412.025	1822
412.249	1848
412.472	1855
412.695	1818
412.919	1762
413.142	1775
413.365	1789
413.589	1780
413.812	1777
414.035	1759
414.258	1742
414.482	1736
414.705	1800
414.928	1746
415.151	1780
415.374	1762
415.597	1741
415.821	1710
416.044	1709
416.267	1716
416.49	1704
416.713	1707
416.936	1725
417.159	1720
417.382	1728
417.605	1660
417.828	1695
418.051	1723
418.274	1724
418.497	1721
418.72	1735
418.943	1722
419.166	1851
419.389	1919
419.611	1916
419.834	1854
420.057	1829
420.28	1759
420.503	1706
420.726	1732
420.948	1703
421.171	1680
421.394	1737
421.617	1694
421.839	1709
422.062	1693
422.285	1682
422.507	1694
422.73	1713
422.953	1734
423.175	1729
423.398	1729
423.621	1755
423.843	1718
424.066	1746
424.288	1761
424.511	1702
424.733	1708
424.956	1724
425.178	1725
425.401	1718
425.623	1732
425.846	1683
426.068	1666
426.291	1654
426.513	1664
426.735	1642
426.958	1687
427.18	1636
427.402	1617
427.625	1625
427.847	1612
428.069	1618
428.292	1628
428.514	1601
428.736	1609
428.958	1577
429.181	1551
429.403	1566
429.625	1569
429.847	1561
430.069	1571
430.292	1587
430.514	1591
430.736	1641
430.958	1618
431.18	1563
431.402	1626
431.624	1600
431.846	1604
432.068	1613
432.29	1666
432.512	1634
432.734	1624
432.956	1628
433.178	1621
433.4	1645
433.622	1704
433.844	1662
434.066	1664
434.287	1660
434.509	1677
434.731	1694
434.953	1724
435.175	1766
435.397	1798
435.618	1678
435.84	1670
436.062	1670
436.284	1636
436.505	1606
436.727	1608
436.949	1617
437.17	1626
437.392	1643
437.614	1605
437.835	1527
438.057	1524
438.278	1537
438.5	1544
438.721	1532
438.943	1549
439.165	1542
439.386	1578
439.608	1597
439.829	1584
440.05	1601
440.272	1615
440.493	1608
440.715	1667
440.936	1614
441.158	1657
441.379	1716
441.6	1746
441.822	1785
442.043	1754
442.264	1700
442.486	1678
442.707	1714
442.928	1726
443.149	1725
443.371	1737
443.592	1830
443.813	1791
444.034	1777
444.255	1800
444.476	1844
444.698	1908
444.919	1935
445.14	2019
445.361	1896
445.582	1816
445.803	1748
446.024	1705
446.245	1658
446.466	1669
446.687	1617
446.908	1617
447.129	1565
447.35	1565
447.571	1560
447.792	1517
448.013	1537
448.234	1510
448.455	1512
448.675	1486
448.896	1525
449.117	1489
449.338	1460
449.559	1456
449.779	1444
450	1456
450.221	1446
450.442	1491
450.662	1489
450.883	1520
451.104	1557
451.324	1506
451.545	1483
451.766	1472
451.986	1502
452.207	1429
452.428	1446
452.648	1442
452.869	1421
453.089	1427
453.31	1453
453.53	1413
453.751	1446
453.971	1426
454.192	1454
454.412	1473
454.633	1425
454.853	1393
455.073	1425
455.294	1400
455.514	1353
455.734	1444
455.955	1449
456.175	1441
456.395	1404
456.616	1396
456.836	1402
457.056	1398
457.276	1385
457.497	1426
457.717	1430
457.937	1440
458.157	1410
458.377	1450
458.598	1493
458.818	1494
459.038	1543
459.258	1561
459.478	1675
459.698	1768
459.918	1787
460.138	1784
460.358	1802
460.578	1791
460.798	1910
461.018	1904
461.238	1863
461.458	1814
461.678	1820
461.898	1888
462.118	1862
462.338	1934
462.558	2006
462.777	2065
462.997	2153
463.217	2220
463.437	2308
463.657	2207
463.876	2108
464.096	2117
464.316	2061
464.536	2027
464.755	2029
464.975	1957
465.195	1897
465.414	1815
465.634	1752
465.854	1710
466.073	1700
466.293	1674
466.512	1581
466.732	1572
466.951	1574
467.171	1598
467.391	1572
467.61	1585
467.829	1576
468.049	1562
468.268	1550
468.488	1507
468.707	1530
468.927	1552
469.146	1517
469.365	1549
469.585	1549
469.804	1550
470.023	1555
470.243	1596
470.462	1607
470.681	1578
470.901	1605
471.12	1595
471.339	1588
471.558	1601
471.777	1558
471.997	1550
472.216	1562
472.435	1544
472.654	1521
472.873	1454
473.092	1500
473.311	1505
473.53	1530
473.749	1519
473.968	1505
474.187	1499
474.406	1499
474.625	1484
474.844	1538
475.063	1511
475.282	1524
475.501	1569
475.72	1577
475.939	1569
476.158	1580
476.377	1602
476.596	1561
476.814	1611
477.033	1611
477.252	1633
477.471	1668
477.69	1732
477.908	1733
478.127	1760
478.346	1774
478.564	1840
478.783	1819
479.002	1926
479.22	1926
479.439	1933
479.658	1887
479.876	1876
480.095	1869
480.313	1952
480.532	1930
480.751	1967
480.969	1930
481.188	1860
481.406	1861
481.624	1826
481.843	1777
482.061	1760
482.28	1830
482.498	1780
482.717	1774
482.935	1838
483.153	1811
483.372	1878
483.59	1922
483.808	1825
484.027	1853
484.245	1839
484.463	1817
484.681	1841
484.9	1827
485.118	1852
485.336	1897
485.554	1919
485.772	1860
485.99	1876
486.209	1883
486.427	1872
486.645	1868
486.863	1909
487.081	1894
487.299	1877
487.517	1909
487.735	1934
487.953	1925
488.171	1913
488.389	1861
488.607	1868
488.825	1839
489.043	1805
489.261	1824
489.479	1888
489.696	1877
489.914	1848
490.132	1859
490.35	1923
490.568	1904
490.786	1913
491.003	1893
491.221	1919
491.439	1896
491.657	1877
491.874	1931
492.092	1917
492.31	1949
492.527	1934
492.745	1953
492.963	1929
493.18	1949
493.398	1932
493.615	1915
493.833	1948
494.05	1941
494.268	2002
494.485	1992
494.703	1986
494.92	2004
495.138	1968
495.355	1999
495.573	2029
495.79	2038
496.008	2065
496.225	2028
496.442	2043
496.66	2086
496.877	2080
497.094	2104
497.312	2206
497.529	2176
497.746	2256
497.963	2296
498.181	2426
498.398	2508
498.615	2606
498.832	2748
499.049	2840
499.267	3004
499.484	3273
499.701	3392
499.918	3696
500.135	4014
500.352	4288
500.569	4331
500.786	4336
501.003	4149
501.22	3910
501.437	3726
501.654	3384
501.871	3174
502.088	3037
502.305	2821
502.522	2742
502.739	2649
502.956	2485
503.172	2375
503.389	2326
503.606	2296
503.823	2200
504.04	2238
504.256	2209
504.473	2201
504.69	2156
504.907	2141
505.123	2092
505.34	2015
505.557	1929
505.773	1932
505.99	1857
506.207	1813
506.423	1834
506.64	1786
506.856	1756
507.073	1795
507.289	1734
507.506	1731
507.722	1712
507.939	1695
508.155	1690
508.372	1716
508.588	1666
508.805	1654
509.021	1641
509.238	1680
509.454	1590
509.67	1626
509.887	1617
510.103	1600
510.319	1596
510.536	1568
510.752	1569
510.968	1569
511.184	1544
511.401	1558
511.617	1572
511.833	1549
512.049	1549
512.265	1583
512.481	1541
512.698	1548
512.914	1580
513.13	1561
513.346	1576
513.562	1604
513.778	1576
513.994	1585
514.21	1592
514.426	1570
514.642	1617
514.858	1606
515.074	1571
515.29	1582
515.506	1614
515.721	1631
515.937	1708
516.153	1637
516.369	1638
516.585	1720
516.801	1769
517.016	1790
517.232	1876
517.448	1885
517.664	1896
517.879	1968
518.095	1923
518.311	1933
518.527	1841
518.742	1838
518.958	1769
519.173	1732
519.389	1702
519.605	1649
519.82	1619
520.036	1636
520.251	1596
520.467	1575
520.682	1562
520.898	1498
521.113	1510
521.329	1517
521.544	1503
521.76	1481
521.975	1462
522.19	1464
522.406	1502
522.621	1465
522.836	1405
523.052	1426
523.267	1465
523.482	1429
523.698	1405
523.913	1409
524.128	1426
524.343	1396
524.559	1393
524.774	1388
524.989	1378
525.204	1405
525.419	1384
525.634	1363
525.849	1397
526.064	1378
526.28	1382
526.495	1378
526.71	1387
526.925	1383
527.14	1364
527.355	1390
527.57	1365
527.785	1351
527.999	1324
528.214	1371
528.429	1358
528.644	1376
528.859	1354
529.074	1358
529.289	1348
529.503	1345
529.718	1376
529.933	1347
530.148	1338
530.363	1352
530.577	1328
530.792	1367
531.007	1367
531.221	1370
531.436	1328
531.651	1342
531.865	1308
532.08	1329
532.295	1352
532.509	1328
532.724	1347
532.938	1321
533.153	1332
533.367	1296
533.582	1323
533.796	1323
534.011	1322
534.225	1311
534.44	1327
534.654	1303
534.868	1300
535.083	1346
535.297	1319
535.511	1294
535.726	1252
535.94	1312
536.154	1247
536.369	1259
536.583	1275
536.797	1217
537.011	1245
537.225	1253
537.44	1232
537.654	1240
537.868	1234
538.082	1233
538.296	1250
538.51	1206
538.724	1229
538.938	1224
539.153	1254
539.367	1219
539.581	1214
539.795	1229
540.009	1197
540.222	1218
540.436	1192
540.65	1200
540.864	1216
541.078	1197
541.292	1217
541.506	1188
541.72	1222
541.934	1217
542.147	1208
542.361	1217
542.575	1197
542.789	1189
543.002	1169
543.216	1193
543.43	1182
543.644	1201
543.857	1209
544.071	1181
544.285	1210
544.498	1202
544.712	1209
544.925	1239
545.139	1212
545.352	1190
545.566	1198
545.779	1206
545.993	1184
546.206	1227
546.42	1237
546.633	1222
546.847	1226
547.06	1220
547.274	1219
547.487	1186
547.7	1226
547.914	1260
548.127	1217
548.34	1239
548.554	1203
548.767	1188
548.98	1230
549.193	1225
549.407	1214
549.62	1208
549.833	1243
550.046	1202
550.259	1207
550.473	1192
550.686	1214
550.899	1171
551.112	1201
551.325	1193
551.538	1183
551.751	1176
551.964	1220
552.177	1193
552.39	1197
552.603	1213
552.816	1208
553.029	1261
553.242	1232
553.455	1277
553.667	1261
553.88	1252
554.093	1211
554.306	1228
554.519	1212
554.732	1195
554.944	1159
555.157	1131
555.37	1105
555.583	1134
555.795	1106
556.008	1103
556.221	1097
556.433	1068
556.646	1074
556.859	1043
557.071	1052
557.284	1058
557.496	1057
557.709	1061
557.921	1041
558.134	1041
558.346	1033
558.559	1022
558.771	1052
558.984	1008
559.196	1008
559.409	1011
559.621	1007
559.833	991
560.046	988
560.258	973
560.47	1014
560.683	1005
560.895	992
561.107	969
561.32	982
561.532	1028
561.744	992
561.956	1016
562.168	968
562.381	1024
562.593	985
562.805	1033
563.017	1033
563.229	1013
563.441	1019
563.653	1029
563.865	1005
564.077	1041
564.289	1032
564.501	1060
564.713	1077
564.925	1063
565.137	1097
565.349	1118
565.561	1131
565.773	1188
565.985	1216
566.197	1241
566.408	1281
566.62	1341
566.832	1378
567.044	1421
567.255	1434
567.467	1426
567.679	1482
567.891	1546
568.102	1555
568.314	1442
568.526	1436
568.737	1315
568.949	1230
569.161	1190
569.372	1160
569.584	1088
569.795	1014
570.007	1044
570.218	1012
570.43	990
570.641	990
570.853	974
571.064	985
571.276	996
571.487	934
571.698	923
571.91	912
572.121	895
572.333	896
572.544	876
572.755	860
572.966	861
573.178	857
573.389	825
573.6	842
573.811	832
574.023	812
574.234	811
574.445	772
574.656	809
574.867	810
575.078	783
575.289	764
575.501	772
575.712	778
575.923	764
576.134	776
576.345	762
576.556	732
576.767	747
576.978	775
577.188	769
577.399	762
577.61	732
577.821	734
578.032	711
578.243	737
578.454	701
578.665	719
578.875	710
579.086	705
579.297	724
579.508	710
579.718	710
579.929	702
580.14	684
580.35	693
580.561	700
580.772	704
580.982	672
581.193	688
581.403	689
581.614	678
581.825	662
582.035	647
582.246	648
582.456	645
582.667	665
582.877	648
583.087	654
583.298	663
583.508	658
583.719	654
583.929	686
584.139	651
584.35	664
584.56	649
584.77	656
584.981	652
585.191	640
585.401	646
585.611	644
585.821	646
586.032	647
586.242	646
586.452	625
586.662	636
586.872	632
587.082	625
587.292	613
587.502	652
587.713	636
587.923	623
588.133	626
588.343	635
588.553	638
588.762	642
588.972	654
589.182	834
589.392	798
589.602	681
589.812	788
590.022	738
590.232	651
590.441	640
590.651	644
590.861	660
591.071	626
591.281	622
591.49	645
591.7	652
591.91	656
592.119	650
592.329	664
592.539	666
592.748	697
592.958	710
593.167	717
593.377	697
593.587	716
593.796	720
594.006	719
594.215	716
594.424	719
594.634	728
594.843	686
595.053	702
595.262	671
595.472	644
595.681	646
595.89	622
596.1	625
596.309	630
596.518	592
596.727	599
596.937	572
597.146	571
597.355	578
597.564	570
597.774	575
597.983	565
598.192	545
598.401	554
598.61	530
598.819	537
599.028	539
599.237	544
599.446	529
599.655	528
599.864	526
600.073	531
600.282	535
600.491	526
600.7	528
600.909	544
601.118	520
601.327	488
601.536	503
601.745	493
601.953	516
602.162	496
602.371	500
602.58	487
602.789	505
602.997	512
603.206	505
603.415	493
603.623	489
603.832	495
604.041	461
604.249	495
604.458	470
604.666	495
604.875	474
605.084	506
605.292	476
605.501	459
605.709	474
605.918	474
606.126	461
606.334	459
606.543	473
606.751	466
606.96	468
607.168	482
607.376	444
607.585	464
607.793	484
608.001	459
608.21	438
608.418	468
608.626	446
608.834	455
609.043	460
609.251	460
609.459	441
609.667	429
609.875	464
610.083	454
610.291	464
610.499	440
610.707	449
610.916	430
611.124	450
611.332	450
611.54	438
611.748	450
611.955	445
612.163	431
612.371	432
612.579	433
612.787	449
612.995	446
613.203	425
613.411	424
613.618	454
613.826	444
614.034	434
614.242	440
614.449	428
614.657	438
614.865	443
615.072	421
615.28	415
615.488	440
615.695	420
615.903	396
616.111	430
616.318	415
616.526	426
616.733	450
616.941	438
617.148	436
617.356	428
617.563	426
617.771	440
617.978	437
618.185	407
618.393	410
618.6	431
618.807	412
619.015	436
619.222	417
619.429	397
619.637	412
619.844	421
620.051	405
620.258	399
620.466	395
620.673	401
620.88	405
621.087	406
621.294	393
621.501	395
621.708	385
621.915	395
622.122	386
622.329	377
622.536	389
622.743	388
622.95	382
623.157	380
623.364	386
623.571	396
623.778	383
623.985	385
624.192	377
624.399	398
624.606	384
624.812	382
625.019	367
625.226	361
625.433	396
625.639	362
625.846	374
626.053	380
626.259	357
626.466	373
626.673	368
626.879	364
627.086	368
627.293	357
627.499	377
627.706	356
627.912	351
628.119	353
628.325	339
628.532	344
628.738	352
628.945	346
629.151	328
629.357	340
629.564	333
629.77	347
629.976	349
630.183	337
630.389	340
630.595	333
630.802	336
631.008	345
631.214	330
631.42	336
631.627	337
631.833	333
632.039	331
632.245	329
632.451	327
632.657	330
632.863	335
633.069	321
633.275	319
633.481	308
633.688	311
633.893	310
634.099	325
634.305	310
634.511	323
634.717	322
634.923	321
635.129	332
635.335	304
635.541	320
635.747	298
635.952	321
636.158	300
636.364	286
636.57	309
636.775	326
636.981	308
637.187	305
637.392	306
637.598	304
637.804	313
638.009	316
638.215	296
638.421	310
638.626	300
638.832	316
639.037	314
639.243	291
639.448	280
639.654	290
639.859	291
640.065	305
640.27	306
640.475	297
640.681	298
640.886	287
641.091	278
641.297	280
641.502	284
641.707	281
641.913	290
642.118	289
642.323	284
642.528	288
642.733	309
642.939	295
643.144	289
643.349	269
643.554	280
643.759	277
643.964	281
644.169	273
644.374	263
644.579	285
644.784	278
644.989	273
645.194	280
645.399	280
645.604	278
645.809	292
646.014	293
646.219	293
646.423	280
646.628	273
646.833	267
647.038	277
647.243	289
647.447	302
647.652	284
647.857	281
648.062	282
648.266	289
648.471	290
648.676	294
648.88	296
649.085	287
649.289	293
649.494	271
649.698	282
649.903	280
650.107	266
650.312	279
650.516	280
650.721	281
650.925	280
651.13	275
651.334	250
651.539	257
651.743	239
651.947	255
652.152	256
652.356	260
652.56	261
652.764	250
652.969	231
653.173	250
653.377	240
653.581	235
653.785	246
653.99	237
654.194	234
654.398	233
654.602	240
654.806	246
655.01	213
655.214	225
655.418	228
655.622	222
655.826	248
656.03	250
656.234	231
656.438	242
656.642	237
656.846	235
657.049	224
657.253	228
657.457	213
657.661	195
657.865	190
658.068	185
658.272	164
658.476	156
658.68	168
658.883	140
659.087	151
659.291	139
659.494	137
659.698	106
659.901	120
660.105	121
660.309	122
660.512	139
660.716	132
660.919	124
661.123	113
661.326	116
661.53	109
661.733	129
661.936	105
662.14	100
662.343	100
662.546	114
662.75	91
662.953	96
663.156	86
663.36	88
663.563	85
663.766	100
663.969	92
664.173	91
664.376	85
664.579	87
664.782	75
664.985	84
665.188	72
665.391	76
665.594	84
665.797	93
666	72
666.203	88
666.406	92
666.609	81
666.812	79
667.015	89
667.218	79
667.421	99
667.624	89
667.827	93
668.03	87
668.232	82
668.435	82
668.638	92
668.841	75
669.043	83
669.246	95
669.449	81
669.651	93
669.854	74
670.057	89
670.259	78
670.462	92
670.665	87
670.867	86
671.07	82
671.272	92
671.475	96
671.677	95
671.88	80
672.082	93
672.284	98
672.487	84
672.689	95
672.892	88
