Data from NiCl2@0.5M.TitratingCurve.Agarose3%dH2O.NegLispCup.LampEnergy10.LIBS07252019_HRD10591_18-18-50-571.txt Node
Date: Thu Jul 25 18:18:50 EDT 2019
User: cochatt
Spectrometer: HR+D1059
Trigger mode: 1
Integration Time (sec): 1.000000E-1
Scans to average: 1
Electric dark correction enabled: true
Nonlinearity correction enabled: false
Boxcar width: 0
XAxis mode: Wavelengths
Number of Pixels in Spectrum: 2048
>>>>>Begin Spectral Data<<<<<
223.165	-13
223.4	-13
223.635	-13
223.869	-22
224.104	-14
224.338	-22
224.573	-22
224.808	-17
225.042	10
225.277	-21
225.511	10
225.746	6
225.98	12
226.215	8
226.449	14
226.683	30
226.918	13
227.152	28
227.387	36
227.621	33
227.856	39
228.09	42
228.324	53
228.559	46
228.793	82
229.027	153
229.262	168
229.496	160
229.73	191
229.964	205
230.199	263
230.433	234
230.667	229
230.901	228
231.136	199
231.37	223
231.604	234
231.838	258
232.072	261
232.306	251
232.541	242
232.775	237
233.009	217
233.243	220
233.477	220
233.711	225
233.945	217
234.179	231
234.413	236
234.647	247
234.881	232
235.115	258
235.349	230
235.583	228
235.817	236
236.051	243
236.285	235
236.519	240
236.753	241
236.987	228
237.221	249
237.455	253
237.689	249
237.922	269
238.156	256
238.39	255
238.624	265
238.858	271
239.091	246
239.325	275
239.559	289
239.793	323
240.027	322
240.26	275
240.494	294
240.728	263
240.961	301
241.195	281
241.429	285
241.662	310
241.896	338
242.13	347
242.363	333
242.597	313
242.83	328
243.064	319
243.298	325
243.531	333
243.765	330
243.998	356
244.232	345
244.465	331
244.699	319
244.932	350
245.166	326
245.399	332
245.633	369
245.866	340
246.099	338
246.333	333
246.566	367
246.8	359
247.033	367
247.266	361
247.5	342
247.733	365
247.966	382
248.2	378
248.433	375
248.666	395
248.899	396
249.133	407
249.366	400
249.599	390
249.832	408
250.066	400
250.299	390
250.532	399
250.765	414
250.998	427
251.231	451
251.465	475
251.698	441
251.931	461
252.164	430
252.397	436
252.63	419
252.863	425
253.096	445
253.329	432
253.562	438
253.795	463
254.028	463
254.261	451
254.494	460
254.727	443
254.96	485
255.193	484
255.426	476
255.659	493
255.892	490
256.124	463
256.357	490
256.59	499
256.823	504
257.056	500
257.289	492
257.521	514
257.754	493
257.987	526
258.22	520
258.452	490
258.685	524
258.918	512
259.151	511
259.383	520
259.616	505
259.849	526
260.081	532
260.314	550
260.547	538
260.779	547
261.012	535
261.244	557
261.477	558
261.71	547
261.942	558
262.175	557
262.407	579
262.64	551
262.872	583
263.105	580
263.337	559
263.57	578
263.802	565
264.035	580
264.267	595
264.499	571
264.732	581
264.964	610
265.197	605
265.429	592
265.661	611
265.894	606
266.126	620
266.358	602
266.591	595
266.823	630
267.055	620
267.287	617
267.52	600
267.752	603
267.984	649
268.216	646
268.448	644
268.681	644
268.913	669
269.145	616
269.377	648
269.609	637
269.841	668
270.073	654
270.306	676
270.538	648
270.77	666
271.002	690
271.234	674
271.466	668
271.698	657
271.93	664
272.162	670
272.394	698
272.626	703
272.858	661
273.09	700
273.322	719
273.553	693
273.785	678
274.017	697
274.249	702
274.481	717
274.713	690
274.945	738
275.176	704
275.408	711
275.64	730
275.872	742
276.104	754
276.335	726
276.567	734
276.799	722
277.031	773
277.262	745
277.494	731
277.726	734
277.957	766
278.189	770
278.421	752
278.652	757
278.884	748
279.115	768
279.347	798
279.579	822
279.81	774
280.042	806
280.273	792
280.505	816
280.736	780
280.968	809
281.199	792
281.431	803
281.662	807
281.894	789
282.125	787
282.356	833
282.588	812
282.819	827
283.051	851
283.282	821
283.513	830
283.745	844
283.976	851
284.207	846
284.439	825
284.67	844
284.901	869
285.132	872
285.364	848
285.595	857
285.826	843
286.057	869
286.288	884
286.52	862
286.751	886
286.982	872
287.213	906
287.444	872
287.675	902
287.906	892
288.138	886
288.369	880
288.6	904
288.831	884
289.062	890
289.293	898
289.524	898
289.755	909
289.986	906
290.217	905
290.448	903
290.679	910
290.91	898
291.141	882
291.371	895
291.602	926
291.833	897
292.064	916
292.295	919
292.526	914
292.757	916
292.987	911
293.218	900
293.449	946
293.68	935
293.91	942
294.141	941
294.372	904
294.603	953
294.833	978
295.064	956
295.295	931
295.525	923
295.756	937
295.987	922
296.217	948
296.448	966
296.679	958
296.909	963
297.14	972
297.37	971
297.601	976
297.831	965
298.062	964
298.292	1023
298.523	1007
298.753	1021
298.984	994
299.214	1014
299.445	996
299.675	995
299.905	1032
300.136	1023
300.366	1044
300.597	1078
300.827	1039
301.057	1014
301.288	1035
301.518	1092
301.748	1042
301.979	1058
302.209	1067
302.439	1083
302.669	1025
302.9	1040
303.13	1049
303.36	1053
303.59	1047
303.82	1064
304.051	1069
304.281	1080
304.511	1077
304.741	1084
304.971	1098
305.201	1096
305.431	1102
305.661	1117
305.891	1126
306.121	1080
306.352	1071
306.582	1066
306.812	1054
307.042	1052
307.272	1055
307.502	1058
307.731	1084
307.961	1040
308.191	1054
308.421	1074
308.651	1054
308.881	1050
309.111	1031
309.341	1060
309.571	1071
309.8	1102
310.03	1112
310.26	1125
310.49	1173
310.72	1070
310.949	1090
311.179	1082
311.409	1104
311.639	1114
311.868	1071
312.098	1114
312.328	1110
312.557	1119
312.787	1121
313.017	1091
313.246	1120
313.476	1170
313.706	1178
313.935	1173
314.165	1110
314.394	1130
314.624	1139
314.853	1129
315.083	1137
315.312	1176
315.542	1146
315.771	1153
316.001	1135
316.23	1150
316.46	1119
316.689	1144
316.919	1153
317.148	1164
317.377	1141
317.607	1131
317.836	1139
318.065	1136
318.295	1179
318.524	1179
318.753	1141
318.983	1133
319.212	1158
319.441	1150
319.67	1163
319.9	1152
320.129	1156
320.358	1160
320.587	1149
320.816	1153
321.046	1179
321.275	1190
321.504	1185
321.733	1178
321.962	1205
322.191	1197
322.42	1177
322.649	1232
322.878	1200
323.108	1213
323.337	1183
323.566	1204
323.795	1216
324.024	1221
324.253	1220
324.482	1213
324.71	1210
324.939	1219
325.168	1238
325.397	1193
325.626	1210
325.855	1272
326.084	1250
326.313	1242
326.542	1257
326.77	1297
326.999	1258
327.228	1266
327.457	1247
327.686	1244
327.914	1253
328.143	1257
328.372	1230
328.6	1250
328.829	1273
329.058	1278
329.287	1274
329.515	1269
329.744	1295
329.972	1231
330.201	1266
330.43	1278
330.658	1272
330.887	1283
331.115	1293
331.344	1304
331.572	1310
331.801	1332
332.03	1355
332.258	1360
332.486	1340
332.715	1363
332.943	1346
333.172	1391
333.4	1400
333.629	1452
333.857	1456
334.085	1498
334.314	1471
334.542	1446
334.771	1497
334.999	1484
335.227	1475
335.455	1474
335.684	1494
335.912	1477
336.14	1487
336.369	1506
336.597	1499
336.825	1462
337.053	1511
337.281	1491
337.51	1458
337.738	1463
337.966	1444
338.194	1497
338.422	1458
338.65	1406
338.878	1371
339.106	1406
339.334	1456
339.562	1423
339.79	1358
340.018	1336
340.246	1358
340.474	1365
340.702	1363
340.93	1333
341.158	1356
341.386	1375
341.614	1454
341.842	1423
342.07	1315
342.298	1334
342.526	1319
342.754	1371
342.981	1297
343.209	1358
343.437	1389
343.665	1444
343.893	1422
344.12	1458
344.348	1423
344.576	1476
344.804	1469
345.031	1422
345.259	1370
345.487	1390
345.714	1390
345.942	1398
346.17	1460
346.397	1384
346.625	1339
346.853	1283
347.08	1298
347.308	1327
347.535	1296
347.763	1259
347.99	1283
348.218	1270
348.445	1252
348.673	1268
348.9	1252
349.128	1247
349.355	1314
349.583	1312
349.81	1240
350.037	1252
350.265	1227
350.492	1232
350.72	1255
350.947	1258
351.174	1277
351.402	1308
351.629	1359
351.856	1290
352.083	1274
352.311	1295
352.538	1326
352.765	1330
352.992	1236
353.22	1191
353.447	1199
353.674	1192
353.901	1207
354.128	1208
354.355	1198
354.583	1200
354.81	1215
355.037	1188
355.264	1206
355.491	1164
355.718	1223
355.945	1215
356.172	1209
356.399	1217
356.626	1256
356.853	1297
357.08	1228
357.307	1255
357.534	1228
357.761	1205
357.988	1208
358.215	1195
358.441	1200
358.668	1173
358.895	1159
359.122	1199
359.349	1194
359.576	1212
359.802	1206
360.029	1220
360.256	1204
360.483	1205
360.709	1215
360.936	1210
361.163	1254
361.39	1223
361.616	1224
361.843	1234
362.07	1290
362.296	1331
362.523	1246
362.749	1205
362.976	1191
363.203	1197
363.429	1175
363.656	1189
363.882	1191
364.109	1214
364.335	1192
364.562	1179
364.788	1204
365.015	1189
365.241	1179
365.468	1177
365.694	1175
365.92	1178
366.147	1172
366.373	1180
366.599	1214
366.826	1186
367.052	1213
367.278	1172
367.505	1194
367.731	1230
367.957	1196
368.184	1187
368.41	1190
368.636	1194
368.862	1224
369.089	1204
369.315	1218
369.541	1216
369.767	1233
369.993	1220
370.219	1232
370.445	1212
370.672	1239
370.898	1233
371.124	1269
371.35	1244
371.576	1231
371.802	1247
372.028	1267
372.254	1282
372.48	1256
372.706	1298
372.932	1275
373.158	1263
373.384	1272
373.61	1262
373.835	1250
374.061	1259
374.287	1275
374.513	1249
374.739	1274
374.965	1332
375.191	1253
375.416	1288
375.642	1273
375.868	1282
376.094	1294
376.319	1255
376.545	1295
376.771	1275
376.997	1287
377.222	1242
377.448	1279
377.674	1252
377.899	1265
378.125	1271
378.35	1249
378.576	1230
378.802	1212
379.027	1212
379.253	1251
379.478	1230
379.704	1217
379.929	1209
380.155	1235
380.38	1213
380.606	1232
380.831	1245
381.057	1261
381.282	1253
381.507	1230
381.733	1227
381.958	1238
382.184	1228
382.409	1266
382.634	1292
382.86	1220
383.085	1263
383.31	1295
383.535	1312
383.761	1322
383.986	1307
384.211	1302
384.436	1325
384.662	1356
384.887	1356
385.112	1380
385.337	1366
385.562	1391
385.787	1424
386.013	1417
386.238	1416
386.463	1412
386.688	1405
386.913	1378
387.138	1407
387.363	1420
387.588	1384
387.813	1401
388.038	1412
388.263	1422
388.488	1450
388.713	1390
388.938	1418
389.163	1420
389.387	1429
389.612	1426
389.837	1455
390.062	1403
390.287	1421
390.512	1427
390.736	1424
390.961	1417
391.186	1463
391.411	1466
391.636	1481
391.86	1476
392.085	1523
392.31	1484
392.534	1509
392.759	1487
392.984	1496
393.208	1510
393.433	1502
393.658	1493
393.882	1426
394.107	1513
394.331	1491
394.556	1472
394.78	1502
395.005	1506
395.229	1514
395.454	1528
395.678	1542
395.903	1530
396.127	1548
396.352	1559
396.576	1527
396.801	1518
397.025	1579
397.249	1601
397.474	1588
397.698	1599
397.922	1605
398.147	1593
398.371	1630
398.595	1660
398.82	1705
399.044	1726
399.268	1842
399.492	1912
399.717	1983
399.941	2046
400.165	1971
400.389	1918
400.613	1880
400.837	1808
401.062	1804
401.286	1784
401.51	1718
401.734	1718
401.958	1731
402.182	1713
402.406	1700
402.63	1759
402.854	1741
403.078	1720
403.302	1723
403.526	1731
403.75	1751
403.974	1767
404.198	1744
404.422	1810
404.645	1763
404.869	1755
405.093	1763
405.317	1769
405.541	1810
405.765	1803
405.988	1781
406.212	1806
406.436	1838
406.66	1852
406.883	1890
407.107	1923
407.331	1922
407.555	1968
407.778	1946
408.002	1989
408.226	1971
408.449	1949
408.673	1936
408.896	1879
409.12	1893
409.344	1896
409.567	1861
409.791	1868
410.014	1871
410.238	1818
410.461	1835
410.685	1855
410.908	1805
411.132	1826
411.355	1765
411.578	1804
411.802	1791
412.025	1819
412.249	1805
412.472	1824
412.695	1780
412.919	1748
413.142	1788
413.365	1742
413.589	1728
413.812	1741
414.035	1750
414.258	1737
414.482	1727
414.705	1735
414.928	1732
415.151	1744
415.374	1782
415.597	1686
415.821	1686
416.044	1676
416.267	1672
416.49	1715
416.713	1654
416.936	1692
417.159	1680
417.382	1654
417.605	1650
417.828	1659
418.051	1668
418.274	1703
418.497	1636
418.72	1677
418.943	1655
419.166	1763
419.389	1910
419.611	1862
419.834	1791
420.057	1748
420.28	1693
420.503	1650
420.726	1621
420.948	1650
421.171	1639
421.394	1632
421.617	1657
421.839	1676
422.062	1674
422.285	1664
422.507	1675
422.73	1667
422.953	1669
423.175	1689
423.398	1691
423.621	1642
423.843	1686
424.066	1679
424.288	1660
424.511	1673
424.733	1657
424.956	1645
425.178	1644
425.401	1623
425.623	1708
425.846	1631
426.068	1662
426.291	1652
426.513	1691
426.735	1614
426.958	1676
427.18	1589
427.402	1630
427.625	1628
427.847	1612
428.069	1605
428.292	1601
428.514	1630
428.736	1613
428.958	1615
429.181	1606
429.403	1636
429.625	1572
429.847	1561
430.069	1584
430.292	1579
430.514	1564
430.736	1616
430.958	1643
431.18	1624
431.402	1602
431.624	1603
431.846	1612
432.068	1619
432.29	1652
432.512	1610
432.734	1647
432.956	1597
433.178	1675
433.4	1671
433.622	1650
433.844	1695
434.066	1672
434.287	1672
434.509	1676
434.731	1703
434.953	1724
435.175	1722
435.397	1783
435.618	1698
435.84	1690
436.062	1668
436.284	1617
436.505	1602
436.727	1657
436.949	1657
437.17	1662
437.392	1622
437.614	1579
437.835	1549
438.057	1572
438.278	1569
438.5	1578
438.721	1598
438.943	1574
439.165	1557
439.386	1589
439.608	1610
439.829	1571
440.05	1607
440.272	1611
440.493	1653
440.715	1673
440.936	1682
441.158	1678
441.379	1676
441.6	1716
441.822	1741
442.043	1724
442.264	1744
442.486	1697
442.707	1663
442.928	1677
443.149	1729
443.371	1705
443.592	1786
443.813	1806
444.034	1753
444.255	1750
444.476	1794
444.698	1858
444.919	1869
445.14	1931
445.361	1875
445.582	1769
445.803	1738
446.024	1688
446.245	1650
446.466	1657
446.687	1627
446.908	1594
447.129	1593
447.35	1607
447.571	1610
447.792	1555
448.013	1573
448.234	1569
448.455	1512
448.675	1550
448.896	1547
449.117	1503
449.338	1517
449.559	1497
449.779	1550
450	1501
450.221	1485
450.442	1509
450.662	1489
450.883	1542
451.104	1562
451.324	1516
451.545	1484
451.766	1504
451.986	1514
452.207	1489
452.428	1488
452.648	1525
452.869	1502
453.089	1493
453.31	1492
453.53	1435
453.751	1416
453.971	1469
454.192	1472
454.412	1512
454.633	1486
454.853	1479
455.073	1440
455.294	1449
455.514	1469
455.734	1463
455.955	1478
456.175	1492
456.395	1445
456.616	1417
456.836	1444
457.056	1440
457.276	1468
457.497	1484
457.717	1477
457.937	1496
458.157	1490
458.377	1510
458.598	1511
458.818	1529
459.038	1552
459.258	1591
459.478	1679
459.698	1798
459.918	1881
460.138	1778
460.358	1827
460.578	1808
460.798	1877
461.018	1899
461.238	1831
461.458	1820
461.678	1818
461.898	1848
462.118	1806
462.338	1917
462.558	1940
462.777	2004
462.997	2142
463.217	2103
463.437	2159
463.657	2144
463.876	2004
464.096	2009
464.316	2022
464.536	1942
464.755	1928
464.975	1913
465.195	1840
465.414	1803
465.634	1752
465.854	1707
466.073	1682
466.293	1679
466.512	1621
466.732	1622
466.951	1623
467.171	1621
467.391	1638
467.61	1575
467.829	1574
468.049	1603
468.268	1572
468.488	1550
468.707	1562
468.927	1581
469.146	1569
469.365	1588
469.585	1587
469.804	1560
470.023	1575
470.243	1597
470.462	1622
470.681	1587
470.901	1623
471.12	1598
471.339	1612
471.558	1647
471.777	1627
471.997	1595
472.216	1591
472.435	1578
472.654	1536
472.873	1547
473.092	1589
473.311	1551
473.53	1593
473.749	1570
473.968	1604
474.187	1552
474.406	1572
474.625	1612
474.844	1636
475.063	1597
475.282	1618
475.501	1689
475.72	1608
475.939	1646
476.158	1673
476.377	1658
476.596	1662
476.814	1677
477.033	1673
477.252	1707
477.471	1747
477.69	1742
477.908	1794
478.127	1805
478.346	1827
478.564	1833
478.783	1869
479.002	1967
479.22	1991
479.439	1955
479.658	1926
479.876	1940
480.095	1925
480.313	1956
480.532	1975
480.751	1969
480.969	1964
481.188	1867
481.406	1880
481.624	1919
481.843	1892
482.061	1877
482.28	1853
482.498	1882
482.717	1904
482.935	1922
483.153	1902
483.372	1967
483.59	1981
483.808	1914
484.027	1909
484.245	1887
484.463	1912
484.681	1944
484.9	1905
485.118	1952
485.336	1896
485.554	1945
485.772	1978
485.99	1963
486.209	1943
486.427	1930
486.645	1973
486.863	2009
487.081	1960
487.299	1915
487.517	1999
487.735	1972
487.953	1997
488.171	2005
488.389	1946
488.607	1965
488.825	1958
489.043	1939
489.261	1940
489.479	1960
489.696	1975
489.914	1901
490.132	1991
490.35	1952
490.568	1973
490.786	1981
491.003	1997
491.221	2000
491.439	2022
491.657	1992
491.874	2001
492.092	2003
492.31	2004
492.527	2031
492.745	2054
492.963	2031
493.18	2013
493.398	2024
493.615	2002
493.833	2028
494.05	2064
494.268	2070
494.485	2029
494.703	2076
494.92	2118
495.138	2112
495.355	2066
495.573	2151
495.79	2087
496.008	2159
496.225	2175
496.442	2176
496.66	2219
496.877	2213
497.094	2207
497.312	2294
497.529	2294
497.746	2378
497.963	2408
498.181	2453
498.398	2499
498.615	2624
498.832	2714
499.049	2858
499.267	2914
499.484	3070
499.701	3195
499.918	3274
500.135	3490
500.352	3656
500.569	3787
500.786	3796
501.003	3699
501.22	3527
501.437	3366
501.654	3245
501.871	3038
502.088	2917
502.305	2832
502.522	2753
502.739	2655
502.956	2558
503.172	2475
503.389	2438
503.606	2351
503.823	2346
504.04	2316
504.256	2293
504.473	2224
504.69	2198
504.907	2198
505.123	2138
505.34	2083
505.557	1989
505.773	2018
505.99	1990
506.207	1937
506.423	1884
506.64	1871
506.856	1906
507.073	1894
507.289	1854
507.506	1839
507.722	1807
507.939	1778
508.155	1739
508.372	1830
508.588	1748
508.805	1768
509.021	1726
509.238	1733
509.454	1686
509.67	1710
509.887	1714
510.103	1691
510.319	1687
510.536	1663
510.752	1641
510.968	1661
511.184	1628
511.401	1640
511.617	1622
511.833	1630
512.049	1627
512.265	1650
512.481	1678
512.698	1625
512.914	1659
513.13	1668
513.346	1666
513.562	1663
513.778	1641
513.994	1669
514.21	1666
514.426	1670
514.642	1666
514.858	1687
515.074	1660
515.29	1695
515.506	1653
515.721	1698
515.937	1744
516.153	1730
516.369	1724
516.585	1767
516.801	1796
517.016	1792
517.232	1858
517.448	1880
517.664	1878
517.879	1902
518.095	1910
518.311	1858
518.527	1868
518.742	1835
518.958	1788
519.173	1757
519.389	1747
519.605	1670
519.82	1692
520.036	1688
520.251	1645
520.467	1586
520.682	1618
520.898	1584
521.113	1587
521.329	1553
521.544	1587
521.76	1549
521.975	1574
522.19	1555
522.406	1551
522.621	1541
522.836	1483
523.052	1523
523.267	1471
523.482	1514
523.698	1500
523.913	1514
524.128	1533
524.343	1483
524.559	1461
524.774	1464
524.989	1473
525.204	1482
525.419	1501
525.634	1473
525.849	1450
526.064	1461
526.28	1468
526.495	1448
526.71	1448
526.925	1418
527.14	1410
527.355	1411
527.57	1453
527.785	1432
527.999	1440
528.214	1427
528.429	1460
528.644	1405
528.859	1431
529.074	1409
529.289	1440
529.503	1427
529.718	1441
529.933	1424
530.148	1414
530.363	1371
530.577	1408
530.792	1408
531.007	1356
531.221	1419
531.436	1374
531.651	1371
531.865	1388
532.08	1388
532.295	1387
532.509	1374
532.724	1404
532.938	1410
533.153	1382
533.367	1364
533.582	1376
533.796	1356
534.011	1371
534.225	1374
534.44	1349
534.654	1340
534.868	1326
535.083	1357
535.297	1328
535.511	1352
535.726	1352
535.94	1321
536.154	1323
536.369	1323
536.583	1278
536.797	1295
537.011	1306
537.225	1310
537.44	1280
537.654	1328
537.868	1315
538.082	1297
538.296	1303
538.51	1268
538.724	1268
538.938	1274
539.153	1300
539.367	1293
539.581	1299
539.795	1257
540.009	1253
540.222	1268
540.436	1245
540.65	1266
540.864	1227
541.078	1268
541.292	1282
541.506	1256
541.72	1278
541.934	1262
542.147	1278
542.361	1267
542.575	1228
542.789	1240
543.002	1254
543.216	1225
543.43	1204
543.644	1218
543.857	1238
544.071	1234
544.285	1246
544.498	1276
544.712	1255
544.925	1242
545.139	1243
545.352	1250
545.566	1253
545.779	1226
545.993	1255
546.206	1287
546.42	1243
546.633	1260
546.847	1268
547.06	1232
547.274	1257
547.487	1260
547.7	1254
547.914	1286
548.127	1267
548.34	1251
548.554	1255
548.767	1266
548.98	1267
549.193	1262
549.407	1244
549.62	1247
549.833	1255
550.046	1247
550.259	1246
550.473	1223
550.686	1250
550.899	1229
551.112	1238
551.325	1255
551.538	1226
551.751	1202
551.964	1267
552.177	1229
552.39	1217
552.603	1259
552.816	1244
553.029	1256
553.242	1279
553.455	1269
553.667	1247
553.88	1258
554.093	1234
554.306	1229
554.519	1187
554.732	1189
554.944	1167
555.157	1175
555.37	1198
555.583	1176
555.795	1141
556.008	1158
556.221	1125
556.433	1100
556.646	1129
556.859	1162
557.071	1103
557.284	1070
557.496	1074
557.709	1087
557.921	1072
558.134	1078
558.346	1051
558.559	1052
558.771	1066
558.984	1031
559.196	1053
559.409	1065
559.621	1014
559.833	1034
560.046	1025
560.258	1038
560.47	1038
560.683	1046
560.895	1022
561.107	1022
561.32	1032
561.532	1060
561.744	1068
561.956	1028
562.168	1034
562.381	1038
562.593	1020
562.805	1048
563.017	1046
563.229	1046
563.441	1061
563.653	1056
563.865	1062
564.077	1089
564.289	1086
564.501	1081
564.713	1110
564.925	1103
565.137	1095
565.349	1131
565.561	1157
565.773	1165
565.985	1211
566.197	1223
566.408	1251
566.62	1300
566.832	1340
567.044	1339
567.255	1352
567.467	1351
567.679	1419
567.891	1376
568.102	1402
568.314	1346
568.526	1279
568.737	1244
568.949	1190
569.161	1166
569.372	1122
569.584	1088
569.795	1053
570.007	1069
570.218	1058
570.43	1032
570.641	1013
570.853	980
571.064	1007
571.276	977
571.487	939
571.698	939
571.91	906
572.121	900
572.333	907
572.544	893
572.755	896
572.966	888
573.178	884
573.389	864
573.6	847
573.811	862
574.023	855
574.234	845
574.445	840
574.656	843
574.867	840
575.078	830
575.289	818
575.501	819
575.712	800
575.923	751
576.134	772
576.345	800
576.556	802
576.767	786
576.978	757
577.188	780
577.399	790
577.61	732
577.821	748
578.032	746
578.243	745
578.454	755
578.665	782
578.875	753
579.086	732
579.297	737
579.508	741
579.718	707
579.929	751
580.14	726
580.35	715
580.561	738
580.772	715
580.982	714
581.193	705
581.403	685
581.614	702
581.825	698
582.035	709
582.246	686
582.456	682
582.667	685
582.877	690
583.087	692
583.298	668
583.508	685
583.719	698
583.929	685
584.139	684
584.35	671
584.56	661
584.77	661
584.981	654
585.191	683
585.401	664
585.611	656
585.821	661
586.032	655
586.242	670
586.452	670
586.662	646
586.872	652
587.082	677
587.292	659
587.502	637
587.713	666
587.923	649
588.133	667
588.343	650
588.553	682
588.762	672
588.972	675
589.182	818
589.392	828
589.602	668
589.812	793
590.022	775
590.232	647
590.441	656
590.651	657
590.861	629
591.071	670
591.281	655
591.49	662
591.7	674
591.91	671
592.119	677
592.329	671
592.539	683
592.748	694
592.958	716
593.167	708
593.377	702
593.587	704
593.796	685
594.006	688
594.215	667
594.424	689
594.634	682
594.843	663
595.053	684
595.262	662
595.472	679
595.681	630
595.89	620
596.1	640
596.309	636
596.518	651
596.727	618
596.937	604
597.146	596
597.355	601
597.564	590
597.774	582
597.983	589
598.192	558
598.401	548
598.61	570
598.819	539
599.028	537
599.237	554
599.446	559
599.655	549
599.864	549
600.073	528
600.282	536
600.491	540
600.7	522
600.909	523
601.118	505
601.327	529
601.536	533
601.745	522
601.953	501
602.162	524
602.371	499
602.58	504
602.789	526
602.997	514
603.206	512
603.415	494
603.623	477
603.832	514
604.041	494
604.249	498
604.458	499
604.666	485
604.875	493
605.084	478
605.292	490
605.501	483
605.709	486
605.918	481
606.126	476
606.334	476
606.543	491
606.751	471
606.96	471
607.168	476
607.376	478
607.585	460
607.793	474
608.001	485
608.21	479
608.418	467
608.626	458
608.834	478
609.043	463
609.251	469
609.459	478
609.667	453
609.875	455
610.083	462
610.291	481
610.499	475
610.707	459
610.916	463
611.124	459
611.332	447
611.54	467
611.748	465
611.955	458
612.163	446
612.371	450
612.579	449
612.787	451
612.995	468
613.203	448
613.411	445
613.618	446
613.826	451
614.034	427
614.242	440
614.449	450
614.657	438
614.865	433
615.072	458
615.28	438
615.488	456
615.695	438
615.903	447
616.111	434
616.318	426
616.526	456
616.733	435
616.941	416
617.148	434
617.356	427
617.563	416
617.771	399
617.978	429
618.185	416
618.393	401
618.6	428
618.807	419
619.015	448
619.222	400
619.429	425
619.637	434
619.844	415
620.051	426
620.258	426
620.466	394
620.673	410
620.88	378
621.087	402
621.294	404
621.501	391
621.708	401
621.915	414
622.122	395
622.329	400
622.536	399
622.743	384
622.95	379
623.157	366
623.364	378
623.571	412
623.778	380
623.985	387
624.192	384
624.399	381
624.606	372
624.812	383
625.019	370
625.226	383
625.433	368
625.639	376
625.846	378
626.053	378
626.259	372
626.466	375
626.673	348
626.879	359
627.086	370
627.293	374
627.499	364
627.706	363
627.912	358
628.119	356
628.325	355
628.532	360
628.738	343
628.945	352
629.151	356
629.357	348
629.564	341
629.77	350
629.976	340
630.183	347
630.389	336
630.595	346
630.802	348
631.008	339
631.214	342
631.42	334
631.627	327
631.833	348
632.039	342
632.245	314
632.451	335
632.657	319
632.863	333
633.069	331
633.275	316
633.481	325
633.688	332
633.893	327
634.099	328
634.305	317
634.511	315
634.717	320
634.923	326
635.129	318
635.335	312
635.541	318
635.747	314
635.952	321
636.158	307
636.364	303
636.57	324
636.775	312
636.981	311
637.187	314
637.392	299
637.598	298
637.804	313
638.009	296
638.215	323
638.421	295
638.626	288
638.832	306
639.037	310
639.243	294
639.448	295
639.654	317
639.859	318
640.065	315
640.27	302
640.475	292
640.681	306
640.886	286
641.091	299
641.297	292
641.502	275
641.707	295
641.913	280
642.118	296
642.323	294
642.528	298
642.733	303
642.939	290
643.144	290
643.349	277
643.554	284
643.759	286
643.964	280
644.169	296
644.374	300
644.579	281
644.784	293
644.989	288
645.194	284
645.399	290
645.604	280
645.809	286
646.014	284
646.219	272
646.423	276
646.628	285
646.833	296
647.038	308
647.243	294
647.447	286
647.652	292
647.857	282
648.062	294
648.266	287
648.471	289
648.676	302
648.88	289
649.085	288
649.289	308
649.494	301
649.698	285
649.903	281
650.107	298
650.312	289
650.516	288
650.721	292
650.925	278
651.13	267
651.334	283
651.539	262
651.743	266
651.947	280
652.152	288
652.356	280
652.56	251
652.764	253
652.969	248
653.173	281
653.377	247
653.581	236
653.785	252
653.99	237
654.194	264
654.398	261
654.602	228
654.806	246
655.01	248
655.214	243
655.418	242
655.622	241
655.826	252
656.03	239
656.234	243
656.438	240
656.642	263
656.846	230
657.049	224
657.253	201
657.457	194
657.661	201
657.865	187
658.068	184
658.272	164
658.476	166
658.68	160
658.883	135
659.087	136
659.291	132
659.494	132
659.698	152
659.901	127
660.105	127
660.309	104
660.512	110
660.716	124
660.919	125
661.123	120
661.326	114
661.53	108
661.733	107
661.936	92
662.14	101
662.343	95
662.546	95
662.75	88
662.953	104
663.156	98
663.36	100
663.563	100
663.766	102
663.969	90
664.173	94
664.376	95
664.579	85
664.782	95
664.985	89
665.188	87
665.391	89
665.594	96
665.797	91
666	84
666.203	80
666.406	78
666.609	96
666.812	82
667.015	78
667.218	99
667.421	89
667.624	80
667.827	76
668.03	97
668.232	84
668.435	85
668.638	89
668.841	80
669.043	96
669.246	91
669.449	74
669.651	60
669.854	80
670.057	102
670.259	83
670.462	72
670.665	90
670.867	90
671.07	78
671.272	85
671.475	91
671.677	77
671.88	75
672.082	91
672.284	97
672.487	93
672.689	88
672.892	83
