Data from NiCl2@0.0625M.TitratingCurve.Agarose3%dH2O.NegLispCup.LampEnergy10.LIBS07252019_HRD10591_18-34-18-577.txt Node
Date: Thu Jul 25 18:34:18 EDT 2019
User: cochatt
Spectrometer: HR+D1059
Trigger mode: 1
Integration Time (sec): 1.000000E-1
Scans to average: 1
Electric dark correction enabled: true
Nonlinearity correction enabled: false
Boxcar width: 0
XAxis mode: Wavelengths
Number of Pixels in Spectrum: 2048
>>>>>Begin Spectral Data<<<<<
223.165	-10
223.4	-10
223.635	-10
223.869	-10
224.104	-29
224.338	-12
224.573	-23
224.808	-18
225.042	-7
225.277	-13
225.511	10
225.746	3
225.98	7
226.215	21
226.449	10
226.683	23
226.918	17
227.152	31
227.387	32
227.621	41
227.856	50
228.09	43
228.324	50
228.559	59
228.793	77
229.027	139
229.262	155
229.496	170
229.73	159
229.964	167
230.199	178
230.433	179
230.667	180
230.901	184
231.136	175
231.37	183
231.604	192
231.838	190
232.072	190
232.306	185
232.541	209
232.775	219
233.009	216
233.243	209
233.477	224
233.711	202
233.945	206
234.179	223
234.413	214
234.647	212
234.881	229
235.115	205
235.349	220
235.583	213
235.817	215
236.051	250
236.285	239
236.519	228
236.753	229
236.987	219
237.221	229
237.455	251
237.689	231
237.922	246
238.156	239
238.39	230
238.624	228
238.858	252
239.091	263
239.325	261
239.559	272
239.793	270
240.027	274
240.26	281
240.494	267
240.728	290
240.961	281
241.195	278
241.429	298
241.662	284
241.896	308
242.13	305
242.363	297
242.597	294
242.83	313
243.064	306
243.298	299
243.531	327
243.765	322
243.998	323
244.232	317
244.465	324
244.699	317
244.932	361
245.166	336
245.399	329
245.633	341
245.866	357
246.099	332
246.333	361
246.566	359
246.8	355
247.033	348
247.266	332
247.5	355
247.733	356
247.966	374
248.2	374
248.433	378
248.666	388
248.899	380
249.133	386
249.366	392
249.599	394
249.832	394
250.066	402
250.299	403
250.532	396
250.765	386
250.998	420
251.231	389
251.465	411
251.698	416
251.931	407
252.164	421
252.397	437
252.63	404
252.863	417
253.096	431
253.329	434
253.562	441
253.795	442
254.028	442
254.261	449
254.494	455
254.727	448
254.96	444
255.193	449
255.426	460
255.659	462
255.892	477
256.124	466
256.357	487
256.59	484
256.823	459
257.056	464
257.289	470
257.521	478
257.754	488
257.987	485
258.22	483
258.452	488
258.685	505
258.918	486
259.151	497
259.383	494
259.616	511
259.849	506
260.081	511
260.314	518
260.547	544
260.779	525
261.012	508
261.244	520
261.477	531
261.71	533
261.942	528
262.175	548
262.407	550
262.64	534
262.872	529
263.105	520
263.337	561
263.57	561
263.802	556
264.035	562
264.267	569
264.499	548
264.732	581
264.964	561
265.197	583
265.429	573
265.661	581
265.894	595
266.126	585
266.358	598
266.591	587
266.823	586
267.055	602
267.287	618
267.52	610
267.752	594
267.984	616
268.216	587
268.448	596
268.681	606
268.913	625
269.145	644
269.377	632
269.609	648
269.841	637
270.073	625
270.306	638
270.538	649
270.77	617
271.002	626
271.234	638
271.466	654
271.698	628
271.93	626
272.162	646
272.394	650
272.626	678
272.858	686
273.09	649
273.322	670
273.553	657
273.785	671
274.017	692
274.249	702
274.481	690
274.713	720
274.945	705
275.176	703
275.408	693
275.64	709
275.872	699
276.104	696
276.335	719
276.567	714
276.799	695
277.031	709
277.262	705
277.494	737
277.726	731
277.957	720
278.189	727
278.421	727
278.652	740
278.884	721
279.115	734
279.347	768
279.579	767
279.81	733
280.042	745
280.273	752
280.505	784
280.736	773
280.968	763
281.199	767
281.431	777
281.662	766
281.894	790
282.125	749
282.356	803
282.588	786
282.819	798
283.051	811
283.282	797
283.513	797
283.745	819
283.976	821
284.207	788
284.439	808
284.67	834
284.901	800
285.132	815
285.364	823
285.595	830
285.826	818
286.057	847
286.288	844
286.52	833
286.751	824
286.982	828
287.213	846
287.444	857
287.675	868
287.906	840
288.138	847
288.369	864
288.6	910
288.831	847
289.062	867
289.293	857
289.524	860
289.755	879
289.986	873
290.217	893
290.448	894
290.679	901
290.91	892
291.141	879
291.371	904
291.602	876
291.833	896
292.064	905
292.295	899
292.526	900
292.757	871
292.987	876
293.218	888
293.449	888
293.68	887
293.91	905
294.141	882
294.372	909
294.603	912
294.833	911
295.064	918
295.295	896
295.525	895
295.756	900
295.987	876
296.217	897
296.448	920
296.679	906
296.909	908
297.14	937
297.37	945
297.601	939
297.831	946
298.062	930
298.292	951
298.523	969
298.753	984
298.984	969
299.214	935
299.445	981
299.675	969
299.905	944
300.136	978
300.366	973
300.597	962
300.827	975
301.057	1029
301.288	985
301.518	1016
301.748	1010
301.979	1037
302.209	996
302.439	1017
302.669	1020
302.9	1009
303.13	1004
303.36	1029
303.59	1007
303.82	1006
304.051	996
304.281	1016
304.511	1017
304.741	1009
304.971	1031
305.201	1015
305.431	1007
305.661	1009
305.891	1020
306.121	1008
306.352	987
306.582	1017
306.812	985
307.042	988
307.272	1004
307.502	1002
307.731	995
307.961	981
308.191	989
308.421	985
308.651	1003
308.881	1033
309.111	1012
309.341	1005
309.571	1017
309.8	1015
310.03	995
310.26	1030
310.49	983
310.72	983
310.949	1016
311.179	1014
311.409	1020
311.639	1036
311.868	1048
312.098	1035
312.328	1030
312.557	1064
312.787	1058
313.017	1031
313.246	1055
313.476	1048
313.706	1086
313.935	1089
314.165	1087
314.394	1071
314.624	1066
314.853	1079
315.083	1064
315.312	1091
315.542	1104
315.771	1084
316.001	1078
316.23	1082
316.46	1068
316.689	1096
316.919	1062
317.148	1079
317.377	1090
317.607	1048
317.836	1069
318.065	1077
318.295	1089
318.524	1076
318.753	1073
318.983	1103
319.212	1041
319.441	1058
319.67	1043
319.9	1094
320.129	1063
320.358	1081
320.587	1076
320.816	1080
321.046	1051
321.275	1037
321.504	1072
321.733	1088
321.962	1064
322.191	1102
322.42	1113
322.649	1073
322.878	1087
323.108	1104
323.337	1117
323.566	1097
323.795	1096
324.024	1143
324.253	1108
324.482	1126
324.71	1129
324.939	1094
325.168	1136
325.397	1140
325.626	1148
325.855	1155
326.084	1154
326.313	1164
326.542	1155
326.77	1198
326.999	1160
327.228	1161
327.457	1156
327.686	1146
327.914	1170
328.143	1185
328.372	1175
328.6	1144
328.829	1149
329.058	1187
329.287	1176
329.515	1182
329.744	1196
329.972	1185
330.201	1198
330.43	1205
330.658	1190
330.887	1212
331.115	1214
331.344	1257
331.572	1225
331.801	1263
332.03	1278
332.258	1288
332.486	1332
332.715	1353
332.943	1393
333.172	1424
333.4	1464
333.629	1468
333.857	1525
334.085	1509
334.314	1509
334.542	1512
334.771	1498
334.999	1480
335.227	1494
335.455	1476
335.684	1451
335.912	1480
336.14	1436
336.369	1435
336.597	1412
336.825	1398
337.053	1403
337.281	1389
337.51	1358
337.738	1370
337.966	1325
338.194	1332
338.422	1273
338.65	1326
338.878	1293
339.106	1268
339.334	1278
339.562	1307
339.79	1237
340.018	1244
340.246	1213
340.474	1226
340.702	1215
340.93	1229
341.158	1242
341.386	1216
341.614	1264
341.842	1226
342.07	1242
342.298	1223
342.526	1220
342.754	1212
342.981	1244
343.209	1262
343.437	1317
343.665	1359
343.893	1436
344.12	1450
344.348	1436
344.576	1396
344.804	1314
345.031	1273
345.259	1290
345.487	1238
345.714	1231
345.942	1217
346.17	1235
346.397	1207
346.625	1201
346.853	1221
347.08	1179
347.308	1186
347.535	1174
347.763	1185
347.99	1144
348.218	1188
348.445	1188
348.673	1160
348.9	1168
349.128	1156
349.355	1164
349.583	1180
349.81	1146
350.037	1148
350.265	1147
350.492	1151
350.72	1129
350.947	1151
351.174	1168
351.402	1150
351.629	1141
351.856	1114
352.083	1119
352.311	1112
352.538	1134
352.765	1158
352.992	1154
353.22	1155
353.447	1124
353.674	1154
353.901	1125
354.128	1131
354.355	1117
354.583	1136
354.81	1135
355.037	1146
355.264	1114
355.491	1124
355.718	1158
355.945	1129
356.172	1156
356.399	1127
356.626	1172
356.853	1144
357.08	1114
357.307	1127
357.534	1125
357.761	1167
357.988	1154
358.215	1117
358.441	1148
358.668	1144
358.895	1145
359.122	1131
359.349	1163
359.576	1134
359.802	1133
360.029	1134
360.256	1127
360.483	1132
360.709	1160
360.936	1154
361.163	1112
361.39	1148
361.616	1109
361.843	1113
362.07	1153
362.296	1129
362.523	1151
362.749	1183
362.976	1146
363.203	1132
363.429	1121
363.656	1166
363.882	1154
364.109	1136
364.335	1105
364.562	1096
364.788	1164
365.015	1118
365.241	1120
365.468	1134
365.694	1134
365.92	1142
366.147	1134
366.373	1140
366.599	1148
366.826	1140
367.052	1155
367.278	1159
367.505	1156
367.731	1127
367.957	1148
368.184	1166
368.41	1152
368.636	1164
368.862	1164
369.089	1180
369.315	1194
369.541	1167
369.767	1172
369.993	1196
370.219	1196
370.445	1194
370.672	1198
370.898	1213
371.124	1207
371.35	1265
371.576	1228
371.802	1207
372.028	1237
372.254	1227
372.48	1236
372.706	1258
372.932	1270
373.158	1268
373.384	1240
373.61	1286
373.835	1263
374.061	1255
374.287	1269
374.513	1266
374.739	1313
374.965	1348
375.191	1344
375.416	1339
375.642	1305
375.868	1286
376.094	1287
376.319	1262
376.545	1264
376.771	1238
376.997	1228
377.222	1254
377.448	1234
377.674	1246
377.899	1215
378.125	1218
378.35	1232
378.576	1246
378.802	1219
379.027	1221
379.253	1240
379.478	1219
379.704	1244
379.929	1214
380.155	1211
380.38	1201
380.606	1189
380.831	1233
381.057	1252
381.282	1202
381.507	1232
381.733	1241
381.958	1268
382.184	1245
382.409	1256
382.634	1273
382.86	1269
383.085	1316
383.31	1257
383.535	1329
383.761	1320
383.986	1354
384.211	1375
384.436	1409
384.662	1422
384.887	1418
385.112	1447
385.337	1445
385.562	1446
385.787	1443
386.013	1485
386.238	1451
386.463	1490
386.688	1508
386.913	1444
387.138	1469
387.363	1460
387.588	1494
387.813	1454
388.038	1457
388.263	1465
388.488	1489
388.713	1508
388.938	1478
389.163	1453
389.387	1452
389.612	1444
389.837	1447
390.062	1431
390.287	1463
390.512	1447
390.736	1472
390.961	1506
391.186	1474
391.411	1552
391.636	1582
391.86	1633
392.085	1646
392.31	1616
392.534	1629
392.759	1584
392.984	1563
393.208	1557
393.433	1530
393.658	1536
393.882	1584
394.107	1566
394.331	1513
394.556	1545
394.78	1561
395.005	1542
395.229	1559
395.454	1626
395.678	1652
395.903	1623
396.127	1649
396.352	1594
396.576	1559
396.801	1568
397.025	1602
397.249	1619
397.474	1656
397.698	1643
397.922	1667
398.147	1678
398.371	1702
398.595	1760
398.82	1809
399.044	1928
399.268	2077
399.492	2290
399.717	2492
399.941	2536
400.165	2366
400.389	2173
400.613	2043
400.837	1962
401.062	1916
401.286	1877
401.51	1840
401.734	1845
401.958	1895
402.182	1838
402.406	1865
402.63	1884
402.854	1892
403.078	1944
403.302	1934
403.526	1928
403.75	1961
403.974	2023
404.198	2000
404.422	2008
404.645	1998
404.869	1969
405.093	1989
405.317	1976
405.541	1958
405.765	1975
405.988	1934
406.212	1972
406.436	1984
406.66	2027
406.883	2036
407.107	2162
407.331	2241
407.555	2312
407.778	2286
408.002	2285
408.226	2199
408.449	2233
408.673	2084
408.896	2053
409.12	2041
409.344	2103
409.567	2046
409.791	2069
410.014	2066
410.238	2041
410.461	2017
410.685	1956
410.908	1967
411.132	1952
411.355	1900
411.578	1946
411.802	1918
412.025	1882
412.249	1932
412.472	1932
412.695	1872
412.919	1828
413.142	1865
413.365	1815
413.589	1828
413.812	1826
414.035	1842
414.258	1801
414.482	1842
414.705	1871
414.928	1849
415.151	1868
415.374	1828
415.597	1830
415.821	1769
416.044	1807
416.267	1765
416.49	1735
416.713	1748
416.936	1769
417.159	1720
417.382	1715
417.605	1738
417.828	1746
418.051	1774
418.274	1808
418.497	1775
418.72	1806
418.943	1801
419.166	1892
419.389	2056
419.611	1990
419.834	1938
420.057	1825
420.28	1787
420.503	1737
420.726	1719
420.948	1767
421.171	1735
421.394	1730
421.617	1773
421.839	1781
422.062	1751
422.285	1746
422.507	1811
422.73	1749
422.953	1781
423.175	1786
423.398	1775
423.621	1795
423.843	1844
424.066	1825
424.288	1796
424.511	1804
424.733	1777
424.956	1755
425.178	1771
425.401	1769
425.623	1766
425.846	1717
426.068	1710
426.291	1693
426.513	1685
426.735	1683
426.958	1654
427.18	1639
427.402	1630
427.625	1636
427.847	1640
428.069	1600
428.292	1618
428.514	1609
428.736	1616
428.958	1613
429.181	1574
429.403	1599
429.625	1555
429.847	1544
430.069	1566
430.292	1558
430.514	1572
430.736	1582
430.958	1594
431.18	1607
431.402	1597
431.624	1590
431.846	1622
432.068	1629
432.29	1647
432.512	1597
432.734	1646
432.956	1571
433.178	1602
433.4	1645
433.622	1599
433.844	1675
434.066	1696
434.287	1678
434.509	1726
434.731	1753
434.953	1792
435.175	1790
435.397	1725
435.618	1741
435.84	1675
436.062	1657
436.284	1618
436.505	1616
436.727	1630
436.949	1599
437.17	1627
437.392	1576
437.614	1585
437.835	1542
438.057	1519
438.278	1526
438.5	1564
438.721	1535
438.943	1560
439.165	1550
439.386	1525
439.608	1581
439.829	1542
440.05	1585
440.272	1597
440.493	1584
440.715	1580
440.936	1602
441.158	1640
441.379	1681
441.6	1760
441.822	1731
442.043	1750
442.264	1711
442.486	1689
442.707	1676
442.928	1687
443.149	1730
443.371	1693
443.592	1724
443.813	1783
444.034	1686
444.255	1783
444.476	1855
444.698	1928
444.919	1988
445.14	2087
445.361	1886
445.582	1830
445.803	1711
446.024	1672
446.245	1661
446.466	1643
446.687	1612
446.908	1568
447.129	1564
447.35	1569
447.571	1521
447.792	1466
448.013	1506
448.234	1442
448.455	1460
448.675	1436
448.896	1465
449.117	1418
449.338	1402
449.559	1434
449.779	1437
450	1416
450.221	1427
450.442	1433
450.662	1420
450.883	1456
451.104	1461
451.324	1420
451.545	1431
451.766	1393
451.986	1413
452.207	1391
452.428	1407
452.648	1393
452.869	1386
453.089	1366
453.31	1385
453.53	1391
453.751	1388
453.971	1369
454.192	1359
454.412	1348
454.633	1314
454.853	1336
455.073	1356
455.294	1352
455.514	1327
455.734	1370
455.955	1308
456.175	1332
456.395	1332
456.616	1320
456.836	1352
457.056	1340
457.276	1307
457.497	1384
457.717	1329
457.937	1387
458.157	1338
458.377	1363
458.598	1431
458.818	1444
459.038	1430
459.258	1549
459.478	1586
459.698	1616
459.918	1658
460.138	1712
460.358	1772
460.578	1779
460.798	1796
461.018	1803
461.238	1791
461.458	1782
461.678	1803
461.898	1805
462.118	1801
462.338	1918
462.558	1946
462.777	2058
462.997	2154
463.217	2261
463.437	2232
463.657	2172
463.876	2125
464.096	2114
464.316	2052
464.536	2037
464.755	2021
464.975	1969
465.195	1857
465.414	1794
465.634	1666
465.854	1658
466.073	1653
466.293	1634
466.512	1536
466.732	1530
466.951	1537
467.171	1515
467.391	1507
467.61	1516
467.829	1484
468.049	1507
468.268	1451
468.488	1460
468.707	1452
468.927	1430
469.146	1439
469.365	1467
469.585	1444
469.804	1513
470.023	1490
470.243	1508
470.462	1504
470.681	1565
470.901	1559
471.12	1528
471.339	1510
471.558	1472
471.777	1486
471.997	1476
472.216	1452
472.435	1425
472.654	1453
472.873	1449
473.092	1414
473.311	1412
473.53	1463
473.749	1412
473.968	1449
474.187	1447
474.406	1440
474.625	1404
474.844	1426
475.063	1418
475.282	1456
475.501	1489
475.72	1499
475.939	1484
476.158	1499
476.377	1503
476.596	1525
476.814	1510
477.033	1556
477.252	1544
477.471	1581
477.69	1635
477.908	1640
478.127	1666
478.346	1710
478.564	1718
478.783	1747
479.002	1817
479.22	1786
479.439	1795
479.658	1790
479.876	1820
480.095	1837
480.313	1873
480.532	1901
480.751	1948
480.969	1858
481.188	1872
481.406	1841
481.624	1752
481.843	1745
482.061	1695
482.28	1744
482.498	1729
482.717	1767
482.935	1757
483.153	1794
483.372	1762
483.59	1777
483.808	1808
484.027	1787
484.245	1793
484.463	1831
484.681	1865
484.9	1849
485.118	1920
485.336	1949
485.554	1908
485.772	1944
485.99	1929
486.209	1920
486.427	1931
486.645	1957
486.863	1942
487.081	1922
487.299	1923
487.517	1890
487.735	1892
487.953	1866
488.171	1864
488.389	1877
488.607	1844
488.825	1835
489.043	1846
489.261	1826
489.479	1812
489.696	1823
489.914	1833
490.132	1843
490.35	1800
490.568	1803
490.786	1787
491.003	1836
491.221	1781
491.439	1816
491.657	1808
491.874	1779
492.092	1801
492.31	1813
492.527	1784
492.745	1820
492.963	1798
493.18	1814
493.398	1810
493.615	1829
493.833	1810
494.05	1785
494.268	1816
494.485	1857
494.703	1826
494.92	1861
495.138	1805
495.355	1882
495.573	1841
495.79	1825
496.008	1887
496.225	1868
496.442	1893
496.66	1933
496.877	1946
497.094	1967
497.312	1975
497.529	2050
497.746	2102
497.963	2144
498.181	2240
498.398	2327
498.615	2428
498.832	2602
499.049	2676
499.267	2886
499.484	3158
499.701	3442
499.918	3714
500.135	4135
500.352	4478
500.569	4702
500.786	4671
501.003	4433
501.22	4016
501.437	3671
501.654	3320
501.871	3064
502.088	2880
502.305	2671
502.522	2581
502.739	2475
502.956	2347
503.172	2266
503.389	2151
503.606	2128
503.823	2078
504.04	2064
504.256	2024
504.473	2116
504.69	2120
504.907	2068
505.123	1944
505.34	1881
505.557	1774
505.773	1742
505.99	1720
506.207	1652
506.423	1628
506.64	1642
506.856	1648
507.073	1614
507.289	1614
507.506	1578
507.722	1619
507.939	1550
508.155	1566
508.372	1547
508.588	1525
508.805	1532
509.021	1510
509.238	1480
509.454	1489
509.67	1427
509.887	1475
510.103	1494
510.319	1428
510.536	1477
510.752	1437
510.968	1417
511.184	1409
511.401	1411
511.617	1435
511.833	1430
512.049	1460
512.265	1430
512.481	1423
512.698	1428
512.914	1412
513.13	1441
513.346	1450
513.562	1437
513.778	1452
513.994	1468
514.21	1436
514.426	1416
514.642	1440
514.858	1445
515.074	1474
515.29	1489
515.506	1532
515.721	1532
515.937	1534
516.153	1598
516.369	1594
516.585	1633
516.801	1668
517.016	1706
517.232	1761
517.448	1827
517.664	1875
517.879	1899
518.095	1860
518.311	1855
518.527	1762
518.742	1707
518.958	1683
519.173	1640
519.389	1585
519.605	1554
519.82	1553
520.036	1542
520.251	1449
520.467	1450
520.682	1449
520.898	1469
521.113	1415
521.329	1402
521.544	1392
521.76	1409
521.975	1362
522.19	1359
522.406	1362
522.621	1329
522.836	1323
523.052	1347
523.267	1324
523.482	1305
523.698	1320
523.913	1310
524.128	1306
524.343	1295
524.559	1323
524.774	1293
524.989	1311
525.204	1289
525.419	1248
525.634	1249
525.849	1290
526.064	1294
526.28	1274
526.495	1272
526.71	1281
526.925	1260
527.14	1266
527.355	1260
527.57	1245
527.785	1232
527.999	1231
528.214	1273
528.429	1259
528.644	1276
528.859	1269
529.074	1230
529.289	1246
529.503	1253
529.718	1262
529.933	1268
530.148	1280
530.363	1228
530.577	1224
530.792	1253
531.007	1218
531.221	1241
531.436	1229
531.651	1265
531.865	1238
532.08	1236
532.295	1251
532.509	1239
532.724	1212
532.938	1236
533.153	1253
533.367	1234
533.582	1235
533.796	1232
534.011	1241
534.225	1252
534.44	1224
534.654	1218
534.868	1203
535.083	1217
535.297	1193
535.511	1193
535.726	1212
535.94	1177
536.154	1182
536.369	1157
536.583	1159
536.797	1176
537.011	1172
537.225	1155
537.44	1185
537.654	1141
537.868	1141
538.082	1111
538.296	1120
538.51	1156
538.724	1150
538.938	1140
539.153	1122
539.367	1161
539.581	1149
539.795	1102
540.009	1140
540.222	1095
540.436	1105
540.65	1135
540.864	1080
541.078	1125
541.292	1122
541.506	1099
541.72	1115
541.934	1080
542.147	1106
542.361	1101
542.575	1084
542.789	1110
543.002	1105
543.216	1109
543.43	1112
543.644	1061
543.857	1089
544.071	1103
544.285	1089
544.498	1113
544.712	1098
544.925	1112
545.139	1112
545.352	1143
545.566	1113
545.779	1119
545.993	1137
546.206	1125
546.42	1128
546.633	1133
546.847	1121
547.06	1129
547.274	1097
547.487	1121
547.7	1112
547.914	1128
548.127	1134
548.34	1126
548.554	1119
548.767	1145
548.98	1108
549.193	1112
549.407	1140
549.62	1135
549.833	1132
550.046	1131
550.259	1153
550.473	1116
550.686	1135
550.899	1132
551.112	1107
551.325	1093
551.538	1116
551.751	1099
551.964	1121
552.177	1122
552.39	1135
552.603	1181
552.816	1165
553.029	1193
553.242	1214
553.455	1201
553.667	1184
553.88	1176
554.093	1160
554.306	1110
554.519	1118
554.732	1086
554.944	1091
555.157	1093
555.37	1071
555.583	1047
555.795	1023
556.008	1025
556.221	994
556.433	961
556.646	994
556.859	993
557.071	976
557.284	962
557.496	964
557.709	984
557.921	940
558.134	945
558.346	928
558.559	949
558.771	937
558.984	954
559.196	920
559.409	914
559.621	934
559.833	934
560.046	916
560.258	925
560.47	931
560.683	931
560.895	905
561.107	914
561.32	894
561.532	922
561.744	938
561.956	929
562.168	909
562.381	917
562.593	894
562.805	930
563.017	940
563.229	948
563.441	955
563.653	940
563.865	934
564.077	958
564.289	952
564.501	967
564.713	1019
564.925	1007
565.137	1023
565.349	1027
565.561	1070
565.773	1103
565.985	1159
566.197	1177
566.408	1282
566.62	1336
566.832	1454
567.044	1417
567.255	1465
567.467	1485
567.679	1508
567.891	1642
568.102	1623
568.314	1548
568.526	1430
568.737	1342
568.949	1223
569.161	1151
569.372	1135
569.584	1028
569.795	1000
570.007	970
570.218	975
570.43	973
570.641	951
570.853	959
571.064	941
571.276	943
571.487	907
571.698	872
571.91	862
572.121	842
572.333	850
572.544	808
572.755	830
572.966	815
573.178	774
573.389	759
573.6	774
573.811	782
574.023	751
574.234	752
574.445	744
574.656	746
574.867	733
575.078	752
575.289	745
575.501	759
575.712	722
575.923	725
576.134	685
576.345	719
576.556	724
576.767	710
576.978	718
577.188	690
577.399	710
577.61	700
577.821	682
578.032	682
578.243	693
578.454	702
578.665	685
578.875	670
579.086	679
579.297	666
579.508	646
579.718	664
579.929	666
580.14	661
580.35	661
580.561	648
580.772	633
580.982	656
581.193	637
581.403	641
581.614	641
581.825	643
582.035	654
582.246	643
582.456	620
582.667	624
582.877	618
583.087	624
583.298	631
583.508	632
583.719	636
583.929	640
584.139	620
584.35	598
584.56	621
584.77	629
584.981	626
585.191	596
585.401	607
585.611	619
585.821	617
586.032	600
586.242	612
586.452	606
586.662	622
586.872	586
587.082	601
587.292	617
587.502	599
587.713	589
587.923	602
588.133	584
588.343	584
588.553	592
588.762	602
588.972	586
589.182	638
589.392	626
589.602	608
589.812	614
590.022	608
590.232	604
590.441	612
590.651	600
590.861	614
591.071	580
591.281	615
591.49	621
591.7	648
591.91	644
592.119	649
592.329	668
592.539	663
592.748	697
592.958	717
593.167	714
593.377	708
593.587	745
593.796	742
594.006	721
594.215	717
594.424	715
594.634	691
594.843	702
595.053	672
595.262	668
595.472	628
595.681	629
595.89	617
596.1	588
596.309	566
596.518	564
596.727	594
596.937	577
597.146	565
597.355	580
597.564	548
597.774	545
597.983	529
598.192	526
598.401	533
598.61	516
598.819	511
599.028	531
599.237	498
599.446	520
599.655	493
599.864	502
600.073	485
600.282	510
600.491	493
600.7	496
600.909	502
601.118	501
601.327	476
601.536	505
601.745	487
601.953	486
602.162	513
602.371	494
602.58	502
602.789	490
602.997	479
603.206	462
603.415	471
603.623	477
603.832	474
604.041	475
604.249	483
604.458	470
604.666	457
604.875	458
605.084	452
605.292	471
605.501	459
605.709	461
605.918	445
606.126	475
606.334	461
606.543	447
606.751	472
606.96	460
607.168	453
607.376	417
607.585	461
607.793	446
608.001	436
608.21	438
608.418	459
608.626	441
608.834	470
609.043	457
609.251	447
609.459	441
609.667	433
609.875	427
610.083	445
610.291	443
610.499	433
610.707	414
610.916	444
611.124	446
611.332	421
611.54	416
611.748	430
611.955	407
612.163	420
612.371	430
612.579	436
612.787	416
612.995	426
613.203	432
613.411	423
613.618	428
613.826	424
614.034	443
614.242	418
614.449	427
614.657	413
614.865	412
615.072	410
615.28	430
615.488	424
615.695	409
615.903	412
616.111	425
616.318	420
616.526	432
616.733	416
616.941	403
617.148	424
617.356	428
617.563	423
617.771	441
617.978	422
618.185	405
618.393	418
618.6	422
618.807	396
619.015	428
619.222	403
619.429	423
619.637	398
619.844	413
620.051	399
620.258	403
620.466	401
620.673	380
620.88	387
621.087	383
621.294	397
621.501	392
621.708	391
621.915	369
622.122	377
622.329	388
622.536	380
622.743	386
622.95	386
623.157	349
623.364	369
623.571	366
623.778	378
623.985	363
624.192	366
624.399	364
624.606	373
624.812	365
625.019	376
625.226	362
625.433	358
625.639	364
625.846	362
626.053	372
626.259	354
626.466	324
626.673	352
626.879	351
627.086	352
627.293	355
627.499	330
627.706	357
627.912	343
628.119	339
628.325	337
628.532	325
628.738	330
628.945	329
629.151	342
629.357	314
629.564	334
629.77	332
629.976	325
630.183	321
630.389	331
630.595	317
630.802	334
631.008	305
631.214	307
631.42	345
631.627	326
631.833	318
632.039	314
632.245	321
632.451	305
632.657	303
632.863	314
633.069	297
633.275	302
633.481	317
633.688	303
633.893	328
634.099	321
634.305	315
634.511	295
634.717	319
634.923	321
635.129	314
635.335	301
635.541	314
635.747	317
635.952	293
636.158	305
636.364	306
636.57	304
636.775	312
636.981	286
637.187	300
637.392	297
637.598	289
637.804	308
638.009	298
638.215	313
638.421	302
638.626	313
638.832	302
639.037	295
639.243	312
639.448	297
639.654	285
639.859	295
640.065	289
640.27	290
640.475	292
640.681	302
640.886	279
641.091	284
641.297	285
641.502	282
641.707	283
641.913	297
642.118	278
642.323	294
642.528	290
642.733	268
642.939	278
643.144	288
643.349	292
643.554	284
643.759	289
643.964	283
644.169	293
644.374	294
644.579	269
644.784	296
644.989	284
645.194	268
645.399	287
645.604	286
645.809	284
646.014	270
646.219	273
646.423	282
646.628	273
646.833	282
647.038	299
647.243	301
647.447	296
647.652	292
647.857	301
648.062	290
648.266	301
648.471	316
648.676	305
648.88	298
649.085	324
649.289	305
649.494	293
649.698	294
649.903	289
650.107	284
650.312	292
650.516	288
650.721	293
650.925	297
651.13	274
651.334	282
651.539	288
651.743	286
651.947	286
652.152	284
652.356	283
652.56	283
652.764	269
652.969	262
653.173	286
653.377	297
653.581	274
653.785	270
653.99	268
654.194	267
654.398	266
654.602	285
654.806	274
655.01	278
655.214	306
655.418	290
655.622	314
655.826	345
656.03	365
656.234	373
656.438	386
656.642	405
656.846	392
657.049	330
657.253	320
657.457	296
657.661	256
657.865	234
658.068	218
658.272	203
658.476	182
658.68	181
658.883	161
659.087	162
659.291	158
659.494	143
659.698	142
659.901	129
660.105	126
660.309	127
660.512	124
660.716	116
660.919	112
661.123	120
661.326	107
661.53	114
661.733	106
661.936	121
662.14	106
662.343	104
662.546	101
662.75	96
662.953	92
663.156	96
663.36	91
663.563	110
663.766	85
663.969	103
664.173	96
664.376	96
664.579	88
664.782	102
664.985	83
665.188	97
665.391	81
665.594	84
665.797	90
666	87
666.203	83
666.406	76
666.609	90
666.812	93
667.015	81
667.218	89
667.421	93
667.624	86
667.827	91
668.03	93
668.232	90
668.435	100
668.638	101
668.841	82
669.043	94
669.246	86
669.449	86
669.651	96
669.854	99
670.057	77
670.259	80
670.462	88
670.665	79
670.867	98
671.07	92
671.272	90
671.475	92
671.677	90
671.88	83
672.082	85
672.284	92
672.487	86
672.689	90
672.892	93
