Data from NiCl2@0.125M.TitratingCurve.Agarose3%dH2O.NegLispCup.LampEnergy10.LIBS07252019_HRD10591_18-30-47-575.txt Node
Date: Thu Jul 25 18:30:47 EDT 2019
User: cochatt
Spectrometer: HR+D1059
Trigger mode: 1
Integration Time (sec): 1.000000E-1
Scans to average: 1
Electric dark correction enabled: true
Nonlinearity correction enabled: false
Boxcar width: 0
XAxis mode: Wavelengths
Number of Pixels in Spectrum: 2048
>>>>>Begin Spectral Data<<<<<
223.165	-12
223.4	-12
223.635	-12
223.869	-9
224.104	-21
224.338	-12
224.573	-9
224.808	-15
225.042	-7
225.277	-12
225.511	-11
225.746	3
225.98	7
226.215	3
226.449	22
226.683	16
226.918	24
227.152	33
227.387	40
227.621	47
227.856	32
228.09	48
228.324	53
228.559	48
228.793	66
229.027	59
229.262	52
229.496	66
229.73	89
229.964	72
230.199	81
230.433	75
230.667	88
230.901	97
231.136	88
231.37	81
231.604	83
231.838	80
232.072	80
232.306	93
232.541	85
232.775	90
233.009	98
233.243	87
233.477	95
233.711	92
233.945	91
234.179	78
234.413	92
234.647	88
234.881	82
235.115	92
235.349	95
235.583	86
235.817	109
236.051	78
236.285	77
236.519	75
236.753	68
236.987	78
237.221	69
237.455	78
237.689	84
237.922	76
238.156	81
238.39	84
238.624	72
238.858	78
239.091	83
239.325	82
239.559	95
239.793	89
240.027	82
240.26	77
240.494	95
240.728	84
240.961	91
241.195	82
241.429	77
241.662	68
241.896	58
242.13	80
242.363	85
242.597	71
242.83	84
243.064	79
243.298	77
243.531	76
243.765	73
243.998	89
244.232	90
244.465	84
244.699	81
244.932	84
245.166	74
245.399	85
245.633	91
245.866	58
246.099	83
246.333	82
246.566	81
246.8	93
247.033	90
247.266	92
247.5	79
247.733	83
247.966	88
248.2	101
248.433	95
248.666	84
248.899	88
249.133	90
249.366	86
249.599	88
249.832	71
250.066	87
250.299	87
250.532	73
250.765	82
250.998	83
251.231	78
251.465	91
251.698	90
251.931	84
252.164	88
252.397	77
252.63	80
252.863	75
253.096	73
253.329	76
253.562	89
253.795	84
254.028	82
254.261	96
254.494	71
254.727	86
254.96	84
255.193	85
255.426	77
255.659	83
255.892	87
256.124	81
256.357	88
256.59	93
256.823	78
257.056	85
257.289	84
257.521	83
257.754	92
257.987	77
258.22	82
258.452	80
258.685	83
258.918	78
259.151	87
259.383	85
259.616	90
259.849	80
260.081	94
260.314	86
260.547	94
260.779	78
261.012	85
261.244	90
261.477	88
261.71	70
261.942	79
262.175	92
262.407	95
262.64	85
262.872	96
263.105	83
263.337	79
263.57	84
263.802	77
264.035	82
264.267	95
264.499	71
264.732	88
264.964	77
265.197	88
265.429	90
265.661	93
265.894	85
266.126	86
266.358	80
266.591	91
266.823	81
267.055	98
267.287	73
267.52	85
267.752	80
267.984	78
268.216	78
268.448	88
268.681	81
268.913	76
269.145	106
269.377	65
269.609	85
269.841	75
270.073	81
270.306	79
270.538	63
270.77	88
271.002	89
271.234	91
271.466	61
271.698	79
271.93	60
272.162	80
272.394	97
272.626	95
272.858	76
273.09	88
273.322	70
273.553	84
273.785	79
274.017	77
274.249	71
274.481	87
274.713	83
274.945	96
275.176	81
275.408	90
275.64	83
275.872	88
276.104	89
276.335	92
276.567	96
276.799	91
277.031	96
277.262	88
277.494	85
277.726	81
277.957	83
278.189	95
278.421	81
278.652	81
278.884	83
279.115	97
279.347	77
279.579	81
279.81	88
280.042	72
280.273	81
280.505	84
280.736	87
280.968	68
281.199	93
281.431	71
281.662	88
281.894	80
282.125	102
282.356	95
282.588	82
282.819	95
283.051	88
283.282	70
283.513	88
283.745	97
283.976	79
284.207	83
284.439	88
284.67	102
284.901	105
285.132	90
285.364	77
285.595	80
285.826	83
286.057	92
286.288	87
286.52	81
286.751	81
286.982	90
287.213	85
287.444	105
287.675	96
287.906	100
288.138	85
288.369	91
288.6	79
288.831	79
289.062	87
289.293	86
289.524	80
289.755	94
289.986	90
290.217	91
290.448	89
290.679	94
290.91	84
291.141	79
291.371	75
291.602	87
291.833	92
292.064	83
292.295	87
292.526	90
292.757	89
292.987	87
293.218	89
293.449	95
293.68	83
293.91	85
294.141	102
294.372	100
294.603	82
294.833	111
295.064	112
295.295	91
295.525	82
295.756	92
295.987	87
296.217	79
296.448	79
296.679	71
296.909	90
297.14	94
297.37	98
297.601	69
297.831	79
298.062	92
298.292	88
298.523	97
298.753	94
298.984	99
299.214	72
299.445	79
299.675	95
299.905	81
300.136	85
300.366	92
300.597	107
300.827	92
301.057	83
301.288	96
301.518	94
301.748	87
301.979	85
302.209	85
302.439	87
302.669	93
302.9	90
303.13	85
303.36	94
303.59	98
303.82	88
304.051	89
304.281	97
304.511	88
304.741	98
304.971	78
305.201	89
305.431	89
305.661	84
305.891	93
306.121	93
306.352	87
306.582	81
306.812	93
307.042	96
307.272	93
307.502	96
307.731	85
307.961	96
308.191	90
308.421	90
308.651	81
308.881	103
309.111	80
309.341	84
309.571	96
309.8	89
310.03	86
310.26	87
310.49	80
310.72	94
310.949	85
311.179	92
311.409	89
311.639	85
311.868	95
312.098	77
312.328	89
312.557	97
312.787	100
313.017	105
313.246	86
313.476	91
313.706	91
313.935	95
314.165	92
314.394	91
314.624	77
314.853	96
315.083	93
315.312	101
315.542	87
315.771	97
316.001	108
316.23	87
316.46	89
316.689	111
316.919	91
317.148	93
317.377	91
317.607	97
317.836	97
318.065	106
318.295	88
318.524	79
318.753	92
318.983	77
319.212	75
319.441	97
319.67	88
319.9	96
320.129	84
320.358	90
320.587	89
320.816	89
321.046	87
321.275	88
321.504	92
321.733	80
321.962	83
322.191	83
322.42	81
322.649	93
322.878	90
323.108	100
323.337	81
323.566	82
323.795	95
324.024	80
324.253	75
324.482	87
324.71	85
324.939	80
325.168	87
325.397	95
325.626	91
325.855	75
326.084	86
326.313	98
326.542	78
326.77	91
326.999	96
327.228	96
327.457	85
327.686	84
327.914	92
328.143	96
328.372	90
328.6	89
328.829	76
329.058	83
329.287	87
329.515	109
329.744	87
329.972	78
330.201	87
330.43	89
330.658	95
330.887	90
331.115	90
331.344	99
331.572	88
331.801	92
332.03	97
332.258	81
332.486	89
332.715	71
332.943	96
333.172	104
333.4	92
333.629	83
333.857	91
334.085	93
334.314	89
334.542	95
334.771	98
334.999	84
335.227	88
335.455	101
335.684	92
335.912	79
336.14	92
336.369	86
336.597	92
336.825	88
337.053	92
337.281	100
337.51	90
337.738	98
337.966	99
338.194	100
338.422	90
338.65	109
338.878	83
339.106	101
339.334	77
339.562	89
339.79	89
340.018	70
340.246	95
340.474	87
340.702	82
340.93	87
341.158	82
341.386	88
341.614	89
341.842	84
342.07	69
342.298	85
342.526	92
342.754	89
342.981	81
343.209	84
343.437	109
343.665	99
343.893	88
344.12	91
344.348	91
344.576	88
344.804	83
345.031	63
345.259	91
345.487	81
345.714	93
345.942	99
346.17	103
346.397	91
346.625	96
346.853	79
347.08	81
347.308	96
347.535	99
347.763	91
347.99	88
348.218	88
348.445	89
348.673	99
348.9	87
349.128	80
349.355	89
349.583	85
349.81	85
350.037	86
350.265	86
350.492	77
350.72	77
350.947	91
351.174	92
351.402	78
351.629	89
351.856	88
352.083	80
352.311	105
352.538	93
352.765	94
352.992	94
353.22	93
353.447	90
353.674	82
353.901	92
354.128	73
354.355	90
354.583	92
354.81	90
355.037	100
355.264	95
355.491	83
355.718	94
355.945	96
356.172	106
356.399	81
356.626	86
356.853	101
357.08	95
357.307	83
357.534	83
357.761	72
357.988	87
358.215	81
358.441	86
358.668	84
358.895	80
359.122	87
359.349	91
359.576	94
359.802	72
360.029	91
360.256	82
360.483	70
360.709	86
360.936	80
361.163	87
361.39	86
361.616	81
361.843	88
362.07	88
362.296	106
362.523	94
362.749	87
362.976	77
363.203	97
363.429	74
363.656	74
363.882	90
364.109	82
364.335	83
364.562	89
364.788	88
365.015	89
365.241	91
365.468	90
365.694	82
365.92	81
366.147	86
366.373	75
366.599	85
366.826	81
367.052	81
367.278	81
367.505	90
367.731	89
367.957	85
368.184	87
368.41	90
368.636	93
368.862	94
369.089	82
369.315	86
369.541	91
369.767	91
369.993	100
370.219	87
370.445	95
370.672	85
370.898	86
371.124	89
371.35	77
371.576	89
371.802	95
372.028	85
372.254	88
372.48	85
372.706	86
372.932	89
373.158	93
373.384	87
373.61	103
373.835	87
374.061	93
374.287	88
374.513	99
374.739	104
374.965	84
375.191	67
375.416	94
375.642	80
375.868	99
376.094	90
376.319	93
376.545	79
376.771	81
376.997	98
377.222	77
377.448	93
377.674	101
377.899	84
378.125	87
378.35	87
378.576	100
378.802	83
379.027	95
379.253	80
379.478	87
379.704	91
379.929	87
380.155	98
380.38	87
380.606	74
380.831	89
381.057	84
381.282	93
381.507	80
381.733	95
381.958	80
382.184	87
382.409	80
382.634	89
382.86	91
383.085	82
383.31	95
383.535	76
383.761	98
383.986	101
384.211	94
384.436	91
384.662	90
384.887	85
385.112	88
385.337	80
385.562	79
385.787	94
386.013	96
386.238	87
386.463	97
386.688	86
386.913	90
387.138	91
387.363	87
387.588	84
387.813	80
388.038	95
388.263	95
388.488	91
388.713	80
388.938	80
389.163	87
389.387	80
389.612	90
389.837	97
390.062	98
390.287	96
390.512	94
390.736	82
390.961	88
391.186	87
391.411	88
391.636	93
391.86	87
392.085	99
392.31	85
392.534	78
392.759	98
392.984	82
393.208	81
393.433	94
393.658	80
393.882	93
394.107	96
394.331	101
394.556	88
394.78	91
395.005	89
395.229	84
395.454	75
395.678	84
395.903	98
396.127	101
396.352	105
396.576	88
396.801	95
397.025	89
397.249	85
397.474	91
397.698	86
397.922	92
398.147	86
398.371	97
398.595	88
398.82	86
399.044	90
399.268	100
399.492	81
399.717	85
399.941	82
400.165	93
400.389	90
400.613	105
400.837	92
401.062	91
401.286	99
401.51	88
401.734	108
401.958	89
402.182	83
402.406	84
402.63	96
402.854	86
403.078	91
403.302	88
403.526	78
403.75	91
403.974	93
404.198	97
404.422	89
404.645	89
404.869	105
405.093	93
405.317	92
405.541	89
405.765	88
405.988	96
406.212	95
406.436	84
406.66	104
406.883	109
407.107	99
407.331	95
407.555	96
407.778	97
408.002	88
408.226	98
408.449	94
408.673	84
408.896	107
409.12	83
409.344	73
409.567	89
409.791	107
410.014	93
410.238	103
410.461	95
410.685	84
410.908	87
411.132	86
411.355	94
411.578	94
411.802	87
412.025	103
412.249	96
412.472	96
412.695	107
412.919	98
413.142	87
413.365	85
413.589	110
413.812	108
414.035	102
414.258	96
414.482	93
414.705	105
414.928	102
415.151	99
415.374	107
415.597	92
415.821	85
416.044	95
416.267	104
416.49	97
416.713	104
416.936	100
417.159	105
417.382	105
417.605	93
417.828	92
418.051	96
418.274	102
418.497	98
418.72	98
418.943	103
419.166	118
419.389	100
419.611	107
419.834	92
420.057	98
420.28	108
420.503	99
420.726	109
420.948	91
421.171	99
421.394	101
421.617	107
421.839	105
422.062	110
422.285	100
422.507	91
422.73	103
422.953	100
423.175	105
423.398	93
423.621	98
423.843	97
424.066	99
424.288	94
424.511	111
424.733	99
424.956	117
425.178	96
425.401	98
425.623	93
425.846	96
426.068	95
426.291	112
426.513	106
426.735	99
426.958	95
427.18	102
427.402	101
427.625	108
427.847	79
428.069	112
428.292	112
428.514	100
428.736	105
428.958	112
429.181	115
429.403	94
429.625	103
429.847	111
430.069	114
430.292	115
430.514	115
430.736	107
430.958	112
431.18	98
431.402	116
431.624	95
431.846	87
432.068	98
432.29	97
432.512	88
432.734	90
432.956	96
433.178	109
433.4	127
433.622	109
433.844	106
434.066	103
434.287	106
434.509	87
434.731	87
434.953	114
435.175	95
435.397	101
435.618	99
435.84	89
436.062	101
436.284	102
436.505	104
436.727	111
436.949	111
437.17	105
437.392	103
437.614	100
437.835	107
438.057	92
438.278	97
438.5	109
438.721	108
438.943	126
439.165	103
439.386	114
439.608	104
439.829	103
440.05	119
440.272	120
440.493	116
440.715	108
440.936	121
441.158	119
441.379	122
441.6	121
441.822	130
442.043	102
442.264	107
442.486	115
442.707	112
442.928	121
443.149	123
443.371	119
443.592	106
443.813	112
444.034	110
444.255	115
444.476	113
444.698	107
444.919	122
445.14	267
445.361	188
445.582	109
445.803	120
446.024	98
446.245	131
446.466	119
446.687	106
446.908	133
447.129	126
447.35	123
447.571	108
447.792	102
448.013	108
448.234	121
448.455	112
448.675	129
448.896	106
449.117	94
449.338	123
449.559	107
449.779	120
450	116
450.221	115
450.442	119
450.662	121
450.883	107
451.104	117
451.324	104
451.545	105
451.766	105
451.986	102
452.207	107
452.428	116
452.648	103
452.869	98
453.089	100
453.31	98
453.53	101
453.751	92
453.971	107
454.192	89
454.412	98
454.633	93
454.853	92
455.073	106
455.294	97
455.514	101
455.734	111
455.955	104
456.175	102
456.395	96
456.616	81
456.836	97
457.056	91
457.276	96
457.497	99
457.717	109
457.937	103
458.157	88
458.377	94
458.598	94
458.818	88
459.038	79
459.258	91
459.478	83
459.698	96
459.918	98
460.138	87
460.358	96
460.578	92
460.798	93
461.018	100
461.238	107
461.458	96
461.678	95
461.898	101
462.118	111
462.338	101
462.558	81
462.777	91
462.997	103
463.217	101
463.437	100
463.657	96
463.876	107
464.096	95
464.316	86
464.536	90
464.755	105
464.975	91
465.195	108
465.414	100
465.634	119
465.854	92
466.073	96
466.293	99
466.512	115
466.732	100
466.951	113
467.171	112
467.391	117
467.61	107
467.829	95
468.049	108
468.268	107
468.488	106
468.707	107
468.927	110
469.146	98
469.365	126
469.585	115
469.804	98
470.023	113
470.243	115
470.462	110
470.681	121
470.901	105
471.12	106
471.339	113
471.558	115
471.777	118
471.997	116
472.216	104
472.435	103
472.654	88
472.873	90
473.092	104
473.311	81
473.53	86
473.749	94
473.968	105
474.187	87
474.406	109
474.625	106
474.844	97
475.063	118
475.282	109
475.501	106
475.72	115
475.939	106
476.158	101
476.377	105
476.596	92
476.814	97
477.033	102
477.252	99
477.471	94
477.69	109
477.908	118
478.127	92
478.346	104
478.564	95
478.783	104
479.002	100
479.22	116
479.439	112
479.658	100
479.876	84
480.095	88
480.313	91
480.532	91
480.751	103
480.969	89
481.188	93
481.406	89
481.624	90
481.843	93
482.061	85
482.28	92
482.498	95
482.717	92
482.935	98
483.153	103
483.372	108
483.59	100
483.808	101
484.027	111
484.245	96
484.463	105
484.681	109
484.9	115
485.118	108
485.336	91
485.554	99
485.772	84
485.99	82
486.209	88
486.427	107
486.645	97
486.863	106
487.081	107
487.299	95
487.517	109
487.735	107
487.953	119
488.171	115
488.389	108
488.607	121
488.825	94
489.043	104
489.261	103
489.479	104
489.696	108
489.914	114
490.132	109
490.35	123
490.568	116
490.786	121
491.003	132
491.221	115
491.439	115
491.657	106
491.874	123
492.092	121
492.31	146
492.527	134
492.745	120
492.963	112
493.18	125
493.398	117
493.615	124
493.833	116
494.05	115
494.268	128
494.485	125
494.703	110
494.92	117
495.138	115
495.355	116
495.573	123
495.79	106
496.008	113
496.225	118
496.442	106
496.66	121
496.877	113
497.094	105
497.312	106
497.529	104
497.746	108
497.963	91
498.181	96
498.398	100
498.615	90
498.832	89
499.049	91
499.267	97
499.484	87
499.701	93
499.918	101
500.135	116
500.352	91
500.569	100
500.786	103
501.003	93
501.22	99
501.437	93
501.654	86
501.871	111
502.088	95
502.305	98
502.522	102
502.739	99
502.956	85
503.172	96
503.389	84
503.606	102
503.823	105
504.04	104
504.256	89
504.473	96
504.69	93
504.907	90
505.123	96
505.34	105
505.557	87
505.773	110
505.99	79
506.207	88
506.423	75
506.64	96
506.856	89
507.073	86
507.289	100
507.506	81
507.722	92
507.939	117
508.155	97
508.372	88
508.588	87
508.805	95
509.021	87
509.238	96
509.454	87
509.67	79
509.887	92
510.103	88
510.319	88
510.536	89
510.752	70
510.968	91
511.184	85
511.401	87
511.617	90
511.833	92
512.049	88
512.265	97
512.481	89
512.698	63
512.914	84
513.13	81
513.346	85
513.562	79
513.778	93
513.994	89
514.21	99
514.426	98
514.642	94
514.858	84
515.074	93
515.29	96
515.506	72
515.721	87
515.937	84
516.153	84
516.369	87
516.585	85
516.801	84
517.016	83
517.232	89
517.448	85
517.664	81
517.879	91
518.095	87
518.311	104
518.527	89
518.742	86
518.958	82
519.173	90
519.389	85
519.605	84
519.82	91
520.036	94
520.251	81
520.467	91
520.682	75
520.898	87
521.113	77
521.329	99
521.544	91
521.76	85
521.975	82
522.19	96
522.406	95
522.621	85
522.836	87
523.052	100
523.267	105
523.482	89
523.698	89
523.913	72
524.128	98
524.343	91
524.559	96
524.774	99
524.989	93
525.204	93
525.419	91
525.634	79
525.849	97
526.064	99
526.28	89
526.495	88
526.71	85
526.925	92
527.14	84
527.355	82
527.57	69
527.785	93
527.999	97
528.214	94
528.429	87
528.644	94
528.859	91
529.074	116
529.289	111
529.503	101
529.718	95
529.933	99
530.148	80
530.363	93
530.577	87
530.792	84
531.007	89
531.221	91
531.436	96
531.651	87
531.865	72
532.08	85
532.295	94
532.509	96
532.724	99
532.938	83
533.153	92
533.367	103
533.582	85
533.796	92
534.011	104
534.225	90
534.44	100
534.654	86
534.868	80
535.083	88
535.297	92
535.511	87
535.726	79
535.94	93
536.154	101
536.369	99
536.583	93
536.797	106
537.011	84
537.225	85
537.44	93
537.654	75
537.868	81
538.082	95
538.296	87
538.51	74
538.724	83
538.938	102
539.153	93
539.367	106
539.581	94
539.795	87
540.009	75
540.222	98
540.436	89
540.65	91
540.864	93
541.078	85
541.292	96
541.506	98
541.72	95
541.934	91
542.147	108
542.361	110
542.575	103
542.789	102
543.002	99
543.216	88
543.43	95
543.644	115
543.857	89
544.071	104
544.285	101
544.498	115
544.712	116
544.925	106
545.139	98
545.352	98
545.566	113
545.779	110
545.993	92
546.206	105
546.42	107
546.633	104
546.847	100
547.06	98
547.274	103
547.487	110
547.7	107
547.914	105
548.127	99
548.34	111
548.554	96
548.767	108
548.98	77
549.193	95
549.407	105
549.62	106
549.833	95
550.046	110
550.259	81
550.473	103
550.686	100
550.899	111
551.112	89
551.325	100
551.538	88
551.751	100
551.964	90
552.177	108
552.39	110
552.603	93
552.816	92
553.029	102
553.242	94
553.455	102
553.667	98
553.88	110
554.093	103
554.306	101
554.519	85
554.732	97
554.944	101
555.157	98
555.37	96
555.583	85
555.795	83
556.008	100
556.221	98
556.433	85
556.646	106
556.859	95
557.071	92
557.284	101
557.496	92
557.709	102
557.921	97
558.134	102
558.346	96
558.559	92
558.771	99
558.984	90
559.196	92
559.409	93
559.621	104
559.833	95
560.046	82
560.258	91
560.47	113
560.683	94
560.895	90
561.107	96
561.32	97
561.532	95
561.744	107
561.956	87
562.168	85
562.381	97
562.593	94
562.805	97
563.017	83
563.229	96
563.441	95
563.653	93
563.865	83
564.077	87
564.289	83
564.501	91
564.713	84
564.925	94
565.137	95
565.349	92
565.561	86
565.773	92
565.985	104
566.197	97
566.408	90
566.62	96
566.832	85
567.044	90
567.255	88
567.467	99
567.679	102
567.891	76
568.102	78
568.314	83
568.526	101
568.737	78
568.949	82
569.161	93
569.372	99
569.584	74
569.795	94
570.007	90
570.218	88
570.43	89
570.641	91
570.853	79
571.064	94
571.276	91
571.487	94
571.698	99
571.91	98
572.121	99
572.333	80
572.544	84
572.755	89
572.966	96
573.178	97
573.389	97
573.6	91
573.811	86
574.023	79
574.234	96
574.445	101
574.656	88
574.867	100
575.078	88
575.289	87
575.501	90
575.712	88
575.923	99
576.134	93
576.345	88
576.556	96
576.767	89
576.978	93
577.188	76
577.399	82
577.61	88
577.821	93
578.032	74
578.243	88
578.454	88
578.665	92
578.875	88
579.086	81
579.297	79
579.508	81
579.718	89
579.929	103
580.14	96
580.35	95
580.561	74
580.772	79
580.982	90
581.193	95
581.403	93
581.614	97
581.825	98
582.035	91
582.246	95
582.456	76
582.667	80
582.877	92
583.087	86
583.298	87
583.508	93
583.719	85
583.929	107
584.139	89
584.35	94
584.56	92
584.77	88
584.981	87
585.191	79
585.401	82
585.611	99
585.821	84
586.032	83
586.242	76
586.452	80
586.662	86
586.872	86
587.082	87
587.292	99
587.502	76
587.713	89
587.923	87
588.133	75
588.343	79
588.553	91
588.762	85
588.972	91
589.182	90
589.392	81
589.602	97
589.812	72
590.022	93
590.232	86
590.441	70
590.651	88
590.861	88
591.071	88
591.281	91
591.49	91
591.7	87
591.91	86
592.119	91
592.329	89
592.539	93
592.748	88
592.958	90
593.167	90
593.377	87
593.587	88
593.796	100
594.006	91
594.215	95
594.424	90
594.634	76
594.843	106
595.053	92
595.262	105
595.472	96
595.681	94
595.89	90
596.1	91
596.309	99
596.518	93
596.727	95
596.937	100
597.146	88
597.355	96
597.564	91
597.774	81
597.983	84
598.192	81
598.401	100
598.61	102
598.819	94
599.028	96
599.237	93
599.446	102
599.655	88
599.864	81
600.073	70
600.282	92
600.491	76
600.7	94
600.909	105
601.118	88
601.327	93
601.536	89
601.745	77
601.953	78
602.162	91
602.371	95
602.58	94
602.789	88
602.997	103
603.206	97
603.415	97
603.623	100
603.832	105
604.041	108
604.249	89
604.458	86
604.666	100
604.875	92
605.084	95
605.292	91
605.501	94
605.709	88
605.918	89
606.126	100
606.334	81
606.543	81
606.751	78
606.96	93
607.168	96
607.376	92
607.585	106
607.793	93
608.001	91
608.21	89
608.418	79
608.626	92
608.834	72
609.043	100
609.251	84
609.459	88
609.667	99
609.875	99
610.083	90
610.291	102
610.499	97
610.707	77
610.916	83
611.124	96
611.332	93
611.54	101
611.748	92
611.955	87
612.163	94
612.371	94
612.579	85
612.787	75
612.995	90
613.203	87
613.411	87
613.618	90
613.826	100
614.034	98
614.242	103
614.449	77
614.657	97
614.865	80
615.072	88
615.28	87
615.488	86
615.695	104
615.903	88
616.111	91
616.318	102
616.526	99
616.733	99
616.941	107
617.148	107
617.356	84
617.563	94
617.771	80
617.978	86
618.185	82
618.393	92
618.6	101
618.807	93
619.015	80
619.222	78
619.429	111
619.637	103
619.844	93
620.051	83
620.258	91
620.466	77
620.673	81
620.88	80
621.087	85
621.294	99
621.501	99
621.708	95
621.915	90
622.122	86
622.329	92
622.536	95
622.743	103
622.95	86
623.157	91
623.364	99
623.571	90
623.778	91
623.985	97
624.192	72
624.399	82
624.606	85
624.812	92
625.019	89
625.226	84
625.433	85
625.639	95
625.846	76
626.053	91
626.259	88
626.466	95
626.673	81
626.879	98
627.086	92
627.293	89
627.499	79
627.706	90
627.912	77
628.119	84
628.325	99
628.532	87
628.738	91
628.945	90
629.151	91
629.357	92
629.564	90
629.77	80
629.976	88
630.183	97
630.389	85
630.595	95
630.802	84
631.008	77
631.214	93
631.42	89
631.627	95
631.833	95
632.039	90
632.245	92
632.451	99
632.657	81
632.863	87
633.069	88
633.275	90
633.481	95
633.688	82
633.893	94
634.099	70
634.305	93
634.511	83
634.717	93
634.923	107
635.129	94
635.335	91
635.541	101
635.747	85
635.952	95
636.158	98
636.364	94
636.57	87
636.775	94
636.981	97
637.187	96
637.392	89
637.598	99
637.804	84
638.009	87
638.215	80
638.421	88
638.626	86
638.832	79
639.037	93
639.243	98
639.448	98
639.654	90
639.859	93
640.065	71
640.27	96
640.475	82
640.681	80
640.886	102
641.091	102
641.297	95
641.502	90
641.707	89
641.913	91
642.118	93
642.323	81
642.528	89
642.733	100
642.939	90
643.144	85
643.349	87
643.554	85
643.759	105
643.964	91
644.169	92
644.374	89
644.579	98
644.784	82
644.989	91
645.194	98
645.399	90
645.604	86
645.809	87
646.014	81
646.219	76
646.423	102
646.628	87
646.833	72
647.038	95
647.243	100
647.447	87
647.652	101
647.857	81
648.062	94
648.266	91
648.471	95
648.676	81
648.88	86
649.085	94
649.289	76
649.494	92
649.698	87
649.903	77
650.107	87
650.312	101
650.516	102
650.721	98
650.925	100
651.13	102
651.334	90
651.539	92
651.743	87
651.947	94
652.152	97
652.356	94
652.56	83
652.764	93
652.969	93
653.173	82
653.377	110
653.581	80
653.785	91
653.99	78
654.194	99
654.398	91
654.602	91
654.806	79
655.01	89
655.214	86
655.418	85
655.622	99
655.826	84
656.03	77
656.234	85
656.438	83
656.642	88
656.846	98
657.049	100
657.253	78
657.457	69
657.661	84
657.865	86
658.068	95
658.272	84
658.476	82
658.68	89
658.883	96
659.087	89
659.291	87
659.494	82
659.698	88
659.901	85
660.105	89
660.309	82
660.512	92
660.716	110
660.919	92
661.123	85
661.326	89
661.53	78
661.733	75
661.936	81
662.14	80
662.343	80
662.546	83
662.75	85
662.953	91
663.156	94
663.36	86
663.563	86
663.766	77
663.969	95
664.173	94
664.376	91
664.579	79
664.782	88
664.985	90
665.188	79
665.391	86
665.594	90
665.797	78
666	78
666.203	96
666.406	96
666.609	83
666.812	93
667.015	85
667.218	75
667.421	90
667.624	90
667.827	92
668.03	87
668.232	84
668.435	77
668.638	83
668.841	101
669.043	105
669.246	102
669.449	84
669.651	81
669.854	82
670.057	83
670.259	83
670.462	88
670.665	86
670.867	87
671.07	91
671.272	86
671.475	96
671.677	80
671.88	83
672.082	85
672.284	108
672.487	86
672.689	79
672.892	78
