Data from NiCl2@0.125M.TitratingCurve.Agarose3%dH2O.NegLispCup.LampEnergy10.LIBS07252019_HRD10591_18-29-48-575.txt Node
Date: Thu Jul 25 18:29:48 EDT 2019
User: cochatt
Spectrometer: HR+D1059
Trigger mode: 1
Integration Time (sec): 1.000000E-1
Scans to average: 1
Electric dark correction enabled: true
Nonlinearity correction enabled: false
Boxcar width: 0
XAxis mode: Wavelengths
Number of Pixels in Spectrum: 2048
>>>>>Begin Spectral Data<<<<<
223.165	-21
223.4	-21
223.635	-21
223.869	-24
224.104	-26
224.338	-13
224.573	-10
224.808	-6
225.042	-2
225.277	-3
225.511	2
225.746	12
225.98	-3
226.215	-1
226.449	18
226.683	4
226.918	36
227.152	37
227.387	45
227.621	34
227.856	41
228.09	45
228.324	62
228.559	61
228.793	73
229.027	114
229.262	133
229.496	139
229.73	135
229.964	138
230.199	151
230.433	153
230.667	161
230.901	157
231.136	155
231.37	146
231.604	140
231.838	162
232.072	155
232.306	170
232.541	183
232.775	168
233.009	167
233.243	170
233.477	168
233.711	174
233.945	168
234.179	176
234.413	174
234.647	173
234.881	184
235.115	174
235.349	166
235.583	171
235.817	159
236.051	184
236.285	183
236.519	180
236.753	178
236.987	193
237.221	184
237.455	196
237.689	191
237.922	174
238.156	197
238.39	193
238.624	201
238.858	194
239.091	198
239.325	203
239.559	201
239.793	205
240.027	196
240.26	211
240.494	210
240.728	218
240.961	227
241.195	207
241.429	201
241.662	224
241.896	224
242.13	226
242.363	234
242.597	228
242.83	229
243.064	241
243.298	240
243.531	237
243.765	258
243.998	248
244.232	250
244.465	261
244.699	257
244.932	265
245.166	259
245.399	254
245.633	259
245.866	237
246.099	255
246.333	262
246.566	250
246.8	280
247.033	280
247.266	265
247.5	279
247.733	294
247.966	305
248.2	289
248.433	282
248.666	284
248.899	286
249.133	292
249.366	306
249.599	296
249.832	293
250.066	292
250.299	290
250.532	300
250.765	312
250.998	327
251.231	302
251.465	320
251.698	316
251.931	328
252.164	322
252.397	331
252.63	316
252.863	318
253.096	348
253.329	326
253.562	328
253.795	320
254.028	322
254.261	310
254.494	325
254.727	356
254.96	342
255.193	341
255.426	349
255.659	325
255.892	332
256.124	359
256.357	345
256.59	343
256.823	351
257.056	357
257.289	364
257.521	364
257.754	372
257.987	365
258.22	361
258.452	378
258.685	368
258.918	386
259.151	403
259.383	364
259.616	378
259.849	387
260.081	389
260.314	390
260.547	386
260.779	381
261.012	394
261.244	381
261.477	392
261.71	390
261.942	384
262.175	399
262.407	428
262.64	390
262.872	391
263.105	405
263.337	416
263.57	414
263.802	396
264.035	411
264.267	412
264.499	425
264.732	425
264.964	410
265.197	418
265.429	419
265.661	447
265.894	426
266.126	424
266.358	436
266.591	441
266.823	436
267.055	452
267.287	429
267.52	440
267.752	448
267.984	439
268.216	441
268.448	449
268.681	448
268.913	472
269.145	458
269.377	455
269.609	486
269.841	453
270.073	458
270.306	455
270.538	457
270.77	458
271.002	472
271.234	475
271.466	469
271.698	474
271.93	465
272.162	476
272.394	474
272.626	490
272.858	480
273.09	461
273.322	518
273.553	475
273.785	489
274.017	507
274.249	512
274.481	491
274.713	492
274.945	514
275.176	517
275.408	492
275.64	496
275.872	504
276.104	491
276.335	514
276.567	514
276.799	534
277.031	525
277.262	516
277.494	523
277.726	524
277.957	524
278.189	547
278.421	522
278.652	545
278.884	535
279.115	548
279.347	532
279.579	550
279.81	552
280.042	542
280.273	565
280.505	566
280.736	544
280.968	539
281.199	562
281.431	572
281.662	546
281.894	562
282.125	574
282.356	575
282.588	598
282.819	578
283.051	574
283.282	568
283.513	582
283.745	589
283.976	582
284.207	617
284.439	582
284.67	589
284.901	589
285.132	597
285.364	592
285.595	624
285.826	598
286.057	604
286.288	613
286.52	637
286.751	613
286.982	632
287.213	610
287.444	624
287.675	616
287.906	633
288.138	633
288.369	633
288.6	634
288.831	642
289.062	635
289.293	611
289.524	615
289.755	635
289.986	641
290.217	648
290.448	617
290.679	641
290.91	634
291.141	634
291.371	647
291.602	670
291.833	642
292.064	646
292.295	636
292.526	641
292.757	644
292.987	642
293.218	648
293.449	636
293.68	632
293.91	668
294.141	660
294.372	645
294.603	680
294.833	650
295.064	652
295.295	675
295.525	666
295.756	666
295.987	673
296.217	668
296.448	672
296.679	676
296.909	690
297.14	695
297.37	714
297.601	692
297.831	683
298.062	691
298.292	698
298.523	724
298.753	755
298.984	717
299.214	700
299.445	680
299.675	717
299.905	700
300.136	713
300.366	706
300.597	710
300.827	746
301.057	754
301.288	748
301.518	756
301.748	764
301.979	739
302.209	756
302.439	728
302.669	737
302.9	716
303.13	726
303.36	725
303.59	722
303.82	721
304.051	749
304.281	733
304.511	725
304.741	728
304.971	734
305.201	735
305.431	711
305.661	749
305.891	736
306.121	744
306.352	717
306.582	718
306.812	697
307.042	707
307.272	707
307.502	733
307.731	735
307.961	711
308.191	714
308.421	734
308.651	704
308.881	726
309.111	706
309.341	719
309.571	712
309.8	725
310.03	727
310.26	685
310.49	720
310.72	734
310.949	710
311.179	731
311.409	739
311.639	712
311.868	739
312.098	736
312.328	748
312.557	757
312.787	738
313.017	754
313.246	750
313.476	764
313.706	764
313.935	754
314.165	792
314.394	752
314.624	780
314.853	752
315.083	776
315.312	780
315.542	759
315.771	744
316.001	772
316.23	765
316.46	748
316.689	747
316.919	729
317.148	758
317.377	782
317.607	735
317.836	747
318.065	757
318.295	761
318.524	765
318.753	767
318.983	750
319.212	769
319.441	735
319.67	757
319.9	737
320.129	740
320.358	781
320.587	749
320.816	747
321.046	777
321.275	749
321.504	756
321.733	789
321.962	772
322.191	749
322.42	757
322.649	750
322.878	776
323.108	758
323.337	779
323.566	782
323.795	793
324.024	780
324.253	770
324.482	800
324.71	790
324.939	788
325.168	783
325.397	797
325.626	809
325.855	803
326.084	820
326.313	821
326.542	822
326.77	842
326.999	820
327.228	818
327.457	848
327.686	839
327.914	825
328.143	852
328.372	823
328.6	835
328.829	801
329.058	798
329.287	832
329.515	831
329.744	846
329.972	814
330.201	828
330.43	825
330.658	842
330.887	844
331.115	865
331.344	872
331.572	881
331.801	890
332.03	915
332.258	931
332.486	954
332.715	988
332.943	1033
333.172	1069
333.4	1119
333.629	1113
333.857	1138
334.085	1141
334.314	1113
334.542	1066
334.771	1056
334.999	1072
335.227	1038
335.455	1006
335.684	1045
335.912	1019
336.14	1010
336.369	987
336.597	1024
336.825	1002
337.053	1009
337.281	956
337.51	946
337.738	957
337.966	927
338.194	899
338.422	916
338.65	917
338.878	912
339.106	885
339.334	914
339.562	880
339.79	876
340.018	867
340.246	855
340.474	857
340.702	851
340.93	856
341.158	870
341.386	876
341.614	885
341.842	874
342.07	834
342.298	851
342.526	860
342.754	861
342.981	897
343.209	896
343.437	921
343.665	960
343.893	1073
344.12	1100
344.348	1007
344.576	971
344.804	939
345.031	894
345.259	894
345.487	868
345.714	839
345.942	823
346.17	844
346.397	830
346.625	823
346.853	820
347.08	828
347.308	850
347.535	867
347.763	837
347.99	881
348.218	854
348.445	836
348.673	826
348.9	835
349.128	818
349.355	824
349.583	851
349.81	825
350.037	825
350.265	793
350.492	826
350.72	827
350.947	793
351.174	813
351.402	808
351.629	826
351.856	813
352.083	788
352.311	816
352.538	792
352.765	818
352.992	797
353.22	756
353.447	794
353.674	811
353.901	796
354.128	787
354.355	788
354.583	788
354.81	804
355.037	803
355.264	812
355.491	792
355.718	803
355.945	827
356.172	822
356.399	793
356.626	816
356.853	824
357.08	787
357.307	803
357.534	823
357.761	804
357.988	798
358.215	800
358.441	803
358.668	807
358.895	801
359.122	796
359.349	803
359.576	822
359.802	810
360.029	805
360.256	806
360.483	780
360.709	771
360.936	792
361.163	822
361.39	816
361.616	812
361.843	814
362.07	799
362.296	816
362.523	799
362.749	825
362.976	807
363.203	797
363.429	791
363.656	787
363.882	800
364.109	773
364.335	785
364.562	820
364.788	788
365.015	786
365.241	774
365.468	773
365.694	798
365.92	782
366.147	800
366.373	796
366.599	819
366.826	820
367.052	789
367.278	825
367.505	810
367.731	813
367.957	783
368.184	778
368.41	811
368.636	813
368.862	824
369.089	814
369.315	830
369.541	818
369.767	827
369.993	856
370.219	822
370.445	859
370.672	850
370.898	852
371.124	892
371.35	880
371.576	886
371.802	869
372.028	862
372.254	869
372.48	861
372.706	900
372.932	898
373.158	914
373.384	878
373.61	861
373.835	872
374.061	875
374.287	888
374.513	906
374.739	926
374.965	982
375.191	993
375.416	969
375.642	946
375.868	937
376.094	914
376.319	899
376.545	901
376.771	880
376.997	885
377.222	888
377.448	888
377.674	870
377.899	867
378.125	896
378.35	848
378.576	874
378.802	857
379.027	841
379.253	869
379.478	845
379.704	860
379.929	853
380.155	843
380.38	873
380.606	861
380.831	866
381.057	883
381.282	864
381.507	855
381.733	873
381.958	868
382.184	902
382.409	902
382.634	903
382.86	898
383.085	929
383.31	932
383.535	954
383.761	957
383.986	994
384.211	1016
384.436	1030
384.662	1056
384.887	1072
385.112	1084
385.337	1058
385.562	1062
385.787	1072
386.013	1061
386.238	1084
386.463	1069
386.688	1058
386.913	1032
387.138	1052
387.363	1034
387.588	1036
387.813	1036
388.038	1051
388.263	1044
388.488	1067
388.713	1062
388.938	1049
389.163	1036
389.387	1004
389.612	1013
389.837	1047
390.062	1028
390.287	1031
390.512	1012
390.736	1065
390.961	1061
391.186	1068
391.411	1114
391.636	1142
391.86	1114
392.085	1214
392.31	1214
392.534	1165
392.759	1133
392.984	1093
393.208	1092
393.433	1109
393.658	1144
393.882	1134
394.107	1145
394.331	1148
394.556	1145
394.78	1138
395.005	1129
395.229	1158
395.454	1174
395.678	1190
395.903	1208
396.127	1162
396.352	1116
396.576	1085
396.801	1081
397.025	1102
397.249	1147
397.474	1164
397.698	1176
397.922	1177
398.147	1150
398.371	1198
398.595	1230
398.82	1291
399.044	1405
399.268	1501
399.492	1801
399.717	2084
399.941	2056
400.165	1812
400.389	1602
400.613	1476
400.837	1373
401.062	1356
401.286	1320
401.51	1357
401.734	1288
401.958	1328
402.182	1371
402.406	1387
402.63	1409
402.854	1401
403.078	1459
403.302	1456
403.526	1511
403.75	1568
403.974	1558
404.198	1584
404.422	1574
404.645	1536
404.869	1506
405.093	1502
405.317	1465
405.541	1480
405.765	1467
405.988	1447
406.212	1453
406.436	1452
406.66	1480
406.883	1505
407.107	1606
407.331	1664
407.555	1758
407.778	1750
408.002	1685
408.226	1621
408.449	1596
408.673	1570
408.896	1491
409.12	1492
409.344	1528
409.567	1468
409.791	1515
410.014	1502
410.238	1467
410.461	1468
410.685	1449
410.908	1460
411.132	1430
411.355	1386
411.578	1384
411.802	1391
412.025	1404
412.249	1404
412.472	1401
412.695	1342
412.919	1327
413.142	1336
413.365	1302
413.589	1339
413.812	1330
414.035	1259
414.258	1295
414.482	1345
414.705	1363
414.928	1356
415.151	1359
415.374	1317
415.597	1319
415.821	1325
416.044	1300
416.267	1282
416.49	1266
416.713	1280
416.936	1299
417.159	1319
417.382	1325
417.605	1314
417.828	1297
418.051	1270
418.274	1294
418.497	1296
418.72	1354
418.943	1350
419.166	1453
419.389	1556
419.611	1474
419.834	1418
420.057	1416
420.28	1349
420.503	1277
420.726	1273
420.948	1290
421.171	1310
421.394	1301
421.617	1293
421.839	1336
422.062	1296
422.285	1315
422.507	1342
422.73	1361
422.953	1328
423.175	1356
423.398	1415
423.621	1373
423.843	1417
424.066	1423
424.288	1421
424.511	1385
424.733	1416
424.956	1365
425.178	1310
425.401	1328
425.623	1330
425.846	1289
426.068	1304
426.291	1260
426.513	1246
426.735	1207
426.958	1240
427.18	1189
427.402	1180
427.625	1213
427.847	1149
428.069	1165
428.292	1187
428.514	1158
428.736	1140
428.958	1154
429.181	1148
429.403	1136
429.625	1114
429.847	1117
430.069	1138
430.292	1105
430.514	1116
430.736	1127
430.958	1142
431.18	1136
431.402	1141
431.624	1121
431.846	1134
432.068	1175
432.29	1236
432.512	1167
432.734	1152
432.956	1155
433.178	1160
433.4	1143
433.622	1193
433.844	1180
434.066	1186
434.287	1195
434.509	1227
434.731	1279
434.953	1323
435.175	1350
435.397	1315
435.618	1226
435.84	1191
436.062	1206
436.284	1157
436.505	1172
436.727	1180
436.949	1172
437.17	1165
437.392	1149
437.614	1120
437.835	1112
438.057	1129
438.278	1102
438.5	1089
438.721	1113
438.943	1153
439.165	1101
439.386	1101
439.608	1128
439.829	1146
440.05	1146
440.272	1147
440.493	1187
440.715	1176
440.936	1189
441.158	1240
441.379	1256
441.6	1289
441.822	1328
442.043	1349
442.264	1309
442.486	1280
442.707	1317
442.928	1285
443.149	1303
443.371	1294
443.592	1299
443.813	1273
444.034	1308
444.255	1344
444.476	1429
444.698	1540
444.919	1632
445.14	1693
445.361	1453
445.582	1359
445.803	1288
446.024	1239
446.245	1195
446.466	1191
446.687	1216
446.908	1165
447.129	1128
447.35	1105
447.571	1114
447.792	1090
448.013	1103
448.234	1096
448.455	1052
448.675	1032
448.896	1052
449.117	1063
449.338	1075
449.559	1031
449.779	1058
450	1035
450.221	1043
450.442	1060
450.662	1053
450.883	1087
451.104	1108
451.324	1100
451.545	1073
451.766	1110
451.986	1081
452.207	1066
452.428	1042
452.648	1074
452.869	1066
453.089	1014
453.31	1054
453.53	1026
453.751	1058
453.971	1040
454.192	1034
454.412	1028
454.633	1012
454.853	1027
455.073	960
455.294	1008
455.514	993
455.734	1004
455.955	955
456.175	979
456.395	972
456.616	979
456.836	977
457.056	997
457.276	956
457.497	992
457.717	973
457.937	1015
458.157	1010
458.377	1030
458.598	1041
458.818	1049
459.038	1092
459.258	1133
459.478	1174
459.698	1168
459.918	1200
460.138	1260
460.358	1360
460.578	1351
460.798	1412
461.018	1436
461.238	1348
461.458	1356
461.678	1364
461.898	1360
462.118	1369
462.338	1461
462.558	1488
462.777	1564
462.997	1709
463.217	1876
463.437	1880
463.657	1724
463.876	1575
464.096	1576
464.316	1592
464.536	1632
464.755	1553
464.975	1512
465.195	1406
465.414	1352
465.634	1254
465.854	1196
466.073	1193
466.293	1174
466.512	1150
466.732	1125
466.951	1140
467.171	1108
467.391	1094
467.61	1133
467.829	1100
468.049	1075
468.268	1069
468.488	1055
468.707	1060
468.927	1050
469.146	1068
469.365	1097
469.585	1080
469.804	1120
470.023	1138
470.243	1148
470.462	1170
470.681	1160
470.901	1161
471.12	1105
471.339	1123
471.558	1062
471.777	1069
471.997	1085
472.216	1071
472.435	1043
472.654	1031
472.873	1028
473.092	1032
473.311	1032
473.53	1033
473.749	1021
473.968	1018
474.187	1009
474.406	1029
474.625	1015
474.844	992
475.063	1066
475.282	1046
475.501	1090
475.72	1028
475.939	1061
476.158	1042
476.377	1092
476.596	1076
476.814	1080
477.033	1132
477.252	1082
477.471	1145
477.69	1178
477.908	1183
478.127	1242
478.346	1211
478.564	1257
478.783	1260
479.002	1306
479.22	1306
479.439	1299
479.658	1306
479.876	1265
480.095	1286
480.313	1355
480.532	1416
480.751	1414
480.969	1396
481.188	1272
481.406	1265
481.624	1212
481.843	1197
482.061	1208
482.28	1196
482.498	1173
482.717	1204
482.935	1180
483.153	1188
483.372	1196
483.59	1188
483.808	1190
484.027	1160
484.245	1205
484.463	1207
484.681	1234
484.9	1221
485.118	1222
485.336	1227
485.554	1251
485.772	1290
485.99	1241
486.209	1279
486.427	1285
486.645	1240
486.863	1261
487.081	1252
487.299	1245
487.517	1216
487.735	1235
487.953	1229
488.171	1286
488.389	1234
488.607	1217
488.825	1198
489.043	1182
489.261	1201
489.479	1219
489.696	1242
489.914	1243
490.132	1251
490.35	1233
490.568	1238
490.786	1261
491.003	1246
491.221	1272
491.439	1253
491.657	1233
491.874	1235
492.092	1233
492.31	1274
492.527	1308
492.745	1293
492.963	1272
493.18	1260
493.398	1271
493.615	1318
493.833	1278
494.05	1309
494.268	1297
494.485	1325
494.703	1322
494.92	1333
495.138	1300
495.355	1301
495.573	1286
495.79	1312
496.008	1312
496.225	1360
496.442	1354
496.66	1344
496.877	1351
497.094	1370
497.312	1402
497.529	1426
497.746	1454
497.963	1488
498.181	1534
498.398	1603
498.615	1783
498.832	1801
499.049	2024
499.267	2198
499.484	2426
499.701	2648
499.918	2940
500.135	3397
500.352	3980
500.569	4185
500.786	4148
501.003	3808
501.22	3353
501.437	2965
501.654	2589
501.871	2311
502.088	2110
502.305	1957
502.522	1866
502.739	1816
502.956	1752
503.172	1631
503.389	1570
503.606	1505
503.823	1468
504.04	1491
504.256	1511
504.473	1533
504.69	1576
504.907	1581
505.123	1421
505.34	1353
505.557	1309
505.773	1283
505.99	1266
506.207	1224
506.423	1206
506.64	1205
506.856	1181
507.073	1174
507.289	1171
507.506	1128
507.722	1162
507.939	1111
508.155	1120
508.372	1112
508.588	1121
508.805	1090
509.021	1106
509.238	1097
509.454	1083
509.67	1094
509.887	1057
510.103	1043
510.319	1048
510.536	1060
510.752	1049
510.968	1056
511.184	1076
511.401	1052
511.617	1035
511.833	1018
512.049	1029
512.265	1030
512.481	1053
512.698	1048
512.914	1046
513.13	1032
513.346	1015
513.562	1030
513.778	1046
513.994	1068
514.21	1051
514.426	1043
514.642	1054
514.858	1070
515.074	1088
515.29	1090
515.506	1092
515.721	1094
515.937	1149
516.153	1163
516.369	1154
516.585	1132
516.801	1248
517.016	1297
517.232	1379
517.448	1420
517.664	1487
517.879	1457
518.095	1509
518.311	1453
518.527	1381
518.742	1340
518.958	1282
519.173	1244
519.389	1202
519.605	1160
519.82	1114
520.036	1152
520.251	1105
520.467	1082
520.682	1098
520.898	1060
521.113	1074
521.329	1003
521.544	1013
521.76	1021
521.975	1044
522.19	1008
522.406	1008
522.621	1002
522.836	985
523.052	989
523.267	986
523.482	977
523.698	949
523.913	997
524.128	977
524.343	945
524.559	970
524.774	982
524.989	955
525.204	952
525.419	956
525.634	971
525.849	956
526.064	942
526.28	955
526.495	914
526.71	918
526.925	950
527.14	944
527.355	920
527.57	954
527.785	953
527.999	954
528.214	949
528.429	957
528.644	954
528.859	969
529.074	939
529.289	964
529.503	947
529.718	945
529.933	948
530.148	930
530.363	977
530.577	953
530.792	921
531.007	980
531.221	952
531.436	959
531.651	944
531.865	964
532.08	944
532.295	967
532.509	960
532.724	957
532.938	968
533.153	935
533.367	954
533.582	942
533.796	945
534.011	958
534.225	944
534.44	928
534.654	908
534.868	932
535.083	923
535.297	888
535.511	904
535.726	902
535.94	918
536.154	904
536.369	906
536.583	898
536.797	853
537.011	888
537.225	900
537.44	896
537.654	858
537.868	872
538.082	884
538.296	860
538.51	850
538.724	879
538.938	862
539.153	862
539.367	847
539.581	877
539.795	851
540.009	818
540.222	854
540.436	854
540.65	844
540.864	861
541.078	849
541.292	831
541.506	819
541.72	837
541.934	856
542.147	844
542.361	841
542.575	818
542.789	832
543.002	826
543.216	852
543.43	820
543.644	841
543.857	844
544.071	831
544.285	843
544.498	844
544.712	844
544.925	878
545.139	853
545.352	860
545.566	856
545.779	871
545.993	849
546.206	889
546.42	851
546.633	858
546.847	850
547.06	836
547.274	841
547.487	865
547.7	876
547.914	839
548.127	864
548.34	872
548.554	852
548.767	848
548.98	843
549.193	854
549.407	868
549.62	895
549.833	915
550.046	858
550.259	891
550.473	856
550.686	853
550.899	846
551.112	843
551.325	824
551.538	851
551.751	834
551.964	846
552.177	877
552.39	866
552.603	885
552.816	881
553.029	948
553.242	928
553.455	950
553.667	1008
553.88	926
554.093	909
554.306	880
554.519	881
554.732	829
554.944	838
555.157	843
555.37	843
555.583	825
555.795	813
556.008	776
556.221	762
556.433	768
556.646	772
556.859	732
557.071	760
557.284	735
557.496	738
557.709	735
557.921	728
558.134	724
558.346	715
558.559	758
558.771	722
558.984	706
559.196	729
559.409	726
559.621	704
559.833	710
560.046	700
560.258	710
560.47	716
560.683	713
560.895	719
561.107	707
561.32	662
561.532	698
561.744	694
561.956	692
562.168	716
562.381	696
562.593	713
562.805	697
563.017	714
563.229	692
563.441	730
563.653	712
563.865	713
564.077	737
564.289	737
564.501	746
564.713	778
564.925	757
565.137	774
565.349	790
565.561	820
565.773	839
565.985	844
566.197	902
566.408	988
566.62	1101
566.832	1186
567.044	1233
567.255	1197
567.467	1189
567.679	1306
567.891	1436
568.102	1481
568.314	1426
568.526	1229
568.737	1102
568.949	1026
569.161	943
569.372	836
569.584	789
569.795	796
570.007	753
570.218	724
570.43	728
570.641	699
570.853	718
571.064	771
571.276	768
571.487	710
571.698	676
571.91	673
572.121	657
572.333	658
572.544	621
572.755	623
572.966	602
573.178	621
573.389	606
573.6	591
573.811	595
574.023	589
574.234	599
574.445	577
574.656	589
574.867	615
575.078	585
575.289	565
575.501	585
575.712	546
575.923	564
576.134	556
576.345	544
576.556	569
576.767	549
576.978	549
577.188	567
577.399	548
577.61	536
577.821	518
578.032	502
578.243	514
578.454	519
578.665	516
578.875	510
579.086	504
579.297	498
579.508	509
579.718	505
579.929	503
580.14	494
580.35	518
580.561	501
580.772	488
580.982	510
581.193	512
581.403	534
581.614	502
581.825	502
582.035	492
582.246	492
582.456	487
582.667	489
582.877	497
583.087	488
583.298	463
583.508	485
583.719	492
583.929	498
584.139	466
584.35	453
584.56	475
584.77	472
584.981	491
585.191	472
585.401	450
585.611	466
585.821	480
586.032	480
586.242	471
586.452	482
586.662	480
586.872	481
587.082	459
587.292	478
587.502	470
587.713	460
587.923	440
588.133	467
588.343	462
588.553	459
588.762	476
588.972	461
589.182	465
589.392	464
589.602	481
589.812	467
590.022	468
590.232	466
590.441	483
590.651	462
590.861	470
591.071	466
591.281	489
591.49	487
591.7	505
591.91	500
592.119	496
592.329	526
592.539	536
592.748	556
592.958	575
593.167	598
593.377	620
593.587	597
593.796	615
594.006	615
594.215	618
594.424	606
594.634	612
594.843	581
595.053	548
595.262	530
595.472	499
595.681	500
595.89	504
596.1	475
596.309	466
596.518	460
596.727	463
596.937	441
597.146	421
597.355	467
597.564	424
597.774	417
597.983	426
598.192	401
598.401	405
598.61	397
598.819	394
599.028	416
599.237	409
599.446	406
599.655	406
599.864	409
600.073	398
600.282	377
600.491	400
600.7	390
600.909	408
601.118	417
601.327	413
601.536	380
601.745	387
601.953	376
602.162	386
602.371	372
602.58	390
602.789	403
602.997	388
603.206	366
603.415	384
603.623	374
603.832	388
604.041	357
604.249	379
604.458	356
604.666	378
604.875	358
605.084	370
605.292	378
605.501	361
605.709	374
605.918	372
606.126	374
606.334	362
606.543	357
606.751	365
606.96	350
607.168	348
607.376	376
607.585	370
607.793	350
608.001	361
608.21	337
608.418	337
608.626	341
608.834	374
609.043	342
609.251	341
609.459	360
609.667	357
609.875	328
610.083	364
610.291	344
610.499	334
610.707	322
610.916	347
611.124	349
611.332	371
611.54	337
611.748	358
611.955	364
612.163	360
612.371	355
612.579	338
612.787	353
612.995	329
613.203	354
613.411	327
613.618	343
613.826	329
614.034	352
614.242	344
614.449	346
614.657	343
614.865	332
615.072	331
615.28	344
615.488	347
615.695	330
615.903	346
616.111	349
616.318	366
616.526	345
616.733	340
616.941	326
617.148	345
617.356	339
617.563	333
617.771	353
617.978	347
618.185	330
618.393	341
618.6	334
618.807	338
619.015	333
619.222	338
619.429	345
619.637	327
619.844	322
620.051	325
620.258	316
620.466	319
620.673	302
620.88	308
621.087	323
621.294	322
621.501	294
621.708	316
621.915	331
622.122	321
622.329	315
622.536	317
622.743	333
622.95	301
623.157	302
623.364	299
623.571	299
623.778	322
623.985	292
624.192	308
624.399	288
624.606	282
624.812	299
625.019	284
625.226	284
625.433	285
625.639	296
625.846	289
626.053	275
626.259	308
626.466	275
626.673	282
626.879	296
627.086	288
627.293	305
627.499	272
627.706	299
627.912	275
628.119	277
628.325	259
628.532	276
628.738	274
628.945	275
629.151	287
629.357	286
629.564	266
629.77	270
629.976	259
630.183	268
630.389	268
630.595	279
630.802	278
631.008	265
631.214	262
631.42	265
631.627	244
631.833	242
632.039	251
632.245	238
632.451	268
632.657	252
632.863	261
633.069	245
633.275	258
633.481	268
633.688	242
633.893	246
634.099	249
634.305	246
634.511	256
634.717	246
634.923	237
635.129	254
635.335	233
635.541	235
635.747	264
635.952	240
636.158	259
636.364	264
636.57	237
636.775	250
636.981	241
637.187	236
637.392	244
637.598	251
637.804	253
638.009	243
638.215	229
638.421	232
638.626	217
638.832	248
639.037	223
639.243	239
639.448	237
639.654	251
639.859	236
640.065	221
640.27	207
640.475	225
640.681	228
640.886	236
641.091	230
641.297	212
641.502	214
641.707	213
641.913	228
642.118	230
642.323	220
642.528	210
642.733	213
642.939	200
643.144	230
643.349	218
643.554	215
643.759	222
643.964	218
644.169	205
644.374	208
644.579	222
644.784	204
644.989	215
645.194	220
645.399	207
645.604	206
645.809	218
646.014	210
646.219	232
646.423	230
646.628	212
646.833	225
647.038	204
647.243	226
647.447	222
647.652	216
647.857	243
648.062	214
648.266	216
648.471	231
648.676	246
648.88	235
649.085	222
649.289	217
649.494	211
649.698	217
649.903	213
650.107	227
650.312	221
650.516	217
650.721	226
650.925	196
651.13	186
651.334	185
651.539	180
651.743	201
651.947	189
652.152	189
652.356	187
652.56	194
652.764	169
652.969	189
653.173	164
653.377	171
653.581	178
653.785	168
653.99	166
654.194	173
654.398	166
654.602	168
654.806	166
655.01	180
655.214	158
655.418	156
655.622	160
655.826	155
656.03	168
656.234	173
656.438	166
656.642	164
656.846	160
657.049	145
657.253	143
657.457	140
657.661	144
657.865	140
658.068	141
658.272	127
658.476	125
658.68	124
658.883	114
659.087	118
659.291	113
659.494	110
659.698	110
659.901	104
660.105	104
660.309	98
660.512	102
660.716	92
660.919	107
661.123	84
661.326	91
661.53	94
661.733	101
661.936	95
662.14	86
662.343	90
662.546	77
662.75	80
662.953	94
663.156	83
663.36	93
663.563	81
663.766	110
663.969	86
664.173	85
664.376	74
664.579	81
664.782	84
664.985	82
665.188	74
665.391	84
665.594	61
665.797	90
666	75
666.203	84
666.406	87
666.609	76
666.812	90
667.015	82
667.218	85
667.421	88
667.624	69
667.827	96
668.03	77
668.232	83
668.435	72
668.638	79
668.841	77
669.043	75
669.246	77
669.449	77
669.651	88
669.854	83
670.057	90
670.259	69
670.462	84
670.665	74
670.867	72
671.07	86
671.272	81
671.475	85
671.677	66
671.88	85
672.082	76
672.284	84
672.487	81
672.689	85
672.892	88
