Data from NiCl2@0.0625M.TitratingCurve.Agarose3%dH2O.NegLispCup.LampEnergy10.LIBS07252019_HRD10591_18-32-35-575.txt Node
Date: Thu Jul 25 18:32:35 EDT 2019
User: cochatt
Spectrometer: HR+D1059
Trigger mode: 1
Integration Time (sec): 1.000000E-1
Scans to average: 1
Electric dark correction enabled: true
Nonlinearity correction enabled: false
Boxcar width: 0
XAxis mode: Wavelengths
Number of Pixels in Spectrum: 2048
>>>>>Begin Spectral Data<<<<<
223.165	-11
223.4	-11
223.635	-11
223.869	-21
224.104	-26
224.338	-11
224.573	-4
224.808	-10
225.042	4
225.277	-9
225.511	-12
225.746	3
225.98	11
226.215	13
226.449	8
226.683	11
226.918	27
227.152	27
227.387	30
227.621	42
227.856	39
228.09	34
228.324	60
228.559	43
228.793	78
229.027	122
229.262	173
229.496	188
229.73	174
229.964	183
230.199	194
230.433	189
230.667	181
230.901	195
231.136	205
231.37	193
231.604	195
231.838	201
232.072	212
232.306	220
232.541	208
232.775	200
233.009	198
233.243	204
233.477	223
233.711	213
233.945	227
234.179	215
234.413	224
234.647	216
234.881	219
235.115	230
235.349	221
235.583	229
235.817	225
236.051	234
236.285	223
236.519	234
236.753	229
236.987	244
237.221	245
237.455	231
237.689	243
237.922	235
238.156	233
238.39	281
238.624	247
238.858	264
239.091	270
239.325	265
239.559	280
239.793	275
240.027	283
240.26	288
240.494	286
240.728	285
240.961	293
241.195	295
241.429	303
241.662	283
241.896	299
242.13	312
242.363	309
242.597	331
242.83	335
243.064	311
243.298	324
243.531	317
243.765	352
243.998	342
244.232	344
244.465	338
244.699	340
244.932	347
245.166	360
245.399	365
245.633	352
245.866	356
246.099	351
246.333	359
246.566	380
246.8	365
247.033	380
247.266	372
247.5	386
247.733	391
247.966	405
248.2	408
248.433	406
248.666	392
248.899	416
249.133	408
249.366	412
249.599	417
249.832	398
250.066	412
250.299	407
250.532	417
250.765	414
250.998	440
251.231	448
251.465	428
251.698	428
251.931	438
252.164	440
252.397	447
252.63	473
252.863	474
253.096	441
253.329	471
253.562	464
253.795	464
254.028	457
254.261	467
254.494	487
254.727	475
254.96	476
255.193	478
255.426	473
255.659	489
255.892	500
256.124	490
256.357	499
256.59	493
256.823	485
257.056	506
257.289	496
257.521	505
257.754	500
257.987	503
258.22	500
258.452	503
258.685	527
258.918	534
259.151	532
259.383	523
259.616	510
259.849	534
260.081	537
260.314	519
260.547	544
260.779	532
261.012	532
261.244	559
261.477	570
261.71	566
261.942	536
262.175	581
262.407	562
262.64	554
262.872	554
263.105	574
263.337	592
263.57	596
263.802	592
264.035	569
264.267	581
264.499	588
264.732	596
264.964	592
265.197	588
265.429	583
265.661	560
265.894	604
266.126	607
266.358	632
266.591	644
266.823	629
267.055	621
267.287	630
267.52	600
267.752	622
267.984	604
268.216	619
268.448	629
268.681	644
268.913	628
269.145	641
269.377	652
269.609	669
269.841	642
270.073	634
270.306	668
270.538	649
270.77	655
271.002	663
271.234	666
271.466	686
271.698	677
271.93	687
272.162	673
272.394	687
272.626	669
272.858	659
273.09	699
273.322	677
273.553	684
273.785	706
274.017	687
274.249	725
274.481	718
274.713	707
274.945	718
275.176	730
275.408	734
275.64	731
275.872	720
276.104	743
276.335	751
276.567	757
276.799	728
277.031	726
277.262	763
277.494	751
277.726	771
277.957	770
278.189	779
278.421	766
278.652	777
278.884	762
279.115	748
279.347	772
279.579	774
279.81	783
280.042	786
280.273	797
280.505	813
280.736	813
280.968	822
281.199	788
281.431	804
281.662	821
281.894	848
282.125	815
282.356	833
282.588	821
282.819	838
283.051	841
283.282	830
283.513	863
283.745	855
283.976	868
284.207	854
284.439	883
284.67	860
284.901	887
285.132	901
285.364	838
285.595	884
285.826	869
286.057	853
286.288	886
286.52	885
286.751	867
286.982	902
287.213	888
287.444	877
287.675	900
287.906	872
288.138	909
288.369	906
288.6	922
288.831	880
289.062	870
289.293	912
289.524	902
289.755	919
289.986	907
290.217	916
290.448	903
290.679	908
290.91	917
291.141	914
291.371	917
291.602	923
291.833	943
292.064	904
292.295	923
292.526	913
292.757	933
292.987	907
293.218	930
293.449	909
293.68	927
293.91	917
294.141	923
294.372	916
294.603	949
294.833	934
295.064	926
295.295	931
295.525	942
295.756	932
295.987	922
296.217	946
296.448	973
296.679	960
296.909	949
297.14	961
297.37	986
297.601	966
297.831	983
298.062	981
298.292	998
298.523	1012
298.753	1004
298.984	999
299.214	988
299.445	1003
299.675	1002
299.905	1008
300.136	998
300.366	1015
300.597	1022
300.827	1031
301.057	1035
301.288	1048
301.518	1034
301.748	1064
301.979	1060
302.209	1082
302.439	1077
302.669	1062
302.9	1049
303.13	1052
303.36	1034
303.59	1037
303.82	1022
304.051	1054
304.281	1052
304.511	1044
304.741	1082
304.971	1054
305.201	1055
305.431	1043
305.661	1056
305.891	1051
306.121	1030
306.352	1021
306.582	1029
306.812	1031
307.042	1051
307.272	1046
307.502	1012
307.731	1062
307.961	1060
308.191	1079
308.421	1026
308.651	1022
308.881	1029
309.111	1045
309.341	1055
309.571	1038
309.8	1051
310.03	1064
310.26	1039
310.49	1060
310.72	1067
310.949	1082
311.179	1063
311.409	1062
311.639	1098
311.868	1092
312.098	1124
312.328	1077
312.557	1088
312.787	1102
313.017	1089
313.246	1113
313.476	1083
313.706	1128
313.935	1134
314.165	1145
314.394	1116
314.624	1112
314.853	1129
315.083	1116
315.312	1138
315.542	1124
315.771	1111
316.001	1096
316.23	1126
316.46	1142
316.689	1112
316.919	1123
317.148	1145
317.377	1108
317.607	1117
317.836	1146
318.065	1116
318.295	1132
318.524	1131
318.753	1108
318.983	1106
319.212	1106
319.441	1104
319.67	1106
319.9	1076
320.129	1129
320.358	1106
320.587	1110
320.816	1128
321.046	1152
321.275	1122
321.504	1123
321.733	1111
321.962	1108
322.191	1158
322.42	1178
322.649	1126
322.878	1129
323.108	1120
323.337	1168
323.566	1148
323.795	1164
324.024	1140
324.253	1134
324.482	1162
324.71	1161
324.939	1143
325.168	1168
325.397	1195
325.626	1155
325.855	1187
326.084	1206
326.313	1220
326.542	1230
326.77	1225
326.999	1205
327.228	1202
327.457	1219
327.686	1206
327.914	1212
328.143	1225
328.372	1199
328.6	1198
328.829	1242
329.058	1231
329.287	1228
329.515	1212
329.744	1247
329.972	1239
330.201	1244
330.43	1275
330.658	1251
330.887	1286
331.115	1253
331.344	1279
331.572	1293
331.801	1300
332.03	1308
332.258	1358
332.486	1376
332.715	1398
332.943	1462
333.172	1493
333.4	1530
333.629	1544
333.857	1554
334.085	1598
334.314	1579
334.542	1550
334.771	1552
334.999	1526
335.227	1527
335.455	1522
335.684	1511
335.912	1472
336.14	1489
336.369	1483
336.597	1462
336.825	1473
337.053	1474
337.281	1441
337.51	1424
337.738	1400
337.966	1363
338.194	1379
338.422	1369
338.65	1354
338.878	1330
339.106	1364
339.334	1343
339.562	1302
339.79	1293
340.018	1258
340.246	1291
340.474	1294
340.702	1315
340.93	1274
341.158	1310
341.386	1293
341.614	1303
341.842	1259
342.07	1306
342.298	1288
342.526	1256
342.754	1280
342.981	1262
343.209	1284
343.437	1378
343.665	1411
343.893	1475
344.12	1501
344.348	1482
344.576	1431
344.804	1394
345.031	1353
345.259	1336
345.487	1324
345.714	1292
345.942	1295
346.17	1243
346.397	1252
346.625	1263
346.853	1248
347.08	1221
347.308	1219
347.535	1238
347.763	1232
347.99	1228
348.218	1218
348.445	1209
348.673	1261
348.9	1238
349.128	1200
349.355	1201
349.583	1200
349.81	1227
350.037	1186
350.265	1174
350.492	1200
350.72	1200
350.947	1193
351.174	1207
351.402	1196
351.629	1166
351.856	1176
352.083	1195
352.311	1176
352.538	1172
352.765	1168
352.992	1163
353.22	1168
353.447	1174
353.674	1168
353.901	1144
354.128	1179
354.355	1157
354.583	1158
354.81	1187
355.037	1211
355.264	1179
355.491	1179
355.718	1206
355.945	1182
356.172	1177
356.399	1180
356.626	1155
356.853	1204
357.08	1174
357.307	1164
357.534	1190
357.761	1206
357.988	1203
358.215	1208
358.441	1202
358.668	1164
358.895	1229
359.122	1195
359.349	1219
359.576	1179
359.802	1170
360.029	1166
360.256	1220
360.483	1178
360.709	1174
360.936	1192
361.163	1206
361.39	1205
361.616	1200
361.843	1196
362.07	1207
362.296	1181
362.523	1198
362.749	1194
362.976	1158
363.203	1197
363.429	1169
363.656	1189
363.882	1212
364.109	1175
364.335	1193
364.562	1195
364.788	1187
365.015	1179
365.241	1196
365.468	1209
365.694	1191
365.92	1168
366.147	1197
366.373	1204
366.599	1204
366.826	1199
367.052	1171
367.278	1160
367.505	1183
367.731	1180
367.957	1231
368.184	1184
368.41	1183
368.636	1196
368.862	1214
369.089	1222
369.315	1227
369.541	1257
369.767	1245
369.993	1223
370.219	1232
370.445	1258
370.672	1281
370.898	1261
371.124	1248
371.35	1277
371.576	1280
371.802	1301
372.028	1311
372.254	1317
372.48	1290
372.706	1310
372.932	1353
373.158	1352
373.384	1335
373.61	1325
373.835	1259
374.061	1322
374.287	1325
374.513	1348
374.739	1355
374.965	1383
375.191	1442
375.416	1380
375.642	1389
375.868	1368
376.094	1364
376.319	1353
376.545	1356
376.771	1328
376.997	1292
377.222	1279
377.448	1288
377.674	1310
377.899	1276
378.125	1286
378.35	1266
378.576	1268
378.802	1258
379.027	1311
379.253	1274
379.478	1295
379.704	1304
379.929	1295
380.155	1296
380.38	1293
380.606	1271
380.831	1277
381.057	1294
381.282	1285
381.507	1319
381.733	1282
381.958	1325
382.184	1301
382.409	1311
382.634	1295
382.86	1363
383.085	1330
383.31	1376
383.535	1374
383.761	1407
383.986	1448
384.211	1427
384.436	1464
384.662	1482
384.887	1519
385.112	1510
385.337	1538
385.562	1539
385.787	1540
386.013	1528
386.238	1546
386.463	1539
386.688	1524
386.913	1513
387.138	1523
387.363	1534
387.588	1491
387.813	1509
388.038	1538
388.263	1502
388.488	1570
388.713	1524
388.938	1529
389.163	1511
389.387	1538
389.612	1525
389.837	1489
390.062	1502
390.287	1558
390.512	1565
390.736	1525
390.961	1562
391.186	1593
391.411	1598
391.636	1656
391.86	1648
392.085	1695
392.31	1660
392.534	1662
392.759	1667
392.984	1650
393.208	1692
393.433	1743
393.658	1786
393.882	1655
394.107	1613
394.331	1616
394.556	1652
394.78	1625
395.005	1688
395.229	1643
395.454	1651
395.678	1710
395.903	1695
396.127	1730
396.352	1706
396.576	1654
396.801	1662
397.025	1798
397.249	1777
397.474	1717
397.698	1705
397.922	1743
398.147	1716
398.371	1765
398.595	1804
398.82	1896
399.044	2022
399.268	2138
399.492	2437
399.717	2626
399.941	2692
400.165	2498
400.389	2290
400.613	2144
400.837	2027
401.062	1984
401.286	1952
401.51	1924
401.734	1897
401.958	1924
402.182	1893
402.406	1935
402.63	1965
402.854	1981
403.078	1995
403.302	2054
403.526	2063
403.75	2092
403.974	2083
404.198	2086
404.422	2114
404.645	2075
404.869	2080
405.093	2117
405.317	2046
405.541	2054
405.765	2037
405.988	2053
406.212	2080
406.436	2082
406.66	2129
406.883	2111
407.107	2260
407.331	2332
407.555	2426
407.778	2388
408.002	2346
408.226	2306
408.449	2251
408.673	2175
408.896	2182
409.12	2154
409.344	2149
409.567	2138
409.791	2117
410.014	2110
410.238	2053
410.461	2088
410.685	2062
410.908	2051
411.132	2057
411.355	1993
411.578	2011
411.802	1965
412.025	2000
412.249	1989
412.472	2013
412.695	1997
412.919	1912
413.142	1924
413.365	1909
413.589	1906
413.812	1893
414.035	1874
414.258	1918
414.482	1900
414.705	1935
414.928	1875
415.151	1942
415.374	1935
415.597	1872
415.821	1861
416.044	1837
416.267	1865
416.49	1868
416.713	1851
416.936	1852
417.159	1815
417.382	1812
417.605	1794
417.828	1839
418.051	1820
418.274	1851
418.497	1833
418.72	1882
418.943	1844
419.166	2006
419.389	2114
419.611	2083
419.834	1980
420.057	1962
420.28	1892
420.503	1806
420.726	1805
420.948	1830
421.171	1844
421.394	1818
421.617	1846
421.839	1886
422.062	1822
422.285	1843
422.507	1891
422.73	1891
422.953	1929
423.175	1871
423.398	1911
423.621	1876
423.843	1927
424.066	1926
424.288	1916
424.511	1908
424.733	1886
424.956	1880
425.178	1854
425.401	1807
425.623	1861
425.846	1783
426.068	1805
426.291	1782
426.513	1803
426.735	1740
426.958	1758
427.18	1726
427.402	1752
427.625	1742
427.847	1672
428.069	1690
428.292	1700
428.514	1695
428.736	1676
428.958	1688
429.181	1641
429.403	1655
429.625	1639
429.847	1632
430.069	1589
430.292	1666
430.514	1622
430.736	1671
430.958	1660
431.18	1638
431.402	1679
431.624	1618
431.846	1677
432.068	1679
432.29	1717
432.512	1638
432.734	1726
432.956	1675
433.178	1682
433.4	1693
433.622	1705
433.844	1716
434.066	1696
434.287	1724
434.509	1791
434.731	1862
434.953	1832
435.175	1810
435.397	1882
435.618	1778
435.84	1709
436.062	1718
436.284	1682
436.505	1661
436.727	1691
436.949	1674
437.17	1651
437.392	1631
437.614	1644
437.835	1573
438.057	1622
438.278	1593
438.5	1599
438.721	1609
438.943	1638
439.165	1605
439.386	1627
439.608	1682
439.829	1628
440.05	1654
440.272	1667
440.493	1653
440.715	1667
440.936	1655
441.158	1729
441.379	1761
441.6	1825
441.822	1851
442.043	1833
442.264	1808
442.486	1762
442.707	1771
442.928	1787
443.149	1763
443.371	1764
443.592	1803
443.813	1867
444.034	1854
444.255	1895
444.476	1934
444.698	2008
444.919	2068
445.14	2099
445.361	1983
445.582	1852
445.803	1796
446.024	1700
446.245	1711
446.466	1684
446.687	1667
446.908	1661
447.129	1595
447.35	1603
447.571	1597
447.792	1516
448.013	1522
448.234	1513
448.455	1508
448.675	1516
448.896	1517
449.117	1470
449.338	1491
449.559	1497
449.779	1481
450	1522
450.221	1487
450.442	1496
450.662	1497
450.883	1469
451.104	1514
451.324	1463
451.545	1502
451.766	1499
451.986	1468
452.207	1451
452.428	1455
452.648	1456
452.869	1442
453.089	1408
453.31	1460
453.53	1430
453.751	1417
453.971	1461
454.192	1430
454.412	1426
454.633	1399
454.853	1435
455.073	1395
455.294	1439
455.514	1412
455.734	1429
455.955	1380
456.175	1388
456.395	1378
456.616	1412
456.836	1419
457.056	1398
457.276	1394
457.497	1427
457.717	1451
457.937	1437
458.157	1412
458.377	1441
458.598	1498
458.818	1527
459.038	1556
459.258	1637
459.478	1651
459.698	1674
459.918	1719
460.138	1767
460.358	1867
460.578	1862
460.798	1930
461.018	1917
461.238	1884
461.458	1858
461.678	1879
461.898	1903
462.118	1901
462.338	1992
462.558	2050
462.777	2119
462.997	2236
463.217	2357
463.437	2444
463.657	2254
463.876	2188
464.096	2193
464.316	2112
464.536	2142
464.755	2101
464.975	1989
465.195	1921
465.414	1867
465.634	1772
465.854	1690
466.073	1686
466.293	1656
466.512	1630
466.732	1630
466.951	1580
467.171	1544
467.391	1555
467.61	1546
467.829	1536
468.049	1532
468.268	1529
468.488	1562
468.707	1512
468.927	1511
469.146	1514
469.365	1553
469.585	1527
469.804	1581
470.023	1578
470.243	1603
470.462	1590
470.681	1621
470.901	1611
471.12	1574
471.339	1560
471.558	1554
471.777	1550
471.997	1516
472.216	1518
472.435	1509
472.654	1496
472.873	1519
473.092	1535
473.311	1492
473.53	1503
473.749	1486
473.968	1543
474.187	1495
474.406	1486
474.625	1469
474.844	1542
475.063	1524
475.282	1530
475.501	1508
475.72	1534
475.939	1569
476.158	1593
476.377	1597
476.596	1612
476.814	1652
477.033	1599
477.252	1636
477.471	1645
477.69	1711
477.908	1708
478.127	1720
478.346	1781
478.564	1845
478.783	1798
479.002	1833
479.22	1874
479.439	1916
479.658	1862
479.876	1881
480.095	1908
480.313	1962
480.532	1995
480.751	2025
480.969	1938
481.188	1899
481.406	1850
481.624	1858
481.843	1822
482.061	1757
482.28	1769
482.498	1814
482.717	1829
482.935	1874
483.153	1806
483.372	1801
483.59	1831
483.808	1833
484.027	1848
484.245	1858
484.463	1858
484.681	1914
484.9	1898
485.118	1922
485.336	1933
485.554	1959
485.772	1923
485.99	1931
486.209	1890
486.427	1913
486.645	1930
486.863	1901
487.081	1926
487.299	1924
487.517	1908
487.735	1903
487.953	1884
488.171	1910
488.389	1865
488.607	1870
488.825	1876
489.043	1856
489.261	1912
489.479	1884
489.696	1860
489.914	1857
490.132	1868
490.35	1870
490.568	1880
490.786	1853
491.003	1871
491.221	1893
491.439	1906
491.657	1923
491.874	1860
492.092	1898
492.31	1861
492.527	1854
492.745	1871
492.963	1894
493.18	1901
493.398	1902
493.615	1889
493.833	1887
494.05	1865
494.268	1933
494.485	1930
494.703	1908
494.92	1910
495.138	1926
495.355	1895
495.573	1934
495.79	1967
496.008	1992
496.225	1993
496.442	2018
496.66	2003
496.877	2024
497.094	2083
497.312	2120
497.529	2073
497.746	2189
497.963	2232
498.181	2391
498.398	2414
498.615	2552
498.832	2649
499.049	2842
499.267	3028
499.484	3256
499.701	3611
499.918	3879
500.135	4348
500.352	4738
500.569	4875
500.786	4822
501.003	4610
501.22	4267
501.437	3874
501.654	3430
501.871	3220
502.088	2980
502.305	2776
502.522	2683
502.739	2603
502.956	2482
503.172	2342
503.389	2260
503.606	2208
503.823	2180
504.04	2162
504.256	2174
504.473	2122
504.69	2178
504.907	2133
505.123	2054
505.34	1933
505.557	1901
505.773	1830
505.99	1803
506.207	1758
506.423	1739
506.64	1704
506.856	1710
507.073	1674
507.289	1680
507.506	1681
507.722	1660
507.939	1613
508.155	1606
508.372	1601
508.588	1625
508.805	1590
509.021	1565
509.238	1541
509.454	1559
509.67	1518
509.887	1562
510.103	1511
510.319	1489
510.536	1542
510.752	1517
510.968	1496
511.184	1511
511.401	1481
511.617	1484
511.833	1478
512.049	1485
512.265	1486
512.481	1508
512.698	1501
512.914	1496
513.13	1476
513.346	1510
513.562	1490
513.778	1484
513.994	1494
514.21	1533
514.426	1482
514.642	1486
514.858	1519
515.074	1557
515.29	1540
515.506	1554
515.721	1600
515.937	1630
516.153	1648
516.369	1653
516.585	1740
516.801	1738
517.016	1802
517.232	1873
517.448	1885
517.664	1939
517.879	1950
518.095	1970
518.311	1951
518.527	1883
518.742	1810
518.958	1803
519.173	1721
519.389	1676
519.605	1616
519.82	1585
520.036	1606
520.251	1520
520.467	1503
520.682	1518
520.898	1510
521.113	1474
521.329	1454
521.544	1429
521.76	1421
521.975	1386
522.19	1452
522.406	1391
522.621	1416
522.836	1381
523.052	1389
523.267	1379
523.482	1368
523.698	1392
523.913	1356
524.128	1384
524.343	1378
524.559	1370
524.774	1318
524.989	1346
525.204	1347
525.419	1326
525.634	1318
525.849	1346
526.064	1307
526.28	1312
526.495	1304
526.71	1299
526.925	1330
527.14	1324
527.355	1306
527.57	1320
527.785	1303
527.999	1320
528.214	1313
528.429	1332
528.644	1345
528.859	1344
529.074	1318
529.289	1296
529.503	1308
529.718	1300
529.933	1303
530.148	1262
530.363	1340
530.577	1273
530.792	1308
531.007	1284
531.221	1296
531.436	1261
531.651	1323
531.865	1311
532.08	1351
532.295	1322
532.509	1316
532.724	1304
532.938	1332
533.153	1292
533.367	1312
533.582	1294
533.796	1299
534.011	1308
534.225	1284
534.44	1288
534.654	1271
534.868	1271
535.083	1279
535.297	1256
535.511	1238
535.726	1235
535.94	1236
536.154	1203
536.369	1212
536.583	1183
536.797	1222
537.011	1189
537.225	1190
537.44	1177
537.654	1216
537.868	1222
538.082	1186
538.296	1207
538.51	1188
538.724	1189
538.938	1158
539.153	1152
539.367	1164
539.581	1188
539.795	1182
540.009	1158
540.222	1165
540.436	1147
540.65	1175
540.864	1144
541.078	1183
541.292	1153
541.506	1174
541.72	1146
541.934	1150
542.147	1141
542.361	1140
542.575	1165
542.789	1129
543.002	1131
543.216	1111
543.43	1126
543.644	1128
543.857	1142
544.071	1130
544.285	1164
544.498	1138
544.712	1171
544.925	1184
545.139	1160
545.352	1181
545.566	1170
545.779	1179
545.993	1188
546.206	1179
546.42	1166
546.633	1157
546.847	1164
547.06	1172
547.274	1178
547.487	1173
547.7	1151
547.914	1150
548.127	1168
548.34	1179
548.554	1176
548.767	1174
548.98	1189
549.193	1179
549.407	1182
549.62	1216
549.833	1198
550.046	1197
550.259	1177
550.473	1148
550.686	1188
550.899	1192
551.112	1172
551.325	1151
551.538	1150
551.751	1125
551.964	1148
552.177	1184
552.39	1174
552.603	1195
552.816	1235
553.029	1241
553.242	1240
553.455	1246
553.667	1262
553.88	1254
554.093	1188
554.306	1209
554.519	1188
554.732	1146
554.944	1123
555.157	1140
555.37	1118
555.583	1120
555.795	1075
556.008	1029
556.221	1031
556.433	1022
556.646	1029
556.859	1036
557.071	994
557.284	1016
557.496	994
557.709	1028
557.921	1002
558.134	991
558.346	1001
558.559	989
558.771	984
558.984	966
559.196	965
559.409	965
559.621	998
559.833	978
560.046	948
560.258	959
560.47	962
560.683	964
560.895	960
561.107	941
561.32	957
561.532	953
561.744	971
561.956	951
562.168	973
562.381	973
562.593	975
562.805	967
563.017	958
563.229	964
563.441	994
563.653	987
563.865	978
564.077	936
564.289	996
564.501	1040
564.713	1014
564.925	1042
565.137	1075
565.349	1074
565.561	1142
565.773	1162
565.985	1219
566.197	1245
566.408	1282
566.62	1432
566.832	1485
567.044	1514
567.255	1525
567.467	1544
567.679	1620
567.891	1715
568.102	1688
568.314	1654
568.526	1506
568.737	1408
568.949	1330
569.161	1215
569.372	1178
569.584	1097
569.795	1057
570.007	1024
570.218	1016
570.43	997
570.641	978
570.853	998
571.064	991
571.276	967
571.487	932
571.698	914
571.91	891
572.121	887
572.333	856
572.544	873
572.755	844
572.966	826
573.178	796
573.389	811
573.6	819
573.811	788
574.023	803
574.234	792
574.445	796
574.656	798
574.867	782
575.078	778
575.289	783
575.501	775
575.712	755
575.923	743
576.134	754
576.345	748
576.556	741
576.767	710
576.978	728
577.188	715
577.399	731
577.61	726
577.821	696
578.032	726
578.243	708
578.454	703
578.665	726
578.875	702
579.086	700
579.297	680
579.508	697
579.718	700
579.929	698
580.14	668
580.35	654
580.561	690
580.772	685
580.982	657
581.193	676
581.403	665
581.614	651
581.825	670
582.035	663
582.246	651
582.456	668
582.667	645
582.877	638
583.087	632
583.298	615
583.508	636
583.719	638
583.929	650
584.139	633
584.35	638
584.56	643
584.77	629
584.981	612
585.191	642
585.401	617
585.611	624
585.821	652
586.032	651
586.242	621
586.452	642
586.662	629
586.872	606
587.082	634
587.292	629
587.502	600
587.713	607
587.923	604
588.133	614
588.343	643
588.553	627
588.762	637
588.972	605
589.182	604
589.392	677
589.602	614
589.812	634
590.022	616
590.232	619
590.441	636
590.651	640
590.861	659
591.071	648
591.281	638
591.49	654
591.7	660
591.91	651
592.119	646
592.329	681
592.539	686
592.748	700
592.958	714
593.167	723
593.377	735
593.587	732
593.796	758
594.006	740
594.215	770
594.424	765
594.634	755
594.843	738
595.053	706
595.262	698
595.472	688
595.681	647
595.89	622
596.1	630
596.309	612
596.518	599
596.727	623
596.937	587
597.146	591
597.355	592
597.564	576
597.774	536
597.983	567
598.192	544
598.401	527
598.61	539
598.819	547
599.028	534
599.237	543
599.446	534
599.655	527
599.864	540
600.073	514
600.282	514
600.491	514
600.7	504
600.909	521
601.118	499
601.327	498
601.536	520
601.745	493
601.953	523
602.162	493
602.371	512
602.58	478
602.789	487
602.997	491
603.206	500
603.415	473
603.623	496
603.832	498
604.041	486
604.249	485
604.458	488
604.666	473
604.875	478
605.084	491
605.292	473
605.501	475
605.709	490
605.918	438
606.126	466
606.334	477
606.543	450
606.751	491
606.96	481
607.168	471
607.376	461
607.585	465
607.793	463
608.001	460
608.21	448
608.418	458
608.626	453
608.834	457
609.043	459
609.251	460
609.459	440
609.667	452
609.875	450
610.083	467
610.291	461
610.499	431
610.707	442
610.916	430
611.124	428
611.332	449
611.54	422
611.748	434
611.955	438
612.163	436
612.371	436
612.579	442
612.787	443
612.995	443
613.203	423
613.411	437
613.618	438
613.826	438
614.034	433
614.242	444
614.449	447
614.657	419
614.865	430
615.072	423
615.28	422
615.488	412
615.695	425
615.903	416
616.111	427
616.318	448
616.526	433
616.733	424
616.941	418
617.148	427
617.356	425
617.563	422
617.771	442
617.978	425
618.185	434
618.393	426
618.6	434
618.807	407
619.015	430
619.222	419
619.429	399
619.637	423
619.844	399
620.051	391
620.258	402
620.466	399
620.673	392
620.88	399
621.087	403
621.294	400
621.501	397
621.708	403
621.915	378
622.122	420
622.329	412
622.536	390
622.743	396
622.95	387
623.157	390
623.364	404
623.571	374
623.778	393
623.985	379
624.192	374
624.399	378
624.606	378
624.812	365
625.019	378
625.226	367
625.433	363
625.639	370
625.846	363
626.053	358
626.259	381
626.466	378
626.673	358
626.879	355
627.086	363
627.293	365
627.499	372
627.706	373
627.912	343
628.119	353
628.325	346
628.532	344
628.738	352
628.945	358
629.151	354
629.357	350
629.564	339
629.77	336
629.976	335
630.183	343
630.389	329
630.595	343
630.802	343
631.008	327
631.214	340
631.42	349
631.627	329
631.833	341
632.039	305
632.245	324
632.451	328
632.657	335
632.863	334
633.069	333
633.275	328
633.481	321
633.688	330
633.893	329
634.099	308
634.305	317
634.511	310
634.717	321
634.923	310
635.129	298
635.335	294
635.541	308
635.747	314
635.952	308
636.158	310
636.364	311
636.57	322
636.775	314
636.981	314
637.187	312
637.392	301
637.598	299
637.804	323
638.009	301
638.215	302
638.421	291
638.626	310
638.832	304
639.037	298
639.243	312
639.448	298
639.654	304
639.859	320
640.065	294
640.27	308
640.475	295
640.681	290
640.886	267
641.091	299
641.297	290
641.502	285
641.707	287
641.913	312
642.118	298
642.323	306
642.528	288
642.733	290
642.939	284
643.144	271
643.349	285
643.554	284
643.759	294
643.964	283
644.169	290
644.374	287
644.579	289
644.784	281
644.989	287
645.194	270
645.399	304
645.604	291
645.809	278
646.014	292
646.219	278
646.423	293
646.628	290
646.833	295
647.038	308
647.243	302
647.447	288
647.652	306
647.857	316
648.062	308
648.266	322
648.471	308
648.676	300
648.88	302
649.085	314
649.289	306
649.494	275
649.698	297
649.903	294
650.107	288
650.312	314
650.516	303
650.721	300
650.925	289
651.13	289
651.334	281
651.539	282
651.743	276
651.947	273
652.152	286
652.356	265
652.56	280
652.764	280
652.969	276
653.173	277
653.377	270
653.581	265
653.785	269
653.99	269
654.194	266
654.398	277
654.602	274
654.806	278
655.01	285
655.214	288
655.418	295
655.622	306
655.826	298
656.03	327
656.234	333
656.438	325
656.642	331
656.846	329
657.049	304
657.253	274
657.457	262
657.661	232
657.865	237
658.068	227
658.272	224
658.476	175
658.68	188
658.883	174
659.087	173
659.291	159
659.494	154
659.698	133
659.901	142
660.105	139
660.309	132
660.512	126
660.716	121
660.919	117
661.123	111
661.326	106
661.53	118
661.733	110
661.936	111
662.14	94
662.343	100
662.546	106
662.75	96
662.953	88
663.156	96
663.36	99
663.563	94
663.766	88
663.969	79
664.173	81
664.376	101
664.579	77
664.782	94
664.985	86
665.188	98
665.391	91
665.594	92
665.797	80
666	71
666.203	92
666.406	79
666.609	90
666.812	92
667.015	75
667.218	68
667.421	93
667.624	73
667.827	77
668.03	89
668.232	93
668.435	82
668.638	89
668.841	87
669.043	78
669.246	87
669.449	73
669.651	83
669.854	79
670.057	86
670.259	79
670.462	80
670.665	86
670.867	87
671.07	83
671.272	92
671.475	103
671.677	92
671.88	91
672.082	89
672.284	91
672.487	94
672.689	96
672.892	98
