Data from NiCl2@0.25M.TitratingCurve.Agarose3%dH2O.NegLispCup.LampEnergy10.LIBS07252019_HRD10591_18-24-58-573.txt Node
Date: Thu Jul 25 18:24:58 EDT 2019
User: cochatt
Spectrometer: HR+D1059
Trigger mode: 1
Integration Time (sec): 1.000000E-1
Scans to average: 1
Electric dark correction enabled: true
Nonlinearity correction enabled: false
Boxcar width: 0
XAxis mode: Wavelengths
Number of Pixels in Spectrum: 2048
>>>>>Begin Spectral Data<<<<<
223.165	-27
223.4	-27
223.635	-27
223.869	-15
224.104	-23
224.338	-15
224.573	-14
224.808	-15
225.042	-2
225.277	-9
225.511	-4
225.746	25
225.98	2
226.215	20
226.449	19
226.683	17
226.918	24
227.152	17
227.387	28
227.621	36
227.856	36
228.09	42
228.324	51
228.559	43
228.793	77
229.027	122
229.262	132
229.496	130
229.73	145
229.964	140
230.199	153
230.433	151
230.667	152
230.901	169
231.136	170
231.37	156
231.604	164
231.838	185
232.072	159
232.306	175
232.541	185
232.775	195
233.009	167
233.243	181
233.477	177
233.711	184
233.945	175
234.179	201
234.413	195
234.647	191
234.881	176
235.115	176
235.349	181
235.583	172
235.817	186
236.051	197
236.285	190
236.519	187
236.753	202
236.987	214
237.221	197
237.455	203
237.689	205
237.922	204
238.156	210
238.39	204
238.624	206
238.858	211
239.091	226
239.325	224
239.559	220
239.793	237
240.027	216
240.26	222
240.494	231
240.728	234
240.961	218
241.195	221
241.429	243
241.662	240
241.896	264
242.13	264
242.363	244
242.597	259
242.83	272
243.064	243
243.298	251
243.531	250
243.765	268
243.998	265
244.232	257
244.465	272
244.699	263
244.932	277
245.166	286
245.399	289
245.633	259
245.866	290
246.099	304
246.333	292
246.566	268
246.8	300
247.033	271
247.266	294
247.5	279
247.733	307
247.966	301
248.2	307
248.433	296
248.666	320
248.899	342
249.133	321
249.366	317
249.599	326
249.832	335
250.066	321
250.299	341
250.532	332
250.765	335
250.998	344
251.231	367
251.465	342
251.698	346
251.931	344
252.164	337
252.397	328
252.63	352
252.863	341
253.096	356
253.329	354
253.562	351
253.795	350
254.028	365
254.261	371
254.494	360
254.727	375
254.96	362
255.193	363
255.426	382
255.659	379
255.892	381
256.124	389
256.357	372
256.59	371
256.823	379
257.056	400
257.289	387
257.521	387
257.754	408
257.987	405
258.22	397
258.452	399
258.685	407
258.918	419
259.151	417
259.383	417
259.616	407
259.849	417
260.081	410
260.314	424
260.547	412
260.779	426
261.012	446
261.244	429
261.477	416
261.71	433
261.942	436
262.175	442
262.407	427
262.64	427
262.872	450
263.105	452
263.337	443
263.57	448
263.802	462
264.035	456
264.267	431
264.499	438
264.732	445
264.964	441
265.197	477
265.429	479
265.661	467
265.894	488
266.126	462
266.358	471
266.591	471
266.823	465
267.055	475
267.287	472
267.52	483
267.752	486
267.984	486
268.216	471
268.448	484
268.681	499
268.913	484
269.145	495
269.377	507
269.609	511
269.841	499
270.073	514
270.306	480
270.538	525
270.77	489
271.002	503
271.234	521
271.466	527
271.698	518
271.93	523
272.162	504
272.394	485
272.626	542
272.858	525
273.09	543
273.322	571
273.553	513
273.785	525
274.017	555
274.249	572
274.481	550
274.713	556
274.945	551
275.176	545
275.408	564
275.64	550
275.872	554
276.104	552
276.335	572
276.567	550
276.799	561
277.031	581
277.262	577
277.494	579
277.726	582
277.957	565
278.189	596
278.421	577
278.652	585
278.884	613
279.115	602
279.347	612
279.579	581
279.81	608
280.042	604
280.273	618
280.505	607
280.736	605
280.968	632
281.199	593
281.431	647
281.662	634
281.894	637
282.125	645
282.356	665
282.588	624
282.819	666
283.051	639
283.282	615
283.513	646
283.745	640
283.976	637
284.207	626
284.439	643
284.67	667
284.901	652
285.132	657
285.364	666
285.595	655
285.826	679
286.057	678
286.288	658
286.52	684
286.751	712
286.982	698
287.213	678
287.444	691
287.675	668
287.906	677
288.138	717
288.369	691
288.6	686
288.831	679
289.062	712
289.293	694
289.524	706
289.755	725
289.986	701
290.217	710
290.448	711
290.679	715
290.91	692
291.141	700
291.371	683
291.602	742
291.833	721
292.064	709
292.295	684
292.526	724
292.757	697
292.987	703
293.218	731
293.449	727
293.68	722
293.91	717
294.141	718
294.372	703
294.603	716
294.833	729
295.064	715
295.295	728
295.525	711
295.756	749
295.987	741
296.217	747
296.448	770
296.679	744
296.909	721
297.14	729
297.37	780
297.601	776
297.831	731
298.062	751
298.292	769
298.523	807
298.753	820
298.984	751
299.214	782
299.445	747
299.675	751
299.905	780
300.136	800
300.366	771
300.597	785
300.827	785
301.057	805
301.288	799
301.518	815
301.748	812
301.979	820
302.209	840
302.439	803
302.669	823
302.9	777
303.13	799
303.36	799
303.59	803
303.82	809
304.051	800
304.281	812
304.511	794
304.741	804
304.971	824
305.201	811
305.431	817
305.661	833
305.891	770
306.121	789
306.352	797
306.582	786
306.812	794
307.042	796
307.272	803
307.502	800
307.731	822
307.961	787
308.191	776
308.421	779
308.651	788
308.881	779
309.111	785
309.341	802
309.571	794
309.8	799
310.03	811
310.26	817
310.49	802
310.72	807
310.949	806
311.179	804
311.409	802
311.639	837
311.868	811
312.098	832
312.328	802
312.557	828
312.787	852
313.017	842
313.246	842
313.476	842
313.706	865
313.935	855
314.165	868
314.394	864
314.624	867
314.853	852
315.083	868
315.312	882
315.542	859
315.771	850
316.001	859
316.23	845
316.46	831
316.689	857
316.919	848
317.148	837
317.377	834
317.607	820
317.836	834
318.065	840
318.295	835
318.524	866
318.753	860
318.983	858
319.212	831
319.441	810
319.67	849
319.9	812
320.129	823
320.358	857
320.587	857
320.816	865
321.046	829
321.275	851
321.504	832
321.733	856
321.962	832
322.191	843
322.42	836
322.649	873
322.878	858
323.108	843
323.337	867
323.566	850
323.795	874
324.024	862
324.253	871
324.482	865
324.71	872
324.939	902
325.168	874
325.397	902
325.626	901
325.855	906
326.084	939
326.313	927
326.542	940
326.77	945
326.999	914
327.228	903
327.457	899
327.686	892
327.914	950
328.143	931
328.372	934
328.6	947
328.829	936
329.058	928
329.287	919
329.515	957
329.744	931
329.972	955
330.201	931
330.43	955
330.658	957
330.887	961
331.115	979
331.344	993
331.572	1005
331.801	988
332.03	1019
332.258	1025
332.486	1088
332.715	1121
332.943	1136
333.172	1205
333.4	1240
333.629	1307
333.857	1292
334.085	1315
334.314	1273
334.542	1239
334.771	1245
334.999	1183
335.227	1197
335.455	1219
335.684	1157
335.912	1154
336.14	1126
336.369	1124
336.597	1132
336.825	1107
337.053	1138
337.281	1098
337.51	1071
337.738	1072
337.966	1058
338.194	1077
338.422	1023
338.65	1015
338.878	1029
339.106	1017
339.334	1025
339.562	1000
339.79	961
340.018	953
340.246	960
340.474	976
340.702	966
340.93	972
341.158	972
341.386	979
341.614	985
341.842	970
342.07	961
342.298	932
342.526	937
342.754	951
342.981	971
343.209	1010
343.437	1066
343.665	1095
343.893	1192
344.12	1251
344.348	1163
344.576	1115
344.804	1057
345.031	1012
345.259	997
345.487	968
345.714	964
345.942	950
346.17	948
346.397	950
346.625	953
346.853	945
347.08	915
347.308	917
347.535	951
347.763	955
347.99	920
348.218	902
348.445	923
348.673	921
348.9	916
349.128	890
349.355	921
349.583	929
349.81	914
350.037	895
350.265	881
350.492	923
350.72	934
350.947	906
351.174	888
351.402	898
351.629	910
351.856	920
352.083	888
352.311	882
352.538	885
352.765	894
352.992	912
353.22	880
353.447	876
353.674	854
353.901	869
354.128	877
354.355	861
354.583	874
354.81	873
355.037	916
355.264	911
355.491	914
355.718	920
355.945	895
356.172	914
356.399	916
356.626	930
356.853	881
357.08	887
357.307	905
357.534	884
357.761	891
357.988	914
358.215	889
358.441	887
358.668	899
358.895	922
359.122	875
359.349	892
359.576	909
359.802	932
360.029	913
360.256	913
360.483	873
360.709	907
360.936	898
361.163	876
361.39	877
361.616	898
361.843	885
362.07	881
362.296	885
362.523	881
362.749	911
362.976	908
363.203	891
363.429	888
363.656	888
363.882	925
364.109	896
364.335	879
364.562	868
364.788	911
365.015	881
365.241	892
365.468	879
365.694	888
365.92	893
366.147	884
366.373	906
366.599	895
366.826	866
367.052	857
367.278	920
367.505	914
367.731	881
367.957	894
368.184	879
368.41	887
368.636	904
368.862	911
369.089	929
369.315	923
369.541	931
369.767	951
369.993	936
370.219	932
370.445	946
370.672	921
370.898	948
371.124	970
371.35	947
371.576	974
371.802	968
372.028	997
372.254	976
372.48	1007
372.706	1008
372.932	1041
373.158	1016
373.384	979
373.61	982
373.835	984
374.061	972
374.287	997
374.513	1026
374.739	1023
374.965	1073
375.191	1085
375.416	1086
375.642	1027
375.868	1054
376.094	1033
376.319	976
376.545	1052
376.771	996
376.997	985
377.222	971
377.448	952
377.674	977
377.899	976
378.125	959
378.35	913
378.576	947
378.802	939
379.027	960
379.253	959
379.478	949
379.704	969
379.929	958
380.155	962
380.38	954
380.606	948
380.831	989
381.057	988
381.282	973
381.507	954
381.733	975
381.958	994
382.184	1008
382.409	1016
382.634	1016
382.86	1019
383.085	1042
383.31	1056
383.535	1061
383.761	1084
383.986	1083
384.211	1118
384.436	1131
384.662	1162
384.887	1203
385.112	1179
385.337	1213
385.562	1199
385.787	1172
386.013	1212
386.238	1195
386.463	1189
386.688	1219
386.913	1194
387.138	1168
387.363	1161
387.588	1153
387.813	1158
388.038	1160
388.263	1175
388.488	1172
388.713	1185
388.938	1178
389.163	1151
389.387	1162
389.612	1129
389.837	1117
390.062	1161
390.287	1155
390.512	1177
390.736	1207
390.961	1187
391.186	1235
391.411	1261
391.636	1274
391.86	1283
392.085	1365
392.31	1352
392.534	1299
392.759	1285
392.984	1260
393.208	1235
393.433	1266
393.658	1243
393.882	1255
394.107	1267
394.331	1283
394.556	1270
394.78	1261
395.005	1311
395.229	1292
395.454	1307
395.678	1348
395.903	1342
396.127	1313
396.352	1301
396.576	1261
396.801	1236
397.025	1290
397.249	1304
397.474	1334
397.698	1302
397.922	1335
398.147	1343
398.371	1392
398.595	1404
398.82	1495
399.044	1575
399.268	1787
399.492	2034
399.717	2303
399.941	2337
400.165	2063
400.389	1824
400.613	1697
400.837	1631
401.062	1566
401.286	1555
401.51	1531
401.734	1483
401.958	1553
402.182	1515
402.406	1595
402.63	1563
402.854	1602
403.078	1628
403.302	1687
403.526	1709
403.75	1701
403.974	1766
404.198	1744
404.422	1737
404.645	1735
404.869	1736
405.093	1729
405.317	1691
405.541	1682
405.765	1652
405.988	1644
406.212	1633
406.436	1659
406.66	1663
406.883	1718
407.107	1821
407.331	1943
407.555	1960
407.778	1974
408.002	1900
408.226	1870
408.449	1825
408.673	1745
408.896	1694
409.12	1671
409.344	1679
409.567	1640
409.791	1692
410.014	1646
410.238	1636
410.461	1665
410.685	1608
410.908	1609
411.132	1613
411.355	1549
411.578	1552
411.802	1555
412.025	1584
412.249	1566
412.472	1571
412.695	1521
412.919	1486
413.142	1474
413.365	1482
413.589	1498
413.812	1500
414.035	1486
414.258	1471
414.482	1450
414.705	1514
414.928	1539
415.151	1522
415.374	1521
415.597	1520
415.821	1449
416.044	1446
416.267	1445
416.49	1447
416.713	1457
416.936	1464
417.159	1466
417.382	1442
417.605	1468
417.828	1498
418.051	1472
418.274	1465
418.497	1490
418.72	1528
418.943	1498
419.166	1625
419.389	1696
419.611	1721
419.834	1599
420.057	1546
420.28	1500
420.503	1463
420.726	1465
420.948	1440
421.171	1455
421.394	1446
421.617	1477
421.839	1458
422.062	1460
422.285	1451
422.507	1497
422.73	1472
422.953	1542
423.175	1536
423.398	1570
423.621	1541
423.843	1572
424.066	1584
424.288	1551
424.511	1543
424.733	1522
424.956	1481
425.178	1519
425.401	1462
425.623	1454
425.846	1436
426.068	1419
426.291	1412
426.513	1404
426.735	1385
426.958	1365
427.18	1327
427.402	1319
427.625	1306
427.847	1268
428.069	1309
428.292	1314
428.514	1292
428.736	1317
428.958	1280
429.181	1264
429.403	1254
429.625	1236
429.847	1250
430.069	1229
430.292	1268
430.514	1244
430.736	1253
430.958	1229
431.18	1261
431.402	1254
431.624	1268
431.846	1292
432.068	1298
432.29	1315
432.512	1267
432.734	1337
432.956	1282
433.178	1307
433.4	1275
433.622	1323
433.844	1321
434.066	1289
434.287	1315
434.509	1368
434.731	1409
434.953	1469
435.175	1475
435.397	1448
435.618	1361
435.84	1334
436.062	1292
436.284	1260
436.505	1270
436.727	1298
436.949	1283
437.17	1279
437.392	1263
437.614	1255
437.835	1265
438.057	1235
438.278	1227
438.5	1242
438.721	1229
438.943	1231
439.165	1250
439.386	1227
439.608	1281
439.829	1264
440.05	1239
440.272	1302
440.493	1306
440.715	1305
440.936	1338
441.158	1351
441.379	1403
441.6	1455
441.822	1469
442.043	1465
442.264	1395
442.486	1396
442.707	1423
442.928	1415
443.149	1421
443.371	1392
443.592	1463
443.813	1472
444.034	1434
444.255	1484
444.476	1538
444.698	1717
444.919	1721
445.14	1853
445.361	1665
445.582	1530
445.803	1439
446.024	1374
446.245	1332
446.466	1327
446.687	1319
446.908	1312
447.129	1240
447.35	1244
447.571	1209
447.792	1209
448.013	1194
448.234	1183
448.455	1182
448.675	1189
448.896	1149
449.117	1137
449.338	1157
449.559	1153
449.779	1128
450	1154
450.221	1149
450.442	1164
450.662	1165
450.883	1169
451.104	1208
451.324	1195
451.545	1183
451.766	1178
451.986	1212
452.207	1173
452.428	1123
452.648	1161
452.869	1139
453.089	1141
453.31	1166
453.53	1148
453.751	1138
453.971	1117
454.192	1100
454.412	1098
454.633	1095
454.853	1100
455.073	1076
455.294	1084
455.514	1092
455.734	1096
455.955	1056
456.175	1095
456.395	1070
456.616	1047
456.836	1091
457.056	1091
457.276	1080
457.497	1087
457.717	1069
457.937	1116
458.157	1130
458.377	1108
458.598	1147
458.818	1181
459.038	1192
459.258	1262
459.478	1334
459.698	1315
459.918	1385
460.138	1398
460.358	1481
460.578	1549
460.798	1520
461.018	1561
461.238	1548
461.458	1504
461.678	1516
461.898	1550
462.118	1545
462.338	1645
462.558	1678
462.777	1795
462.997	1918
463.217	2040
463.437	2065
463.657	1915
463.876	1808
464.096	1819
464.316	1787
464.536	1796
464.755	1769
464.975	1674
465.195	1573
465.414	1496
465.634	1400
465.854	1367
466.073	1311
466.293	1307
466.512	1250
466.732	1228
466.951	1201
467.171	1222
467.391	1252
467.61	1207
467.829	1221
468.049	1215
468.268	1159
468.488	1188
468.707	1177
468.927	1157
469.146	1127
469.365	1196
469.585	1201
469.804	1205
470.023	1234
470.243	1259
470.462	1285
470.681	1278
470.901	1237
471.12	1236
471.339	1213
471.558	1182
471.777	1200
471.997	1202
472.216	1215
472.435	1193
472.654	1155
472.873	1146
473.092	1137
473.311	1115
473.53	1125
473.749	1138
473.968	1144
474.187	1142
474.406	1146
474.625	1153
474.844	1116
475.063	1149
475.282	1127
475.501	1147
475.72	1163
475.939	1165
476.158	1199
476.377	1203
476.596	1186
476.814	1184
477.033	1181
477.252	1228
477.471	1256
477.69	1271
477.908	1334
478.127	1388
478.346	1380
478.564	1435
478.783	1387
479.002	1471
479.22	1443
479.439	1433
479.658	1446
479.876	1433
480.095	1488
480.313	1558
480.532	1567
480.751	1552
480.969	1484
481.188	1459
481.406	1361
481.624	1380
481.843	1351
482.061	1329
482.28	1314
482.498	1320
482.717	1297
482.935	1291
483.153	1331
483.372	1313
483.59	1307
483.808	1323
484.027	1304
484.245	1327
484.463	1319
484.681	1358
484.9	1354
485.118	1340
485.336	1345
485.554	1348
485.772	1364
485.99	1385
486.209	1368
486.427	1369
486.645	1400
486.863	1355
487.081	1362
487.299	1366
487.517	1344
487.735	1351
487.953	1356
488.171	1380
488.389	1355
488.607	1324
488.825	1336
489.043	1340
489.261	1351
489.479	1343
489.696	1346
489.914	1350
490.132	1352
490.35	1381
490.568	1375
490.786	1356
491.003	1401
491.221	1369
491.439	1378
491.657	1351
491.874	1414
492.092	1386
492.31	1400
492.527	1404
492.745	1408
492.963	1440
493.18	1434
493.398	1439
493.615	1435
493.833	1452
494.05	1432
494.268	1426
494.485	1450
494.703	1452
494.92	1487
495.138	1471
495.355	1467
495.573	1445
495.79	1536
496.008	1493
496.225	1514
496.442	1499
496.66	1514
496.877	1550
497.094	1569
497.312	1630
497.529	1654
497.746	1682
497.963	1754
498.181	1808
498.398	1897
498.615	2029
498.832	2177
499.049	2326
499.267	2533
499.484	2783
499.701	3115
499.918	3446
500.135	3915
500.352	4483
500.569	4648
500.786	4625
501.003	4308
501.22	3914
501.437	3380
501.654	2941
501.871	2711
502.088	2491
502.305	2288
502.522	2165
502.739	2056
502.956	1971
503.172	1875
503.389	1841
503.606	1735
503.823	1715
504.04	1645
504.256	1696
504.473	1780
504.69	1774
504.907	1752
505.123	1629
505.34	1540
505.557	1488
505.773	1465
505.99	1425
506.207	1410
506.423	1384
506.64	1353
506.856	1323
507.073	1294
507.289	1308
507.506	1331
507.722	1271
507.939	1286
508.155	1284
508.372	1216
508.588	1244
508.805	1249
509.021	1220
509.238	1194
509.454	1192
509.67	1194
509.887	1197
510.103	1193
510.319	1189
510.536	1188
510.752	1177
510.968	1179
511.184	1151
511.401	1193
511.617	1183
511.833	1184
512.049	1158
512.265	1159
512.481	1169
512.698	1173
512.914	1168
513.13	1164
513.346	1195
513.562	1165
513.778	1204
513.994	1174
514.21	1187
514.426	1202
514.642	1171
514.858	1183
515.074	1209
515.29	1266
515.506	1240
515.721	1285
515.937	1269
516.153	1308
516.369	1329
516.585	1376
516.801	1407
517.016	1482
517.232	1533
517.448	1566
517.664	1685
517.879	1693
518.095	1672
518.311	1633
518.527	1567
518.742	1543
518.958	1458
519.173	1381
519.389	1333
519.605	1312
519.82	1295
520.036	1219
520.251	1238
520.467	1233
520.682	1188
520.898	1195
521.113	1185
521.329	1178
521.544	1133
521.76	1181
521.975	1124
522.19	1119
522.406	1120
522.621	1137
522.836	1079
523.052	1113
523.267	1096
523.482	1080
523.698	1091
523.913	1084
524.128	1080
524.343	1091
524.559	1102
524.774	1095
524.989	1067
525.204	1081
525.419	1034
525.634	1052
525.849	1057
526.064	1055
526.28	1050
526.495	1051
526.71	1062
526.925	1060
527.14	1066
527.355	1039
527.57	1062
527.785	1037
527.999	1050
528.214	1035
528.429	1037
528.644	1058
528.859	1054
529.074	1038
529.289	1027
529.503	1046
529.718	1063
529.933	1045
530.148	1027
530.363	1051
530.577	1030
530.792	1016
531.007	1064
531.221	1064
531.436	1018
531.651	1059
531.865	1054
532.08	1068
532.295	1061
532.509	1058
532.724	1059
532.938	1053
533.153	1046
533.367	1024
533.582	1052
533.796	1031
534.011	1019
534.225	1050
534.44	1026
534.654	1029
534.868	1044
535.083	1008
535.297	1020
535.511	964
535.726	1032
535.94	1004
536.154	1004
536.369	967
536.583	949
536.797	984
537.011	995
537.225	961
537.44	963
537.654	944
537.868	958
538.082	984
538.296	958
538.51	921
538.724	947
538.938	961
539.153	945
539.367	964
539.581	924
539.795	959
540.009	951
540.222	951
540.436	911
540.65	897
540.864	913
541.078	945
541.292	940
541.506	943
541.72	923
541.934	964
542.147	939
542.361	914
542.575	939
542.789	899
543.002	946
543.216	923
543.43	905
543.644	921
543.857	930
544.071	935
544.285	911
544.498	926
544.712	937
544.925	945
545.139	948
545.352	950
545.566	946
545.779	953
545.993	949
546.206	927
546.42	956
546.633	954
546.847	968
547.06	924
547.274	972
547.487	967
547.7	965
547.914	962
548.127	962
548.34	988
548.554	980
548.767	964
548.98	969
549.193	961
549.407	961
549.62	987
549.833	1004
550.046	979
550.259	972
550.473	940
550.686	957
550.899	954
551.112	920
551.325	938
551.538	907
551.751	913
551.964	934
552.177	917
552.39	947
552.603	996
552.816	1024
553.029	1058
553.242	1080
553.455	1063
553.667	1073
553.88	1052
554.093	1028
554.306	1008
554.519	983
554.732	953
554.944	959
555.157	928
555.37	885
555.583	902
555.795	848
556.008	844
556.221	818
556.433	835
556.646	832
556.859	851
557.071	809
557.284	808
557.496	798
557.709	845
557.921	819
558.134	823
558.346	806
558.559	804
558.771	786
558.984	807
559.196	793
559.409	787
559.621	785
559.833	742
560.046	773
560.258	788
560.47	791
560.683	756
560.895	788
561.107	776
561.32	768
561.532	773
561.744	761
561.956	788
562.168	782
562.381	754
562.593	760
562.805	760
563.017	783
563.229	800
563.441	780
563.653	789
563.865	803
564.077	807
564.289	779
564.501	801
564.713	834
564.925	858
565.137	890
565.349	863
565.561	888
565.773	961
565.985	981
566.197	1043
566.408	1130
566.62	1221
566.832	1305
567.044	1331
567.255	1322
567.467	1369
567.679	1453
567.891	1545
568.102	1588
568.314	1503
568.526	1363
568.737	1246
568.949	1141
569.161	1030
569.372	938
569.584	891
569.795	888
570.007	853
570.218	793
570.43	807
570.641	790
570.853	815
571.064	816
571.276	820
571.487	805
571.698	748
571.91	722
572.121	726
572.333	690
572.544	704
572.755	672
572.966	661
573.178	672
573.389	696
573.6	645
573.811	637
574.023	653
574.234	637
574.445	642
574.656	638
574.867	648
575.078	646
575.289	647
575.501	614
575.712	613
575.923	615
576.134	620
576.345	617
576.556	604
576.767	581
576.978	588
577.188	581
577.399	577
577.61	580
577.821	577
578.032	581
578.243	573
578.454	572
578.665	549
578.875	577
579.086	563
579.297	546
579.508	550
579.718	553
579.929	565
580.14	563
580.35	528
580.561	553
580.772	557
580.982	529
581.193	525
581.403	525
581.614	543
581.825	551
582.035	538
582.246	552
582.456	520
582.667	519
582.877	538
583.087	545
583.298	513
583.508	548
583.719	550
583.929	499
584.139	513
584.35	512
584.56	508
584.77	529
584.981	515
585.191	500
585.401	523
585.611	513
585.821	525
586.032	528
586.242	515
586.452	507
586.662	490
586.872	507
587.082	499
587.292	514
587.502	497
587.713	510
587.923	522
588.133	500
588.343	512
588.553	498
588.762	505
588.972	503
589.182	506
589.392	512
589.602	489
589.812	530
590.022	521
590.232	511
590.441	519
590.651	519
590.861	504
591.071	515
591.281	514
591.49	540
591.7	551
591.91	537
592.119	562
592.329	575
592.539	597
592.748	613
592.958	610
593.167	647
593.377	661
593.587	665
593.796	658
594.006	671
594.215	671
594.424	669
594.634	666
594.843	623
595.053	620
595.262	591
595.472	565
595.681	560
595.89	537
596.1	517
596.309	514
596.518	489
596.727	484
596.937	486
597.146	476
597.355	457
597.564	467
597.774	461
597.983	435
598.192	438
598.401	427
598.61	445
598.819	450
599.028	436
599.237	413
599.446	424
599.655	430
599.864	421
600.073	424
600.282	413
600.491	415
600.7	422
600.909	408
601.118	418
601.327	402
601.536	400
601.745	421
601.953	414
602.162	410
602.371	419
602.58	410
602.789	403
602.997	419
603.206	394
603.415	403
603.623	395
603.832	379
604.041	396
604.249	386
604.458	399
604.666	401
604.875	386
605.084	390
605.292	393
605.501	369
605.709	383
605.918	372
606.126	388
606.334	359
606.543	391
606.751	380
606.96	388
607.168	372
607.376	378
607.585	373
607.793	372
608.001	360
608.21	379
608.418	365
608.626	395
608.834	375
609.043	359
609.251	371
609.459	377
609.667	377
609.875	356
610.083	372
610.291	371
610.499	362
610.707	371
610.916	366
611.124	374
611.332	374
611.54	376
611.748	342
611.955	355
612.163	355
612.371	346
612.579	362
612.787	354
612.995	340
613.203	373
613.411	358
613.618	373
613.826	352
614.034	343
614.242	351
614.449	340
614.657	349
614.865	351
615.072	365
615.28	348
615.488	332
615.695	337
615.903	341
616.111	344
616.318	376
616.526	346
616.733	345
616.941	329
617.148	339
617.356	335
617.563	365
617.771	348
617.978	358
618.185	363
618.393	359
618.6	358
618.807	356
619.015	356
619.222	356
619.429	336
619.637	342
619.844	345
620.051	362
620.258	351
620.466	331
620.673	321
620.88	312
621.087	344
621.294	318
621.501	322
621.708	300
621.915	311
622.122	334
622.329	340
622.536	329
622.743	327
622.95	315
623.157	298
623.364	336
623.571	327
623.778	315
623.985	309
624.192	299
624.399	288
624.606	305
624.812	311
625.019	312
625.226	310
625.433	315
625.639	300
625.846	308
626.053	299
626.259	307
626.466	301
626.673	282
626.879	287
627.086	308
627.293	293
627.499	295
627.706	304
627.912	295
628.119	300
628.325	281
628.532	299
628.738	292
628.945	289
629.151	288
629.357	284
629.564	275
629.77	283
629.976	283
630.183	290
630.389	276
630.595	277
630.802	272
631.008	264
631.214	260
631.42	272
631.627	259
631.833	265
632.039	269
632.245	258
632.451	269
632.657	277
632.863	264
633.069	275
633.275	268
633.481	295
633.688	267
633.893	266
634.099	276
634.305	258
634.511	271
634.717	247
634.923	260
635.129	261
635.335	252
635.541	243
635.747	273
635.952	247
636.158	259
636.364	237
636.57	244
636.775	243
636.981	249
637.187	242
637.392	243
637.598	244
637.804	247
638.009	235
638.215	256
638.421	247
638.626	240
638.832	247
639.037	236
639.243	239
639.448	232
639.654	253
639.859	240
640.065	234
640.27	242
640.475	257
640.681	245
640.886	234
641.091	223
641.297	232
641.502	217
641.707	230
641.913	241
642.118	228
642.323	229
642.528	225
642.733	235
642.939	212
643.144	222
643.349	219
643.554	219
643.759	228
643.964	218
644.169	234
644.374	217
644.579	224
644.784	208
644.989	206
645.194	222
645.399	228
645.604	207
645.809	240
646.014	201
646.219	212
646.423	215
646.628	207
646.833	230
647.038	205
647.243	224
647.447	216
647.652	248
647.857	228
648.062	235
648.266	232
648.471	225
648.676	238
648.88	239
649.085	224
649.289	222
649.494	234
649.698	208
649.903	203
650.107	223
650.312	208
650.516	198
650.721	201
650.925	209
651.13	187
651.334	210
651.539	199
651.743	195
651.947	180
652.152	186
652.356	173
652.56	185
652.764	171
652.969	163
653.173	166
653.377	171
653.581	181
653.785	169
653.99	175
654.194	167
654.398	165
654.602	160
654.806	181
655.01	163
655.214	150
655.418	154
655.622	160
655.826	161
656.03	174
656.234	154
656.438	148
656.642	160
656.846	158
657.049	131
657.253	145
657.457	142
657.661	139
657.865	111
658.068	132
658.272	132
658.476	119
658.68	107
658.883	103
659.087	102
659.291	98
659.494	120
659.698	112
659.901	125
660.105	112
660.309	106
660.512	109
660.716	95
660.919	92
661.123	114
661.326	97
661.53	95
661.733	96
661.936	92
662.14	90
662.343	99
662.546	85
662.75	83
662.953	91
663.156	83
663.36	98
663.563	92
663.766	96
663.969	75
664.173	97
664.376	85
664.579	84
664.782	87
664.985	79
665.188	87
665.391	85
665.594	85
665.797	78
666	82
666.203	90
666.406	66
666.609	67
666.812	77
667.015	84
667.218	96
667.421	88
667.624	88
667.827	91
668.03	89
668.232	73
668.435	73
668.638	82
668.841	79
669.043	74
669.246	76
669.449	75
669.651	78
669.854	91
670.057	74
670.259	73
670.462	83
670.665	70
670.867	68
671.07	83
671.272	67
671.475	85
671.677	81
671.88	81
672.082	74
672.284	84
672.487	87
672.689	83
672.892	82
