Data from NiCl2@0.5M.TitratingCurve.Agarose3%dH2O.NegLispCup.LampEnergy10.LIBS07252019_HRD10591_18-20-56-571.txt Node
Date: Thu Jul 25 18:20:56 EDT 2019
User: cochatt
Spectrometer: HR+D1059
Trigger mode: 1
Integration Time (sec): 1.000000E-1
Scans to average: 1
Electric dark correction enabled: true
Nonlinearity correction enabled: false
Boxcar width: 0
XAxis mode: Wavelengths
Number of Pixels in Spectrum: 2048
>>>>>Begin Spectral Data<<<<<
223.165	-23
223.4	-23
223.635	-23
223.869	-17
224.104	-16
224.338	-2
224.573	-8
224.808	-18
225.042	-21
225.277	-16
225.511	-22
225.746	2
225.98	8
226.215	20
226.449	30
226.683	14
226.918	32
227.152	37
227.387	30
227.621	23
227.856	43
228.09	42
228.324	42
228.559	46
228.793	70
229.027	114
229.262	128
229.496	120
229.73	148
229.964	152
230.199	139
230.433	152
230.667	144
230.901	153
231.136	166
231.37	176
231.604	158
231.838	158
232.072	166
232.306	183
232.541	166
232.775	162
233.009	151
233.243	158
233.477	183
233.711	172
233.945	166
234.179	166
234.413	167
234.647	177
234.881	180
235.115	180
235.349	176
235.583	184
235.817	192
236.051	162
236.285	172
236.519	180
236.753	176
236.987	201
237.221	180
237.455	182
237.689	195
237.922	178
238.156	206
238.39	195
238.624	186
238.858	192
239.091	193
239.325	208
239.559	207
239.793	213
240.027	221
240.26	204
240.494	208
240.728	196
240.961	237
241.195	211
241.429	213
241.662	219
241.896	241
242.13	234
242.363	231
242.597	236
242.83	220
243.064	250
243.298	238
243.531	229
243.765	231
243.998	250
244.232	245
244.465	267
244.699	261
244.932	247
245.166	259
245.399	259
245.633	267
245.866	254
246.099	249
246.333	260
246.566	270
246.8	277
247.033	273
247.266	272
247.5	268
247.733	278
247.966	270
248.2	294
248.433	295
248.666	279
248.899	296
249.133	290
249.366	306
249.599	302
249.832	290
250.066	291
250.299	312
250.532	314
250.765	306
250.998	296
251.231	302
251.465	292
251.698	315
251.931	311
252.164	309
252.397	316
252.63	294
252.863	329
253.096	332
253.329	319
253.562	338
253.795	327
254.028	335
254.261	333
254.494	313
254.727	331
254.96	336
255.193	341
255.426	334
255.659	340
255.892	351
256.124	345
256.357	358
256.59	341
256.823	339
257.056	356
257.289	372
257.521	366
257.754	345
257.987	357
258.22	368
258.452	366
258.685	373
258.918	378
259.151	370
259.383	362
259.616	374
259.849	380
260.081	371
260.314	397
260.547	378
260.779	382
261.012	387
261.244	399
261.477	390
261.71	390
261.942	385
262.175	412
262.407	387
262.64	405
262.872	408
263.105	386
263.337	408
263.57	424
263.802	434
264.035	400
264.267	397
264.499	410
264.732	422
264.964	419
265.197	415
265.429	423
265.661	425
265.894	428
266.126	412
266.358	434
266.591	436
266.823	440
267.055	448
267.287	442
267.52	438
267.752	443
267.984	435
268.216	458
268.448	461
268.681	465
268.913	449
269.145	459
269.377	449
269.609	460
269.841	466
270.073	463
270.306	465
270.538	479
270.77	466
271.002	465
271.234	470
271.466	474
271.698	470
271.93	484
272.162	503
272.394	478
272.626	483
272.858	487
273.09	498
273.322	487
273.553	498
273.785	481
274.017	484
274.249	514
274.481	504
274.713	494
274.945	518
275.176	500
275.408	497
275.64	523
275.872	518
276.104	500
276.335	534
276.567	505
276.799	529
277.031	538
277.262	544
277.494	544
277.726	523
277.957	535
278.189	528
278.421	534
278.652	522
278.884	541
279.115	534
279.347	552
279.579	568
279.81	551
280.042	547
280.273	585
280.505	552
280.736	562
280.968	549
281.199	550
281.431	584
281.662	560
281.894	573
282.125	582
282.356	583
282.588	610
282.819	592
283.051	578
283.282	575
283.513	583
283.745	593
283.976	579
284.207	593
284.439	586
284.67	602
284.901	608
285.132	596
285.364	611
285.595	615
285.826	615
286.057	629
286.288	622
286.52	626
286.751	633
286.982	624
287.213	611
287.444	619
287.675	617
287.906	626
288.138	613
288.369	644
288.6	652
288.831	636
289.062	639
289.293	672
289.524	645
289.755	626
289.986	634
290.217	634
290.448	651
290.679	652
290.91	683
291.141	657
291.371	645
291.602	658
291.833	652
292.064	659
292.295	673
292.526	656
292.757	652
292.987	662
293.218	636
293.449	664
293.68	654
293.91	671
294.141	653
294.372	649
294.603	665
294.833	650
295.064	662
295.295	698
295.525	648
295.756	671
295.987	679
296.217	677
296.448	677
296.679	680
296.909	677
297.14	695
297.37	682
297.601	698
297.831	692
298.062	710
298.292	719
298.523	730
298.753	727
298.984	711
299.214	729
299.445	697
299.675	699
299.905	687
300.136	704
300.366	746
300.597	732
300.827	737
301.057	764
301.288	800
301.518	755
301.748	755
301.979	755
302.209	770
302.439	748
302.669	758
302.9	728
303.13	744
303.36	750
303.59	745
303.82	764
304.051	783
304.281	760
304.511	750
304.741	739
304.971	767
305.201	786
305.431	770
305.661	738
305.891	740
306.121	754
306.352	732
306.582	730
306.812	731
307.042	750
307.272	731
307.502	721
307.731	746
307.961	738
308.191	751
308.421	723
308.651	758
308.881	748
309.111	713
309.341	730
309.571	767
309.8	741
310.03	739
310.26	754
310.49	768
310.72	758
310.949	757
311.179	758
311.409	775
311.639	778
311.868	772
312.098	776
312.328	777
312.557	780
312.787	788
313.017	790
313.246	788
313.476	819
313.706	827
313.935	820
314.165	809
314.394	788
314.624	799
314.853	799
315.083	823
315.312	811
315.542	818
315.771	782
316.001	814
316.23	776
316.46	805
316.689	795
316.919	818
317.148	810
317.377	814
317.607	795
317.836	804
318.065	795
318.295	773
318.524	807
318.753	797
318.983	808
319.212	808
319.441	805
319.67	803
319.9	790
320.129	800
320.358	798
320.587	788
320.816	800
321.046	811
321.275	815
321.504	784
321.733	797
321.962	795
322.191	821
322.42	842
322.649	826
322.878	810
323.108	815
323.337	818
323.566	807
323.795	842
324.024	826
324.253	833
324.482	854
324.71	838
324.939	849
325.168	850
325.397	851
325.626	839
325.855	882
326.084	855
326.313	884
326.542	889
326.77	882
326.999	860
327.228	864
327.457	859
327.686	856
327.914	864
328.143	862
328.372	888
328.6	880
328.829	887
329.058	896
329.287	883
329.515	890
329.744	881
329.972	887
330.201	883
330.43	892
330.658	908
330.887	895
331.115	882
331.344	924
331.572	922
331.801	952
332.03	953
332.258	991
332.486	988
332.715	1018
332.943	1059
333.172	1063
333.4	1112
333.629	1155
333.857	1134
334.085	1129
334.314	1138
334.542	1120
334.771	1099
334.999	1080
335.227	1075
335.455	1091
335.684	1082
335.912	1052
336.14	1043
336.369	1035
336.597	1032
336.825	1048
337.053	1047
337.281	1031
337.51	1030
337.738	1016
337.966	999
338.194	1018
338.422	981
338.65	954
338.878	975
339.106	933
339.334	961
339.562	987
339.79	937
340.018	929
340.246	918
340.474	926
340.702	918
340.93	898
341.158	935
341.386	936
341.614	973
341.842	954
342.07	902
342.298	909
342.526	946
342.754	900
342.981	892
343.209	948
343.437	986
343.665	1002
343.893	1090
344.12	1102
344.348	1084
344.576	1057
344.804	976
345.031	991
345.259	968
345.487	927
345.714	937
345.942	914
346.17	944
346.397	917
346.625	901
346.853	892
347.08	877
347.308	918
347.535	894
347.763	891
347.99	859
348.218	894
348.445	878
348.673	869
348.9	902
349.128	888
349.355	857
349.583	890
349.81	883
350.037	849
350.265	849
350.492	867
350.72	858
350.947	866
351.174	866
351.402	885
351.629	882
351.856	888
352.083	856
352.311	859
352.538	876
352.765	882
352.992	844
353.22	843
353.447	837
353.674	856
353.901	830
354.128	847
354.355	852
354.583	849
354.81	870
355.037	862
355.264	836
355.491	836
355.718	843
355.945	847
356.172	843
356.399	862
356.626	843
356.853	890
357.08	854
357.307	843
357.534	855
357.761	847
357.988	862
358.215	850
358.441	844
358.668	850
358.895	882
359.122	849
359.349	808
359.576	847
359.802	845
360.029	854
360.256	870
360.483	837
360.709	858
360.936	864
361.163	848
361.39	873
361.616	839
361.843	863
362.07	881
362.296	872
362.523	847
362.749	828
362.976	854
363.203	817
363.429	838
363.656	853
363.882	886
364.109	833
364.335	854
364.562	834
364.788	838
365.015	823
365.241	835
365.468	836
365.694	856
365.92	855
366.147	811
366.373	852
366.599	832
366.826	827
367.052	830
367.278	825
367.505	827
367.731	843
367.957	856
368.184	851
368.41	853
368.636	857
368.862	844
369.089	873
369.315	857
369.541	843
369.767	872
369.993	866
370.219	866
370.445	870
370.672	892
370.898	876
371.124	890
371.35	913
371.576	900
371.802	918
372.028	891
372.254	926
372.48	914
372.706	940
372.932	942
373.158	930
373.384	928
373.61	911
373.835	926
374.061	907
374.287	946
374.513	919
374.739	971
374.965	949
375.191	998
375.416	988
375.642	983
375.868	938
376.094	916
376.319	886
376.545	918
376.771	938
376.997	903
377.222	895
377.448	884
377.674	894
377.899	909
378.125	900
378.35	895
378.576	906
378.802	906
379.027	898
379.253	880
379.478	894
379.704	883
379.929	905
380.155	878
380.38	895
380.606	913
380.831	891
381.057	902
381.282	895
381.507	903
381.733	923
381.958	931
382.184	910
382.409	916
382.634	912
382.86	932
383.085	947
383.31	950
383.535	978
383.761	1018
383.986	948
384.211	1002
384.436	1018
384.662	1036
384.887	1047
385.112	1067
385.337	1072
385.562	1078
385.787	1068
386.013	1112
386.238	1082
386.463	1081
386.688	1071
386.913	1076
387.138	1095
387.363	1078
387.588	1020
387.813	1045
388.038	1052
388.263	1058
388.488	1054
388.713	1055
388.938	1050
389.163	1061
389.387	1033
389.612	1042
389.837	1065
390.062	1049
390.287	1053
390.512	1059
390.736	1026
390.961	1096
391.186	1092
391.411	1132
391.636	1164
391.86	1190
392.085	1241
392.31	1184
392.534	1162
392.759	1136
392.984	1089
393.208	1108
393.433	1123
393.658	1143
393.882	1136
394.107	1110
394.331	1121
394.556	1144
394.78	1113
395.005	1146
395.229	1141
395.454	1182
395.678	1194
395.903	1205
396.127	1179
396.352	1145
396.576	1141
396.801	1155
397.025	1116
397.249	1162
397.474	1187
397.698	1194
397.922	1182
398.147	1198
398.371	1225
398.595	1260
398.82	1324
399.044	1382
399.268	1518
399.492	1758
399.717	1923
399.941	1910
400.165	1708
400.389	1584
400.613	1467
400.837	1406
401.062	1365
401.286	1352
401.51	1330
401.734	1354
401.958	1333
402.182	1354
402.406	1377
402.63	1378
402.854	1417
403.078	1438
403.302	1456
403.526	1494
403.75	1487
403.974	1535
404.198	1519
404.422	1529
404.645	1510
404.869	1482
405.093	1478
405.317	1470
405.541	1465
405.765	1448
405.988	1439
406.212	1477
406.436	1444
406.66	1484
406.883	1472
407.107	1601
407.331	1679
407.555	1720
407.778	1638
408.002	1654
408.226	1609
408.449	1599
408.673	1520
408.896	1446
409.12	1506
409.344	1503
409.567	1468
409.791	1456
410.014	1451
410.238	1466
410.461	1461
410.685	1441
410.908	1426
411.132	1396
411.355	1360
411.578	1340
411.802	1351
412.025	1394
412.249	1408
412.472	1379
412.695	1362
412.919	1323
413.142	1354
413.365	1329
413.589	1356
413.812	1300
414.035	1310
414.258	1316
414.482	1322
414.705	1339
414.928	1330
415.151	1341
415.374	1330
415.597	1332
415.821	1331
416.044	1296
416.267	1294
416.49	1272
416.713	1301
416.936	1310
417.159	1311
417.382	1274
417.605	1299
417.828	1322
418.051	1305
418.274	1315
418.497	1296
418.72	1338
418.943	1303
419.166	1415
419.389	1503
419.611	1436
419.834	1404
420.057	1351
420.28	1317
420.503	1292
420.726	1319
420.948	1239
421.171	1300
421.394	1329
421.617	1276
421.839	1327
422.062	1326
422.285	1291
422.507	1328
422.73	1314
422.953	1322
423.175	1361
423.398	1366
423.621	1370
423.843	1401
424.066	1358
424.288	1366
424.511	1355
424.733	1387
424.956	1315
425.178	1328
425.401	1287
425.623	1298
425.846	1243
426.068	1257
426.291	1266
426.513	1255
426.735	1200
426.958	1212
427.18	1203
427.402	1201
427.625	1218
427.847	1222
428.069	1221
428.292	1190
428.514	1159
428.736	1161
428.958	1188
429.181	1180
429.403	1177
429.625	1177
429.847	1135
430.069	1154
430.292	1185
430.514	1174
430.736	1159
430.958	1154
431.18	1178
431.402	1175
431.624	1176
431.846	1182
432.068	1199
432.29	1198
432.512	1202
432.734	1167
432.956	1158
433.178	1164
433.4	1196
433.622	1179
433.844	1231
434.066	1221
434.287	1215
434.509	1232
434.731	1293
434.953	1298
435.175	1328
435.397	1350
435.618	1227
435.84	1227
436.062	1216
436.284	1164
436.505	1203
436.727	1193
436.949	1193
437.17	1148
437.392	1154
437.614	1134
437.835	1143
438.057	1150
438.278	1107
438.5	1126
438.721	1118
438.943	1136
439.165	1149
439.386	1163
439.608	1160
439.829	1170
440.05	1186
440.272	1191
440.493	1205
440.715	1204
440.936	1243
441.158	1222
441.379	1288
441.6	1321
441.822	1326
442.043	1311
442.264	1299
442.486	1251
442.707	1314
442.928	1287
443.149	1296
443.371	1267
443.592	1364
443.813	1353
444.034	1330
444.255	1371
444.476	1416
444.698	1508
444.919	1546
445.14	1592
445.361	1498
445.582	1364
445.803	1288
446.024	1256
446.245	1240
446.466	1254
446.687	1198
446.908	1184
447.129	1154
447.35	1158
447.571	1152
447.792	1147
448.013	1125
448.234	1094
448.455	1115
448.675	1102
448.896	1100
449.117	1066
449.338	1076
449.559	1078
449.779	1091
450	1052
450.221	1112
450.442	1118
450.662	1086
450.883	1103
451.104	1129
451.324	1098
451.545	1094
451.766	1115
451.986	1093
452.207	1080
452.428	1082
452.648	1084
452.869	1081
453.089	1074
453.31	1096
453.53	1068
453.751	1035
453.971	1037
454.192	1078
454.412	1061
454.633	1026
454.853	1029
455.073	1011
455.294	1027
455.514	1006
455.734	1018
455.955	1009
456.175	1046
456.395	1007
456.616	991
456.836	1021
457.056	995
457.276	1000
457.497	1020
457.717	1022
457.937	1036
458.157	1042
458.377	1075
458.598	1072
458.818	1119
459.038	1106
459.258	1161
459.478	1202
459.698	1243
459.918	1268
460.138	1322
460.358	1375
460.578	1408
460.798	1408
461.018	1392
461.238	1385
461.458	1366
461.678	1342
461.898	1392
462.118	1407
462.338	1489
462.558	1475
462.777	1550
462.997	1658
463.217	1828
463.437	1812
463.657	1649
463.876	1590
464.096	1584
464.316	1594
464.536	1624
464.755	1542
464.975	1506
465.195	1426
465.414	1361
465.634	1291
465.854	1255
466.073	1250
466.293	1191
466.512	1186
466.732	1175
466.951	1144
467.171	1156
467.391	1155
467.61	1173
467.829	1119
468.049	1135
468.268	1096
468.488	1121
468.707	1104
468.927	1170
469.146	1130
469.365	1148
469.585	1124
469.804	1172
470.023	1174
470.243	1188
470.462	1190
470.681	1187
470.901	1200
471.12	1142
471.339	1122
471.558	1129
471.777	1153
471.997	1157
472.216	1131
472.435	1121
472.654	1104
472.873	1076
473.092	1081
473.311	1099
473.53	1106
473.749	1089
473.968	1083
474.187	1068
474.406	1091
474.625	1081
474.844	1105
475.063	1106
475.282	1127
475.501	1132
475.72	1108
475.939	1107
476.158	1155
476.377	1147
476.596	1153
476.814	1165
477.033	1170
477.252	1203
477.471	1220
477.69	1249
477.908	1274
478.127	1270
478.346	1296
478.564	1297
478.783	1336
479.002	1356
479.22	1398
479.439	1393
479.658	1399
479.876	1369
480.095	1383
480.313	1377
480.532	1463
480.751	1447
480.969	1408
481.188	1344
481.406	1341
481.624	1311
481.843	1298
482.061	1256
482.28	1266
482.498	1253
482.717	1233
482.935	1271
483.153	1274
483.372	1318
483.59	1311
483.808	1290
484.027	1288
484.245	1303
484.463	1298
484.681	1314
484.9	1335
485.118	1338
485.336	1284
485.554	1321
485.772	1338
485.99	1315
486.209	1332
486.427	1351
486.645	1316
486.863	1353
487.081	1323
487.299	1324
487.517	1321
487.735	1321
487.953	1354
488.171	1360
488.389	1337
488.607	1322
488.825	1300
489.043	1304
489.261	1330
489.479	1296
489.696	1323
489.914	1317
490.132	1305
490.35	1308
490.568	1316
490.786	1344
491.003	1381
491.221	1332
491.439	1368
491.657	1360
491.874	1372
492.092	1369
492.31	1397
492.527	1376
492.745	1356
492.963	1403
493.18	1387
493.398	1371
493.615	1401
493.833	1386
494.05	1383
494.268	1419
494.485	1390
494.703	1440
494.92	1434
495.138	1372
495.355	1378
495.573	1434
495.79	1427
496.008	1461
496.225	1438
496.442	1464
496.66	1453
496.877	1457
497.094	1499
497.312	1511
497.529	1546
497.746	1602
497.963	1640
498.181	1759
498.398	1795
498.615	1854
498.832	1985
499.049	2075
499.267	2289
499.484	2442
499.701	2673
499.918	2915
500.135	3268
500.352	3735
500.569	3860
500.786	3797
501.003	3539
501.22	3223
501.437	2839
501.654	2587
501.871	2361
502.088	2160
502.305	2047
502.522	1994
502.739	1896
502.956	1855
503.172	1720
503.389	1664
503.606	1641
503.823	1574
504.04	1590
504.256	1562
504.473	1557
504.69	1644
504.907	1639
505.123	1531
505.34	1427
505.557	1367
505.773	1362
505.99	1339
506.207	1290
506.423	1292
506.64	1267
506.856	1271
507.073	1270
507.289	1234
507.506	1215
507.722	1225
507.939	1187
508.155	1176
508.372	1160
508.588	1180
508.805	1181
509.021	1163
509.238	1158
509.454	1169
509.67	1160
509.887	1130
510.103	1121
510.319	1141
510.536	1138
510.752	1120
510.968	1138
511.184	1090
511.401	1088
511.617	1105
511.833	1112
512.049	1121
512.265	1105
512.481	1096
512.698	1093
512.914	1126
513.13	1128
513.346	1119
513.562	1130
513.778	1126
513.994	1091
514.21	1123
514.426	1143
514.642	1118
514.858	1117
515.074	1170
515.29	1164
515.506	1150
515.721	1174
515.937	1209
516.153	1209
516.369	1194
516.585	1248
516.801	1311
517.016	1333
517.232	1400
517.448	1463
517.664	1493
517.879	1494
518.095	1498
518.311	1468
518.527	1388
518.742	1344
518.958	1299
519.173	1282
519.389	1247
519.605	1192
519.82	1186
520.036	1154
520.251	1111
520.467	1142
520.682	1128
520.898	1115
521.113	1077
521.329	1095
521.544	1065
521.76	1051
521.975	1099
522.19	1035
522.406	1063
522.621	1043
522.836	1016
523.052	1035
523.267	996
523.482	1001
523.698	1023
523.913	1002
524.128	1030
524.343	985
524.559	1012
524.774	1018
524.989	998
525.204	1027
525.419	985
525.634	989
525.849	982
526.064	1011
526.28	971
526.495	998
526.71	1014
526.925	974
527.14	947
527.355	965
527.57	982
527.785	985
527.999	971
528.214	987
528.429	982
528.644	980
528.859	1001
529.074	991
529.289	977
529.503	988
529.718	999
529.933	968
530.148	988
530.363	958
530.577	950
530.792	968
531.007	967
531.221	1001
531.436	959
531.651	980
531.865	961
532.08	955
532.295	980
532.509	969
532.724	978
532.938	984
533.153	977
533.367	978
533.582	972
533.796	977
534.011	963
534.225	971
534.44	931
534.654	959
534.868	958
535.083	932
535.297	971
535.511	948
535.726	942
535.94	909
536.154	943
536.369	908
536.583	908
536.797	905
537.011	899
537.225	903
537.44	918
537.654	920
537.868	886
538.082	888
538.296	894
538.51	891
538.724	894
538.938	892
539.153	891
539.367	927
539.581	889
539.795	867
540.009	870
540.222	894
540.436	865
540.65	874
540.864	889
541.078	868
541.292	875
541.506	890
541.72	902
541.934	868
542.147	894
542.361	878
542.575	857
542.789	895
543.002	851
543.216	849
543.43	889
543.644	866
543.857	876
544.071	849
544.285	882
544.498	860
544.712	887
544.925	869
545.139	898
545.352	892
545.566	892
545.779	893
545.993	889
546.206	902
546.42	901
546.633	922
546.847	894
547.06	874
547.274	879
547.487	884
547.7	917
547.914	900
548.127	926
548.34	908
548.554	897
548.767	918
548.98	901
549.193	880
549.407	918
549.62	912
549.833	926
550.046	923
550.259	899
550.473	896
550.686	885
550.899	870
551.112	859
551.325	856
551.538	879
551.751	867
551.964	886
552.177	904
552.39	875
552.603	918
552.816	904
553.029	930
553.242	971
553.455	968
553.667	987
553.88	974
554.093	929
554.306	908
554.519	889
554.732	878
554.944	861
555.157	822
555.37	857
555.583	814
555.795	839
556.008	792
556.221	808
556.433	783
556.646	777
556.859	769
557.071	783
557.284	776
557.496	757
557.709	768
557.921	780
558.134	761
558.346	764
558.559	750
558.771	753
558.984	738
559.196	735
559.409	760
559.621	743
559.833	726
560.046	728
560.258	730
560.47	731
560.683	739
560.895	743
561.107	728
561.32	722
561.532	755
561.744	752
561.956	745
562.168	715
562.381	738
562.593	750
562.805	738
563.017	735
563.229	736
563.441	714
563.653	726
563.865	769
564.077	743
564.289	744
564.501	787
564.713	772
564.925	798
565.137	811
565.349	812
565.561	835
565.773	859
565.985	910
566.197	932
566.408	979
566.62	1078
566.832	1117
567.044	1148
567.255	1146
567.467	1162
567.679	1210
567.891	1326
568.102	1333
568.314	1285
568.526	1140
568.737	1055
568.949	981
569.161	899
569.372	840
569.584	821
569.795	795
570.007	779
570.218	728
570.43	729
570.641	726
570.853	739
571.064	763
571.276	732
571.487	730
571.698	709
571.91	686
572.121	673
572.333	669
572.544	644
572.755	628
572.966	620
573.178	622
573.389	609
573.6	610
573.811	600
574.023	622
574.234	605
574.445	595
574.656	593
574.867	602
575.078	589
575.289	608
575.501	577
575.712	565
575.923	578
576.134	593
576.345	575
576.556	580
576.767	541
576.978	545
577.188	550
577.399	551
577.61	563
577.821	549
578.032	549
578.243	550
578.454	538
578.665	541
578.875	534
579.086	521
579.297	523
579.508	521
579.718	500
579.929	526
580.14	526
580.35	497
580.561	506
580.772	500
580.982	499
581.193	512
581.403	507
581.614	510
581.825	499
582.035	518
582.246	485
582.456	506
582.667	499
582.877	502
583.087	494
583.298	478
583.508	472
583.719	490
583.929	505
584.139	501
584.35	479
584.56	493
584.77	472
584.981	474
585.191	491
585.401	469
585.611	467
585.821	485
586.032	490
586.242	482
586.452	476
586.662	468
586.872	471
587.082	472
587.292	460
587.502	475
587.713	464
587.923	465
588.133	476
588.343	479
588.553	481
588.762	469
588.972	484
589.182	540
589.392	518
589.602	473
589.812	508
590.022	491
590.232	453
590.441	479
590.651	491
590.861	457
591.071	479
591.281	491
591.49	493
591.7	506
591.91	519
592.119	501
592.329	516
592.539	522
592.748	553
592.958	562
593.167	561
593.377	584
593.587	587
593.796	586
594.006	587
594.215	596
594.424	599
594.634	577
594.843	562
595.053	539
595.262	526
595.472	520
595.681	479
595.89	475
596.1	473
596.309	473
596.518	455
596.727	450
596.937	446
597.146	421
597.355	414
597.564	396
597.774	410
597.983	406
598.192	402
598.401	434
598.61	412
598.819	410
599.028	400
599.237	388
599.446	404
599.655	392
599.864	408
600.073	384
600.282	390
600.491	391
600.7	392
600.909	401
601.118	377
601.327	369
601.536	385
601.745	391
601.953	374
602.162	353
602.371	378
602.58	374
602.789	369
602.997	363
603.206	375
603.415	369
603.623	369
603.832	377
604.041	379
604.249	374
604.458	363
604.666	371
604.875	371
605.084	373
605.292	349
605.501	362
605.709	367
605.918	380
606.126	362
606.334	361
606.543	353
606.751	358
606.96	359
607.168	354
607.376	341
607.585	346
607.793	367
608.001	356
608.21	372
608.418	353
608.626	340
608.834	347
609.043	353
609.251	361
609.459	366
609.667	348
609.875	349
610.083	327
610.291	359
610.499	339
610.707	355
610.916	337
611.124	327
611.332	338
611.54	344
611.748	326
611.955	343
612.163	350
612.371	340
612.579	335
612.787	336
612.995	326
613.203	347
613.411	329
613.618	338
613.826	336
614.034	346
614.242	333
614.449	331
614.657	348
614.865	328
615.072	339
615.28	326
615.488	321
615.695	324
615.903	316
616.111	331
616.318	315
616.526	350
616.733	340
616.941	313
617.148	328
617.356	331
617.563	322
617.771	316
617.978	323
618.185	326
618.393	328
618.6	330
618.807	331
619.015	332
619.222	299
619.429	308
619.637	330
619.844	311
620.051	310
620.258	315
620.466	306
620.673	296
620.88	306
621.087	291
621.294	276
621.501	298
621.708	310
621.915	302
622.122	292
622.329	295
622.536	298
622.743	297
622.95	287
623.157	305
623.364	295
623.571	280
623.778	282
623.985	302
624.192	297
624.399	294
624.606	306
624.812	302
625.019	287
625.226	286
625.433	285
625.639	298
625.846	297
626.053	284
626.259	273
626.466	278
626.673	274
626.879	274
627.086	276
627.293	291
627.499	296
627.706	294
627.912	276
628.119	265
628.325	282
628.532	274
628.738	258
628.945	273
629.151	261
629.357	263
629.564	274
629.77	262
629.976	274
630.183	267
630.389	267
630.595	259
630.802	262
631.008	266
631.214	262
631.42	260
631.627	262
631.833	263
632.039	234
632.245	223
632.451	263
632.657	268
632.863	252
633.069	254
633.275	262
633.481	243
633.688	221
633.893	242
634.099	250
634.305	233
634.511	242
634.717	235
634.923	260
635.129	249
635.335	233
635.541	245
635.747	223
635.952	235
636.158	240
636.364	235
636.57	232
636.775	254
636.981	219
637.187	217
637.392	236
637.598	235
637.804	234
638.009	240
638.215	247
638.421	242
638.626	226
638.832	232
639.037	224
639.243	236
639.448	232
639.654	228
639.859	222
640.065	223
640.27	241
640.475	246
640.681	214
640.886	220
641.091	222
641.297	211
641.502	217
641.707	227
641.913	216
642.118	228
642.323	222
642.528	215
642.733	223
642.939	243
643.144	230
643.349	221
643.554	220
643.759	214
643.964	224
644.169	212
644.374	211
644.579	216
644.784	221
644.989	216
645.194	222
645.399	212
645.604	212
645.809	218
646.014	239
646.219	219
646.423	239
646.628	234
646.833	233
647.038	221
647.243	218
647.447	225
647.652	238
647.857	236
648.062	224
648.266	224
648.471	245
648.676	224
648.88	229
649.085	242
649.289	230
649.494	229
649.698	226
649.903	216
650.107	229
650.312	198
650.516	206
650.721	203
650.925	204
651.13	196
651.334	213
651.539	194
651.743	200
651.947	201
652.152	206
652.356	179
652.56	195
652.764	195
652.969	210
653.173	188
653.377	199
653.581	186
653.785	186
653.99	200
654.194	184
654.398	183
654.602	203
654.806	181
655.01	192
655.214	194
655.418	183
655.622	182
655.826	186
656.03	167
656.234	176
656.438	188
656.642	181
656.846	180
657.049	178
657.253	159
657.457	170
657.661	153
657.865	158
658.068	150
658.272	159
658.476	138
658.68	123
658.883	112
659.087	131
659.291	105
659.494	121
659.698	110
659.901	125
660.105	111
660.309	114
660.512	106
660.716	102
660.919	103
661.123	92
661.326	99
661.53	98
661.733	111
661.936	83
662.14	80
662.343	93
662.546	88
662.75	91
662.953	87
663.156	94
663.36	75
663.563	87
663.766	73
663.969	78
664.173	80
664.376	79
664.579	76
664.782	76
664.985	81
665.188	87
665.391	75
665.594	84
665.797	81
666	75
666.203	82
666.406	75
666.609	81
666.812	81
667.015	76
667.218	66
667.421	88
667.624	85
667.827	85
668.03	77
668.232	67
668.435	81
668.638	91
668.841	74
669.043	68
669.246	76
669.449	83
669.651	75
669.854	82
670.057	80
670.259	87
670.462	93
670.665	95
670.867	85
671.07	72
671.272	88
671.475	83
671.677	88
671.88	62
672.082	69
672.284	86
672.487	65
672.689	84
672.892	91
