Data from NiCl2@0.0625M.TitratingCurve.Agarose3%dH2O.NegLispCup.LampEnergy10.LIBS07252019_HRD10591_18-33-42-576.txt Node
Date: Thu Jul 25 18:33:42 EDT 2019
User: cochatt
Spectrometer: HR+D1059
Trigger mode: 1
Integration Time (sec): 1.000000E-1
Scans to average: 1
Electric dark correction enabled: true
Nonlinearity correction enabled: false
Boxcar width: 0
XAxis mode: Wavelengths
Number of Pixels in Spectrum: 2048
>>>>>Begin Spectral Data<<<<<
223.165	-13
223.4	-13
223.635	-13
223.869	-28
224.104	-9
224.338	-29
224.573	-2
224.808	-8
225.042	-20
225.277	2
225.511	-11
225.746	11
225.98	3
226.215	8
226.449	19
226.683	18
226.918	24
227.152	35
227.387	32
227.621	38
227.856	48
228.09	72
228.324	66
228.559	53
228.793	82
229.027	157
229.262	140
229.496	155
229.73	159
229.964	186
230.199	195
230.433	174
230.667	182
230.901	197
231.136	182
231.37	190
231.604	196
231.838	207
232.072	192
232.306	200
232.541	205
232.775	208
233.009	212
233.243	209
233.477	214
233.711	209
233.945	204
234.179	211
234.413	214
234.647	221
234.881	209
235.115	221
235.349	207
235.583	215
235.817	215
236.051	207
236.285	228
236.519	229
236.753	215
236.987	232
237.221	217
237.455	235
237.689	246
237.922	228
238.156	244
238.39	240
238.624	240
238.858	251
239.091	233
239.325	270
239.559	253
239.793	258
240.027	272
240.26	250
240.494	269
240.728	263
240.961	280
241.195	284
241.429	278
241.662	296
241.896	306
242.13	292
242.363	291
242.597	301
242.83	299
243.064	297
243.298	314
243.531	303
243.765	328
243.998	322
244.232	325
244.465	335
244.699	316
244.932	340
245.166	322
245.399	336
245.633	348
245.866	340
246.099	348
246.333	348
246.566	332
246.8	363
247.033	343
247.266	358
247.5	359
247.733	363
247.966	384
248.2	406
248.433	373
248.666	378
248.899	376
249.133	367
249.366	384
249.599	396
249.832	386
250.066	401
250.299	366
250.532	408
250.765	406
250.998	396
251.231	407
251.465	407
251.698	444
251.931	430
252.164	424
252.397	460
252.63	420
252.863	444
253.096	434
253.329	441
253.562	446
253.795	435
254.028	458
254.261	455
254.494	452
254.727	444
254.96	445
255.193	458
255.426	459
255.659	477
255.892	462
256.124	455
256.357	458
256.59	464
256.823	468
257.056	473
257.289	483
257.521	484
257.754	460
257.987	476
258.22	489
258.452	499
258.685	487
258.918	500
259.151	508
259.383	500
259.616	508
259.849	516
260.081	510
260.314	518
260.547	524
260.779	522
261.012	512
261.244	529
261.477	534
261.71	536
261.942	543
262.175	555
262.407	539
262.64	551
262.872	533
263.105	551
263.337	546
263.57	525
263.802	573
264.035	558
264.267	590
264.499	550
264.732	568
264.964	582
265.197	574
265.429	582
265.661	590
265.894	589
266.126	591
266.358	584
266.591	593
266.823	586
267.055	594
267.287	605
267.52	614
267.752	611
267.984	596
268.216	602
268.448	622
268.681	633
268.913	627
269.145	616
269.377	661
269.609	632
269.841	628
270.073	623
270.306	616
270.538	617
270.77	622
271.002	618
271.234	644
271.466	632
271.698	643
271.93	635
272.162	650
272.394	656
272.626	663
272.858	669
273.09	669
273.322	671
273.553	676
273.785	657
274.017	670
274.249	710
274.481	671
274.713	694
274.945	726
275.176	707
275.408	698
275.64	702
275.872	678
276.104	702
276.335	688
276.567	703
276.799	716
277.031	712
277.262	720
277.494	726
277.726	720
277.957	731
278.189	733
278.421	724
278.652	738
278.884	738
279.115	740
279.347	726
279.579	781
279.81	728
280.042	742
280.273	761
280.505	780
280.736	742
280.968	758
281.199	746
281.431	766
281.662	770
281.894	787
282.125	794
282.356	810
282.588	786
282.819	784
283.051	799
283.282	798
283.513	806
283.745	798
283.976	817
284.207	814
284.439	823
284.67	826
284.901	842
285.132	818
285.364	823
285.595	834
285.826	834
286.057	859
286.288	825
286.52	835
286.751	855
286.982	868
287.213	844
287.444	852
287.675	876
287.906	890
288.138	884
288.369	886
288.6	902
288.831	874
289.062	859
289.293	902
289.524	884
289.755	892
289.986	883
290.217	874
290.448	896
290.679	872
290.91	878
291.141	872
291.371	858
291.602	884
291.833	888
292.064	878
292.295	874
292.526	877
292.757	892
292.987	884
293.218	862
293.449	884
293.68	883
293.91	906
294.141	896
294.372	896
294.603	912
294.833	911
295.064	911
295.295	921
295.525	872
295.756	901
295.987	889
296.217	935
296.448	930
296.679	956
296.909	914
297.14	942
297.37	920
297.601	940
297.831	933
298.062	942
298.292	956
298.523	966
298.753	990
298.984	960
299.214	964
299.445	967
299.675	965
299.905	971
300.136	962
300.366	983
300.597	1009
300.827	988
301.057	996
301.288	1017
301.518	1015
301.748	1028
301.979	1033
302.209	1039
302.439	1020
302.669	1037
302.9	1042
303.13	1003
303.36	1029
303.59	1045
303.82	1020
304.051	1021
304.281	1011
304.511	1019
304.741	987
304.971	1023
305.201	1005
305.431	1018
305.661	1007
305.891	1002
306.121	999
306.352	1004
306.582	982
306.812	1004
307.042	1003
307.272	1029
307.502	1024
307.731	981
307.961	980
308.191	992
308.421	1020
308.651	1015
308.881	996
309.111	1007
309.341	1018
309.571	1041
309.8	1036
310.03	1039
310.26	1046
310.49	1024
310.72	1027
310.949	1024
311.179	1015
311.409	1051
311.639	1007
311.868	1040
312.098	1034
312.328	1045
312.557	1052
312.787	1058
313.017	1026
313.246	1068
313.476	1054
313.706	1093
313.935	1089
314.165	1076
314.394	1088
314.624	1124
314.853	1080
315.083	1086
315.312	1112
315.542	1064
315.771	1082
316.001	1098
316.23	1076
316.46	1073
316.689	1099
316.919	1077
317.148	1072
317.377	1080
317.607	1043
317.836	1052
318.065	1090
318.295	1071
318.524	1057
318.753	1048
318.983	1060
319.212	1060
319.441	1059
319.67	1075
319.9	1088
320.129	1101
320.358	1047
320.587	1081
320.816	1109
321.046	1099
321.275	1076
321.504	1089
321.733	1091
321.962	1093
322.191	1100
322.42	1113
322.649	1104
322.878	1079
323.108	1085
323.337	1108
323.566	1096
323.795	1113
324.024	1103
324.253	1123
324.482	1095
324.71	1135
324.939	1123
325.168	1151
325.397	1119
325.626	1154
325.855	1178
326.084	1197
326.313	1179
326.542	1154
326.77	1183
326.999	1196
327.228	1192
327.457	1153
327.686	1174
327.914	1151
328.143	1162
328.372	1178
328.6	1186
328.829	1154
329.058	1182
329.287	1152
329.515	1181
329.744	1213
329.972	1252
330.201	1206
330.43	1189
330.658	1213
330.887	1206
331.115	1250
331.344	1249
331.572	1257
331.801	1268
332.03	1274
332.258	1293
332.486	1309
332.715	1367
332.943	1407
333.172	1445
333.4	1492
333.629	1528
333.857	1520
334.085	1519
334.314	1491
334.542	1519
334.771	1468
334.999	1470
335.227	1474
335.455	1466
335.684	1452
335.912	1428
336.14	1454
336.369	1432
336.597	1400
336.825	1440
337.053	1405
337.281	1385
337.51	1370
337.738	1383
337.966	1326
338.194	1299
338.422	1283
338.65	1291
338.878	1315
339.106	1268
339.334	1304
339.562	1273
339.79	1249
340.018	1222
340.246	1223
340.474	1236
340.702	1218
340.93	1262
341.158	1238
341.386	1241
341.614	1246
341.842	1246
342.07	1205
342.298	1231
342.526	1247
342.754	1234
342.981	1238
343.209	1248
343.437	1309
343.665	1323
343.893	1403
344.12	1493
344.348	1433
344.576	1378
344.804	1321
345.031	1269
345.259	1288
345.487	1256
345.714	1227
345.942	1244
346.17	1227
346.397	1190
346.625	1202
346.853	1196
347.08	1215
347.308	1175
347.535	1160
347.763	1186
347.99	1215
348.218	1172
348.445	1157
348.673	1147
348.9	1170
349.128	1166
349.355	1178
349.583	1182
349.81	1182
350.037	1139
350.265	1166
350.492	1159
350.72	1160
350.947	1142
351.174	1130
351.402	1165
351.629	1158
351.856	1141
352.083	1131
352.311	1142
352.538	1124
352.765	1177
352.992	1136
353.22	1159
353.447	1143
353.674	1140
353.901	1152
354.128	1134
354.355	1126
354.583	1145
354.81	1144
355.037	1156
355.264	1153
355.491	1131
355.718	1146
355.945	1156
356.172	1154
356.399	1112
356.626	1174
356.853	1134
357.08	1131
357.307	1147
357.534	1161
357.761	1160
357.988	1177
358.215	1148
358.441	1109
358.668	1138
358.895	1146
359.122	1157
359.349	1154
359.576	1152
359.802	1171
360.029	1154
360.256	1142
360.483	1163
360.709	1160
360.936	1172
361.163	1158
361.39	1154
361.616	1148
361.843	1160
362.07	1150
362.296	1145
362.523	1157
362.749	1157
362.976	1158
363.203	1148
363.429	1136
363.656	1147
363.882	1135
364.109	1156
364.335	1159
364.562	1151
364.788	1130
365.015	1138
365.241	1146
365.468	1134
365.694	1172
365.92	1147
366.147	1167
366.373	1133
366.599	1150
366.826	1133
367.052	1112
367.278	1146
367.505	1186
367.731	1157
367.957	1171
368.184	1158
368.41	1171
368.636	1180
368.862	1178
369.089	1187
369.315	1158
369.541	1172
369.767	1199
369.993	1207
370.219	1176
370.445	1244
370.672	1206
370.898	1226
371.124	1246
371.35	1237
371.576	1248
371.802	1267
372.028	1231
372.254	1242
372.48	1267
372.706	1274
372.932	1291
373.158	1268
373.384	1259
373.61	1262
373.835	1273
374.061	1259
374.287	1283
374.513	1320
374.739	1344
374.965	1389
375.191	1375
375.416	1364
375.642	1358
375.868	1319
376.094	1285
376.319	1288
376.545	1284
376.771	1264
376.997	1240
377.222	1247
377.448	1208
377.674	1259
377.899	1218
378.125	1227
378.35	1254
378.576	1230
378.802	1226
379.027	1234
379.253	1247
379.478	1231
379.704	1210
379.929	1240
380.155	1230
380.38	1204
380.606	1230
380.831	1224
381.057	1244
381.282	1255
381.507	1224
381.733	1274
381.958	1258
382.184	1259
382.409	1296
382.634	1277
382.86	1305
383.085	1306
383.31	1343
383.535	1332
383.761	1356
383.986	1368
384.211	1384
384.436	1414
384.662	1445
384.887	1427
385.112	1441
385.337	1463
385.562	1448
385.787	1477
386.013	1495
386.238	1498
386.463	1478
386.688	1536
386.913	1485
387.138	1448
387.363	1505
387.588	1469
387.813	1476
388.038	1470
388.263	1470
388.488	1495
388.713	1497
388.938	1473
389.163	1464
389.387	1518
389.612	1443
389.837	1439
390.062	1516
390.287	1466
390.512	1468
390.736	1486
390.961	1535
391.186	1536
391.411	1620
391.636	1577
391.86	1641
392.085	1619
392.31	1625
392.534	1627
392.759	1636
392.984	1588
393.208	1581
393.433	1596
393.658	1591
393.882	1578
394.107	1561
394.331	1571
394.556	1553
394.78	1627
395.005	1643
395.229	1617
395.454	1631
395.678	1688
395.903	1639
396.127	1624
396.352	1630
396.576	1600
396.801	1580
397.025	1608
397.249	1663
397.474	1683
397.698	1688
397.922	1676
398.147	1635
398.371	1700
398.595	1743
398.82	1811
399.044	1916
399.268	2089
399.492	2334
399.717	2572
399.941	2522
400.165	2421
400.389	2192
400.613	2063
400.837	1968
401.062	1879
401.286	1895
401.51	1832
401.734	1829
401.958	1852
402.182	1850
402.406	1858
402.63	1903
402.854	1906
403.078	1906
403.302	1968
403.526	1975
403.75	1989
403.974	2020
404.198	1992
404.422	2044
404.645	2017
404.869	2034
405.093	2013
405.317	1984
405.541	1962
405.765	1979
405.988	1992
406.212	2028
406.436	2013
406.66	2079
406.883	2086
407.107	2178
407.331	2248
407.555	2325
407.778	2290
408.002	2276
408.226	2222
408.449	2184
408.673	2087
408.896	2084
409.12	2034
409.344	2052
409.567	2066
409.791	2070
410.014	2017
410.238	1981
410.461	2024
410.685	1978
410.908	1976
411.132	1986
411.355	1903
411.578	1926
411.802	1924
412.025	1926
412.249	1930
412.472	1954
412.695	1894
412.919	1871
413.142	1851
413.365	1818
413.589	1858
413.812	1845
414.035	1822
414.258	1822
414.482	1822
414.705	1871
414.928	1823
415.151	1843
415.374	1866
415.597	1805
415.821	1781
416.044	1788
416.267	1752
416.49	1788
416.713	1759
416.936	1799
417.159	1742
417.382	1749
417.605	1726
417.828	1774
418.051	1757
418.274	1720
418.497	1759
418.72	1806
418.943	1823
419.166	1915
419.389	2032
419.611	1980
419.834	1915
420.057	1898
420.28	1804
420.503	1714
420.726	1722
420.948	1791
421.171	1771
421.394	1746
421.617	1755
421.839	1776
422.062	1808
422.285	1756
422.507	1799
422.73	1810
422.953	1852
423.175	1805
423.398	1875
423.621	1787
423.843	1823
424.066	1795
424.288	1823
424.511	1844
424.733	1812
424.956	1735
425.178	1798
425.401	1789
425.623	1782
425.846	1720
426.068	1737
426.291	1736
426.513	1706
426.735	1658
426.958	1667
427.18	1647
427.402	1713
427.625	1653
427.847	1624
428.069	1613
428.292	1642
428.514	1618
428.736	1579
428.958	1648
429.181	1603
429.403	1558
429.625	1579
429.847	1579
430.069	1593
430.292	1610
430.514	1596
430.736	1590
430.958	1603
431.18	1624
431.402	1582
431.624	1606
431.846	1643
432.068	1630
432.29	1672
432.512	1650
432.734	1629
432.956	1592
433.178	1614
433.4	1615
433.622	1676
433.844	1681
434.066	1668
434.287	1686
434.509	1705
434.731	1769
434.953	1806
435.175	1800
435.397	1809
435.618	1730
435.84	1686
436.062	1646
436.284	1640
436.505	1644
436.727	1604
436.949	1600
437.17	1633
437.392	1584
437.614	1610
437.835	1564
438.057	1558
438.278	1550
438.5	1547
438.721	1528
438.943	1543
439.165	1513
439.386	1550
439.608	1592
439.829	1613
440.05	1592
440.272	1580
440.493	1601
440.715	1607
440.936	1636
441.158	1664
441.379	1688
441.6	1767
441.822	1737
442.043	1769
442.264	1700
442.486	1685
442.707	1726
442.928	1727
443.149	1735
443.371	1714
443.592	1735
443.813	1775
444.034	1759
444.255	1794
444.476	1868
444.698	1943
444.919	2034
445.14	2106
445.361	1951
445.582	1794
445.803	1767
446.024	1701
446.245	1677
446.466	1664
446.687	1562
446.908	1570
447.129	1528
447.35	1510
447.571	1531
447.792	1489
448.013	1479
448.234	1485
448.455	1481
448.675	1440
448.896	1471
449.117	1422
449.338	1406
449.559	1423
449.779	1451
450	1424
450.221	1448
450.442	1432
450.662	1450
450.883	1412
451.104	1453
451.324	1470
451.545	1440
451.766	1422
451.986	1395
452.207	1409
452.428	1401
452.648	1410
452.869	1376
453.089	1386
453.31	1402
453.53	1373
453.751	1387
453.971	1398
454.192	1357
454.412	1347
454.633	1357
454.853	1357
455.073	1354
455.294	1347
455.514	1360
455.734	1332
455.955	1330
456.175	1323
456.395	1328
456.616	1324
456.836	1351
457.056	1364
457.276	1347
457.497	1361
457.717	1374
457.937	1380
458.157	1387
458.377	1387
458.598	1456
458.818	1443
459.038	1496
459.258	1505
459.478	1600
459.698	1612
459.918	1661
460.138	1706
460.358	1764
460.578	1762
460.798	1824
461.018	1814
461.238	1827
461.458	1784
461.678	1790
461.898	1832
462.118	1814
462.338	1903
462.558	1997
462.777	2034
462.997	2156
463.217	2317
463.437	2279
463.657	2186
463.876	2120
464.096	2082
464.316	2044
464.536	2088
464.755	2029
464.975	1982
465.195	1861
465.414	1811
465.634	1688
465.854	1684
466.073	1618
466.293	1625
466.512	1539
466.732	1550
466.951	1539
467.171	1553
467.391	1529
467.61	1527
467.829	1479
468.049	1474
468.268	1443
468.488	1438
468.707	1442
468.927	1431
469.146	1445
469.365	1471
469.585	1524
469.804	1544
470.023	1514
470.243	1578
470.462	1526
470.681	1537
470.901	1576
471.12	1501
471.339	1532
471.558	1486
471.777	1453
471.997	1462
472.216	1493
472.435	1464
472.654	1441
472.873	1430
473.092	1433
473.311	1470
473.53	1478
473.749	1436
473.968	1447
474.187	1432
474.406	1445
474.625	1436
474.844	1454
475.063	1470
475.282	1464
475.501	1481
475.72	1484
475.939	1465
476.158	1541
476.377	1538
476.596	1534
476.814	1545
477.033	1554
477.252	1552
477.471	1626
477.69	1671
477.908	1626
478.127	1709
478.346	1692
478.564	1746
478.783	1749
479.002	1790
479.22	1814
479.439	1835
479.658	1804
479.876	1818
480.095	1852
480.313	1909
480.532	1934
480.751	1945
480.969	1893
481.188	1838
481.406	1822
481.624	1771
481.843	1789
482.061	1755
482.28	1751
482.498	1755
482.717	1732
482.935	1784
483.153	1791
483.372	1796
483.59	1849
483.808	1831
484.027	1820
484.245	1837
484.463	1835
484.681	1871
484.9	1907
485.118	1899
485.336	1900
485.554	1958
485.772	1946
485.99	1925
486.209	1914
486.427	1913
486.645	1964
486.863	2006
487.081	1913
487.299	1948
487.517	1915
487.735	1918
487.953	1900
488.171	1887
488.389	1870
488.607	1851
488.825	1834
489.043	1834
489.261	1881
489.479	1857
489.696	1856
489.914	1829
490.132	1830
490.35	1839
490.568	1823
490.786	1854
491.003	1868
491.221	1824
491.439	1831
491.657	1803
491.874	1850
492.092	1843
492.31	1847
492.527	1856
492.745	1817
492.963	1837
493.18	1809
493.398	1833
493.615	1840
493.833	1859
494.05	1840
494.268	1867
494.485	1823
494.703	1859
494.92	1882
495.138	1843
495.355	1825
495.573	1852
495.79	1841
496.008	1926
496.225	1900
496.442	1899
496.66	1925
496.877	1924
497.094	1993
497.312	1977
497.529	2037
497.746	2081
497.963	2176
498.181	2263
498.398	2306
498.615	2445
498.832	2552
499.049	2724
499.267	2907
499.484	3113
499.701	3459
499.918	3700
500.135	4116
500.352	4508
500.569	4636
500.786	4671
501.003	4364
501.22	3974
501.437	3650
501.654	3301
501.871	3126
502.088	2808
502.305	2695
502.522	2530
502.739	2454
502.956	2388
503.172	2275
503.389	2222
503.606	2122
503.823	2121
504.04	2111
504.256	2101
504.473	2082
504.69	2046
504.907	2066
505.123	1966
505.34	1877
505.557	1838
505.773	1792
505.99	1756
506.207	1695
506.423	1627
506.64	1656
506.856	1618
507.073	1590
507.289	1589
507.506	1624
507.722	1559
507.939	1580
508.155	1525
508.372	1551
508.588	1526
508.805	1543
509.021	1531
509.238	1498
509.454	1496
509.67	1486
509.887	1483
510.103	1477
510.319	1472
510.536	1462
510.752	1428
510.968	1432
511.184	1445
511.401	1475
511.617	1456
511.833	1423
512.049	1417
512.265	1451
512.481	1447
512.698	1437
512.914	1437
513.13	1443
513.346	1437
513.562	1434
513.778	1471
513.994	1482
514.21	1459
514.426	1469
514.642	1463
514.858	1480
515.074	1451
515.29	1509
515.506	1529
515.721	1568
515.937	1585
516.153	1589
516.369	1606
516.585	1623
516.801	1694
517.016	1725
517.232	1816
517.448	1848
517.664	1895
517.879	1886
518.095	1861
518.311	1916
518.527	1824
518.742	1783
518.958	1702
519.173	1641
519.389	1646
519.605	1569
519.82	1496
520.036	1534
520.251	1470
520.467	1442
520.682	1418
520.898	1434
521.113	1405
521.329	1385
521.544	1427
521.76	1394
521.975	1376
522.19	1381
522.406	1394
522.621	1339
522.836	1341
523.052	1358
523.267	1309
523.482	1340
523.698	1328
523.913	1315
524.128	1328
524.343	1331
524.559	1288
524.774	1307
524.989	1288
525.204	1332
525.419	1304
525.634	1291
525.849	1287
526.064	1295
526.28	1264
526.495	1272
526.71	1322
526.925	1271
527.14	1295
527.355	1245
527.57	1256
527.785	1270
527.999	1258
528.214	1298
528.429	1297
528.644	1300
528.859	1287
529.074	1285
529.289	1294
529.503	1268
529.718	1271
529.933	1245
530.148	1286
530.363	1259
530.577	1275
530.792	1250
531.007	1239
531.221	1251
531.436	1241
531.651	1235
531.865	1246
532.08	1255
532.295	1261
532.509	1268
532.724	1252
532.938	1280
533.153	1284
533.367	1244
533.582	1222
533.796	1230
534.011	1233
534.225	1242
534.44	1238
534.654	1239
534.868	1228
535.083	1237
535.297	1183
535.511	1223
535.726	1222
535.94	1231
536.154	1184
536.369	1178
536.583	1182
536.797	1168
537.011	1155
537.225	1155
537.44	1171
537.654	1187
537.868	1163
538.082	1138
538.296	1168
538.51	1161
538.724	1147
538.938	1166
539.153	1131
539.367	1108
539.581	1126
539.795	1084
540.009	1135
540.222	1128
540.436	1105
540.65	1099
540.864	1146
541.078	1126
541.292	1096
541.506	1111
541.72	1115
541.934	1086
542.147	1119
542.361	1129
542.575	1098
542.789	1107
543.002	1078
543.216	1096
543.43	1109
543.644	1098
543.857	1132
544.071	1120
544.285	1108
544.498	1123
544.712	1119
544.925	1136
545.139	1120
545.352	1123
545.566	1109
545.779	1130
545.993	1101
546.206	1138
546.42	1111
546.633	1110
546.847	1107
547.06	1134
547.274	1096
547.487	1121
547.7	1132
547.914	1125
548.127	1154
548.34	1171
548.554	1141
548.767	1123
548.98	1113
549.193	1147
549.407	1141
549.62	1153
549.833	1152
550.046	1153
550.259	1141
550.473	1114
550.686	1132
550.899	1098
551.112	1124
551.325	1116
551.538	1111
551.751	1098
551.964	1126
552.177	1128
552.39	1113
552.603	1149
552.816	1182
553.029	1180
553.242	1210
553.455	1210
553.667	1205
553.88	1182
554.093	1150
554.306	1144
554.519	1164
554.732	1106
554.944	1106
555.157	1078
555.37	1071
555.583	1054
555.795	1048
556.008	1011
556.221	1004
556.433	1004
556.646	977
556.859	983
557.071	994
557.284	971
557.496	986
557.709	1001
557.921	958
558.134	939
558.346	938
558.559	988
558.771	957
558.984	942
559.196	925
559.409	937
559.621	970
559.833	936
560.046	922
560.258	964
560.47	946
560.683	960
560.895	931
561.107	937
561.32	915
561.532	938
561.744	937
561.956	948
562.168	920
562.381	933
562.593	949
562.805	926
563.017	928
563.229	941
563.441	963
563.653	956
563.865	955
564.077	963
564.289	966
564.501	997
564.713	1013
564.925	1006
565.137	1034
565.349	1051
565.561	1061
565.773	1095
565.985	1153
566.197	1165
566.408	1252
566.62	1354
566.832	1422
567.044	1428
567.255	1474
567.467	1464
567.679	1503
567.891	1612
568.102	1602
568.314	1542
568.526	1471
568.737	1324
568.949	1240
569.161	1166
569.372	1096
569.584	1054
569.795	1020
570.007	990
570.218	965
570.43	972
570.641	963
570.853	940
571.064	972
571.276	942
571.487	954
571.698	891
571.91	863
572.121	839
572.333	831
572.544	846
572.755	806
572.966	805
573.178	795
573.389	788
573.6	783
573.811	758
574.023	763
574.234	749
574.445	770
574.656	760
574.867	768
575.078	761
575.289	726
575.501	744
575.712	724
575.923	747
576.134	735
576.345	724
576.556	705
576.767	715
576.978	690
577.188	719
577.399	701
577.61	702
577.821	686
578.032	680
578.243	684
578.454	684
578.665	687
578.875	692
579.086	687
579.297	664
579.508	677
579.718	671
579.929	664
580.14	656
580.35	676
580.561	665
580.772	666
580.982	645
581.193	646
581.403	650
581.614	638
581.825	647
582.035	660
582.246	630
582.456	627
582.667	649
582.877	642
583.087	627
583.298	609
583.508	636
583.719	628
583.929	631
584.139	614
584.35	609
584.56	615
584.77	609
584.981	605
585.191	614
585.401	639
585.611	636
585.821	594
586.032	621
586.242	619
586.452	626
586.662	620
586.872	623
587.082	588
587.292	591
587.502	591
587.713	609
587.923	606
588.133	597
588.343	617
588.553	584
588.762	627
588.972	619
589.182	613
589.392	617
589.602	622
589.812	628
590.022	614
590.232	613
590.441	608
590.651	612
590.861	624
591.071	622
591.281	608
591.49	627
591.7	618
591.91	642
592.119	650
592.329	673
592.539	676
592.748	680
592.958	709
593.167	680
593.377	732
593.587	742
593.796	725
594.006	714
594.215	738
594.424	728
594.634	710
594.843	688
595.053	682
595.262	655
595.472	652
595.681	624
595.89	649
596.1	604
596.309	608
596.518	576
596.727	583
596.937	563
597.146	558
597.355	548
597.564	535
597.774	531
597.983	516
598.192	515
598.401	536
598.61	548
598.819	537
599.028	521
599.237	494
599.446	518
599.655	525
599.864	506
600.073	494
600.282	502
600.491	498
600.7	504
600.909	482
601.118	490
601.327	457
601.536	490
601.745	487
601.953	480
602.162	501
602.371	486
602.58	483
602.789	456
602.997	469
603.206	444
603.415	486
603.623	472
603.832	456
604.041	482
604.249	479
604.458	472
604.666	454
604.875	459
605.084	454
605.292	436
605.501	455
605.709	460
605.918	480
606.126	451
606.334	448
606.543	438
606.751	452
606.96	454
607.168	454
607.376	442
607.585	457
607.793	450
608.001	445
608.21	463
608.418	428
608.626	450
608.834	448
609.043	454
609.251	440
609.459	436
609.667	430
609.875	441
610.083	430
610.291	422
610.499	452
610.707	442
610.916	423
611.124	438
611.332	424
611.54	441
611.748	443
611.955	431
612.163	438
612.371	410
612.579	421
612.787	429
612.995	431
613.203	434
613.411	419
613.618	420
613.826	421
614.034	416
614.242	412
614.449	396
614.657	427
614.865	404
615.072	410
615.28	428
615.488	413
615.695	418
615.903	440
616.111	423
616.318	422
616.526	439
616.733	437
616.941	415
617.148	434
617.356	422
617.563	429
617.771	419
617.978	428
618.185	424
618.393	410
618.6	371
618.807	410
619.015	423
619.222	403
619.429	399
619.637	410
619.844	412
620.051	395
620.258	404
620.466	404
620.673	385
620.88	383
621.087	377
621.294	385
621.501	389
621.708	383
621.915	382
622.122	408
622.329	394
622.536	375
622.743	376
622.95	402
623.157	362
623.364	376
623.571	390
623.778	371
623.985	373
624.192	365
624.399	367
624.606	370
624.812	374
625.019	377
625.226	347
625.433	356
625.639	347
625.846	361
626.053	362
626.259	373
626.466	363
626.673	342
626.879	354
627.086	334
627.293	349
627.499	339
627.706	351
627.912	367
628.119	341
628.325	353
628.532	352
628.738	329
628.945	335
629.151	346
629.357	333
629.564	314
629.77	340
629.976	321
630.183	333
630.389	327
630.595	339
630.802	347
631.008	329
631.214	308
631.42	318
631.627	336
631.833	327
632.039	330
632.245	325
632.451	314
632.657	305
632.863	319
633.069	327
633.275	314
633.481	306
633.688	323
633.893	324
634.099	313
634.305	307
634.511	295
634.717	295
634.923	291
635.129	307
635.335	326
635.541	293
635.747	312
635.952	308
636.158	297
636.364	292
636.57	286
636.775	278
636.981	297
637.187	324
637.392	298
637.598	292
637.804	303
638.009	319
638.215	281
638.421	292
638.626	302
638.832	285
639.037	277
639.243	298
639.448	307
639.654	292
639.859	290
640.065	281
640.27	300
640.475	290
640.681	283
640.886	277
641.091	294
641.297	281
641.502	295
641.707	304
641.913	291
642.118	272
642.323	291
642.528	282
642.733	285
642.939	277
643.144	259
643.349	279
643.554	284
643.759	271
643.964	269
644.169	280
644.374	269
644.579	263
644.784	285
644.989	290
645.194	277
645.399	270
645.604	293
645.809	279
646.014	296
646.219	309
646.423	285
646.628	301
646.833	297
647.038	297
647.243	290
647.447	311
647.652	300
647.857	296
648.062	312
648.266	298
648.471	340
648.676	308
648.88	304
649.085	318
649.289	289
649.494	307
649.698	314
649.903	311
650.107	300
650.312	280
650.516	278
650.721	302
650.925	287
651.13	275
651.334	269
651.539	275
651.743	283
651.947	281
652.152	291
652.356	272
652.56	270
652.764	265
652.969	271
653.173	245
653.377	259
653.581	259
653.785	263
653.99	272
654.194	290
654.398	279
654.602	278
654.806	297
655.01	286
655.214	319
655.418	299
655.622	334
655.826	348
656.03	363
656.234	370
656.438	404
656.642	404
656.846	381
657.049	357
657.253	312
657.457	277
657.661	248
657.865	228
658.068	205
658.272	199
658.476	189
658.68	179
658.883	167
659.087	172
659.291	148
659.494	154
659.698	130
659.901	142
660.105	133
660.309	128
660.512	126
660.716	124
660.919	124
661.123	117
661.326	122
661.53	107
661.733	102
661.936	106
662.14	107
662.343	111
662.546	93
662.75	84
662.953	96
663.156	92
663.36	107
663.563	102
663.766	96
663.969	89
664.173	95
664.376	87
664.579	101
664.782	87
664.985	83
665.188	78
665.391	86
665.594	72
665.797	91
666	80
666.203	71
666.406	84
666.609	87
666.812	82
667.015	75
667.218	80
667.421	76
667.624	100
667.827	94
668.03	77
668.232	75
668.435	95
668.638	85
668.841	91
669.043	74
669.246	76
669.449	90
669.651	97
669.854	101
670.057	87
670.259	81
670.462	90
670.665	84
670.867	78
671.07	80
671.272	79
671.475	85
671.677	80
671.88	89
672.082	81
672.284	86
672.487	94
672.689	77
672.892	79
