Data from NiCl2@0.25M.TitratingCurve.Agarose3%dH2O.NegLispCup.LampEnergy10.LIBS07252019_HRD10591_18-24-01-573.txt Node
Date: Thu Jul 25 18:24:01 EDT 2019
User: cochatt
Spectrometer: HR+D1059
Trigger mode: 1
Integration Time (sec): 1.000000E-1
Scans to average: 1
Electric dark correction enabled: true
Nonlinearity correction enabled: false
Boxcar width: 0
XAxis mode: Wavelengths
Number of Pixels in Spectrum: 2048
>>>>>Begin Spectral Data<<<<<
223.165	-12
223.4	-12
223.635	-12
223.869	-18
224.104	-18
224.338	-2
224.573	-13
224.808	-23
225.042	-9
225.277	-5
225.511	-10
225.746	-2
225.98	7
226.215	22
226.449	11
226.683	15
226.918	27
227.152	30
227.387	18
227.621	55
227.856	30
228.09	36
228.324	52
228.559	51
228.793	72
229.027	119
229.262	116
229.496	133
229.73	131
229.964	155
230.199	140
230.433	144
230.667	155
230.901	149
231.136	146
231.37	152
231.604	155
231.838	168
232.072	171
232.306	161
232.541	180
232.775	181
233.009	181
233.243	178
233.477	168
233.711	172
233.945	164
234.179	166
234.413	186
234.647	187
234.881	169
235.115	186
235.349	187
235.583	193
235.817	191
236.051	162
236.285	192
236.519	184
236.753	191
236.987	187
237.221	184
237.455	163
237.689	198
237.922	192
238.156	202
238.39	188
238.624	200
238.858	195
239.091	215
239.325	187
239.559	208
239.793	207
240.027	213
240.26	199
240.494	212
240.728	206
240.961	216
241.195	227
241.429	232
241.662	218
241.896	245
242.13	228
242.363	231
242.597	213
242.83	220
243.064	224
243.298	242
243.531	248
243.765	262
243.998	244
244.232	241
244.465	268
244.699	266
244.932	260
245.166	275
245.399	265
245.633	261
245.866	273
246.099	283
246.333	276
246.566	275
246.8	262
247.033	264
247.266	276
247.5	259
247.733	292
247.966	300
248.2	281
248.433	268
248.666	285
248.899	302
249.133	282
249.366	304
249.599	294
249.832	309
250.066	313
250.299	306
250.532	298
250.765	316
250.998	315
251.231	333
251.465	330
251.698	332
251.931	326
252.164	334
252.397	327
252.63	338
252.863	336
253.096	328
253.329	354
253.562	345
253.795	350
254.028	352
254.261	356
254.494	341
254.727	360
254.96	346
255.193	356
255.426	357
255.659	360
255.892	370
256.124	346
256.357	367
256.59	386
256.823	370
257.056	351
257.289	350
257.521	378
257.754	372
257.987	370
258.22	394
258.452	387
258.685	385
258.918	380
259.151	400
259.383	397
259.616	395
259.849	406
260.081	392
260.314	396
260.547	400
260.779	400
261.012	403
261.244	390
261.477	402
261.71	406
261.942	408
262.175	402
262.407	424
262.64	414
262.872	411
263.105	410
263.337	434
263.57	415
263.802	398
264.035	419
264.267	446
264.499	421
264.732	440
264.964	424
265.197	417
265.429	430
265.661	424
265.894	431
266.126	460
266.358	425
266.591	439
266.823	457
267.055	448
267.287	463
267.52	446
267.752	458
267.984	471
268.216	470
268.448	457
268.681	437
268.913	454
269.145	481
269.377	469
269.609	439
269.841	475
270.073	459
270.306	482
270.538	453
270.77	478
271.002	476
271.234	480
271.466	489
271.698	495
271.93	471
272.162	483
272.394	486
272.626	505
272.858	496
273.09	506
273.322	500
273.553	511
273.785	496
274.017	502
274.249	512
274.481	516
274.713	514
274.945	520
275.176	527
275.408	527
275.64	499
275.872	518
276.104	529
276.335	533
276.567	533
276.799	545
277.031	551
277.262	514
277.494	536
277.726	539
277.957	544
278.189	561
278.421	562
278.652	553
278.884	566
279.115	590
279.347	565
279.579	574
279.81	547
280.042	574
280.273	566
280.505	586
280.736	572
280.968	582
281.199	593
281.431	580
281.662	580
281.894	600
282.125	586
282.356	591
282.588	585
282.819	596
283.051	588
283.282	601
283.513	610
283.745	597
283.976	619
284.207	603
284.439	613
284.67	650
284.901	629
285.132	608
285.364	609
285.595	623
285.826	636
286.057	632
286.288	638
286.52	645
286.751	649
286.982	649
287.213	634
287.444	634
287.675	665
287.906	641
288.138	686
288.369	646
288.6	663
288.831	649
289.062	635
289.293	651
289.524	684
289.755	661
289.986	666
290.217	674
290.448	678
290.679	654
290.91	667
291.141	668
291.371	650
291.602	675
291.833	674
292.064	668
292.295	650
292.526	662
292.757	686
292.987	674
293.218	644
293.449	632
293.68	692
293.91	665
294.141	662
294.372	664
294.603	674
294.833	698
295.064	688
295.295	664
295.525	659
295.756	674
295.987	691
296.217	684
296.448	665
296.679	670
296.909	718
297.14	709
297.37	727
297.601	722
297.831	742
298.062	710
298.292	732
298.523	740
298.753	754
298.984	732
299.214	731
299.445	728
299.675	720
299.905	752
300.136	740
300.366	724
300.597	757
300.827	760
301.057	757
301.288	799
301.518	764
301.748	770
301.979	789
302.209	771
302.439	760
302.669	756
302.9	745
303.13	719
303.36	727
303.59	744
303.82	755
304.051	766
304.281	791
304.511	778
304.741	790
304.971	763
305.201	774
305.431	746
305.661	772
305.891	752
306.121	730
306.352	727
306.582	721
306.812	734
307.042	756
307.272	722
307.502	756
307.731	740
307.961	739
308.191	750
308.421	733
308.651	764
308.881	714
309.111	753
309.341	728
309.571	743
309.8	748
310.03	766
310.26	763
310.49	770
310.72	746
310.949	745
311.179	763
311.409	750
311.639	779
311.868	783
312.098	778
312.328	774
312.557	779
312.787	785
313.017	778
313.246	803
313.476	814
313.706	827
313.935	802
314.165	819
314.394	823
314.624	831
314.853	785
315.083	815
315.312	800
315.542	799
315.771	799
316.001	823
316.23	811
316.46	782
316.689	797
316.919	799
317.148	790
317.377	794
317.607	770
317.836	785
318.065	784
318.295	799
318.524	787
318.753	815
318.983	788
319.212	765
319.441	774
319.67	786
319.9	796
320.129	819
320.358	803
320.587	784
320.816	789
321.046	800
321.275	814
321.504	806
321.733	804
321.962	818
322.191	804
322.42	814
322.649	795
322.878	800
323.108	824
323.337	810
323.566	832
323.795	811
324.024	825
324.253	839
324.482	802
324.71	840
324.939	817
325.168	839
325.397	807
325.626	850
325.855	850
326.084	845
326.313	865
326.542	874
326.77	858
326.999	884
327.228	874
327.457	842
327.686	867
327.914	889
328.143	867
328.372	844
328.6	878
328.829	889
329.058	880
329.287	875
329.515	865
329.744	864
329.972	901
330.201	884
330.43	912
330.658	888
330.887	890
331.115	915
331.344	924
331.572	921
331.801	946
332.03	975
332.258	974
332.486	1023
332.715	1063
332.943	1047
333.172	1117
333.4	1158
333.629	1207
333.857	1211
334.085	1187
334.314	1130
334.542	1134
334.771	1123
334.999	1112
335.227	1103
335.455	1096
335.684	1100
335.912	1076
336.14	1074
336.369	1067
336.597	1068
336.825	1063
337.053	1055
337.281	1064
337.51	1008
337.738	1009
337.966	1003
338.194	994
338.422	974
338.65	962
338.878	949
339.106	963
339.334	980
339.562	929
339.79	961
340.018	907
340.246	903
340.474	907
340.702	887
340.93	930
341.158	937
341.386	953
341.614	946
341.842	939
342.07	948
342.298	914
342.526	893
342.754	882
342.981	907
343.209	946
343.437	949
343.665	1033
343.893	1088
344.12	1131
344.348	1131
344.576	1038
344.804	1018
345.031	967
345.259	929
345.487	926
345.714	946
345.942	900
346.17	912
346.397	895
346.625	859
346.853	894
347.08	870
347.308	870
347.535	886
347.763	888
347.99	884
348.218	865
348.445	865
348.673	879
348.9	875
349.128	851
349.355	887
349.583	875
349.81	859
350.037	864
350.265	870
350.492	846
350.72	858
350.947	827
351.174	851
351.402	825
351.629	841
351.856	849
352.083	834
352.311	871
352.538	852
352.765	867
352.992	831
353.22	805
353.447	814
353.674	808
353.901	819
354.128	833
354.355	826
354.583	826
354.81	835
355.037	814
355.264	842
355.491	827
355.718	847
355.945	842
356.172	860
356.399	844
356.626	851
356.853	834
357.08	851
357.307	853
357.534	857
357.761	849
357.988	851
358.215	830
358.441	838
358.668	852
358.895	832
359.122	847
359.349	855
359.576	848
359.802	853
360.029	820
360.256	836
360.483	834
360.709	845
360.936	848
361.163	856
361.39	838
361.616	841
361.843	852
362.07	879
362.296	837
362.523	854
362.749	834
362.976	854
363.203	832
363.429	835
363.656	842
363.882	836
364.109	852
364.335	832
364.562	849
364.788	856
365.015	838
365.241	856
365.468	821
365.694	830
365.92	845
366.147	836
366.373	837
366.599	844
366.826	833
367.052	834
367.278	857
367.505	848
367.731	840
367.957	842
368.184	855
368.41	858
368.636	859
368.862	854
369.089	845
369.315	864
369.541	872
369.767	873
369.993	875
370.219	878
370.445	876
370.672	895
370.898	890
371.124	910
371.35	924
371.576	921
371.802	916
372.028	920
372.254	947
372.48	908
372.706	938
372.932	979
373.158	954
373.384	920
373.61	931
373.835	892
374.061	915
374.287	933
374.513	946
374.739	966
374.965	991
375.191	1014
375.416	993
375.642	976
375.868	967
376.094	933
376.319	925
376.545	946
376.771	912
376.997	944
377.222	932
377.448	899
377.674	912
377.899	889
378.125	912
378.35	923
378.576	901
378.802	897
379.027	903
379.253	909
379.478	894
379.704	894
379.929	887
380.155	911
380.38	919
380.606	928
380.831	906
381.057	901
381.282	909
381.507	895
381.733	909
381.958	929
382.184	937
382.409	974
382.634	954
382.86	935
383.085	978
383.31	963
383.535	991
383.761	1026
383.986	1011
384.211	1003
384.436	1076
384.662	1071
384.887	1111
385.112	1118
385.337	1133
385.562	1082
385.787	1088
386.013	1127
386.238	1113
386.463	1164
386.688	1141
386.913	1132
387.138	1125
387.363	1067
387.588	1078
387.813	1112
388.038	1096
388.263	1140
388.488	1125
388.713	1090
388.938	1099
389.163	1085
389.387	1090
389.612	1074
389.837	1099
390.062	1088
390.287	1079
390.512	1102
390.736	1075
390.961	1127
391.186	1143
391.411	1174
391.636	1186
391.86	1227
392.085	1227
392.31	1242
392.534	1210
392.759	1174
392.984	1172
393.208	1147
393.433	1152
393.658	1173
393.882	1194
394.107	1187
394.331	1158
394.556	1172
394.78	1193
395.005	1178
395.229	1175
395.454	1212
395.678	1234
395.903	1239
396.127	1258
396.352	1200
396.576	1182
396.801	1164
397.025	1184
397.249	1236
397.474	1250
397.698	1253
397.922	1282
398.147	1256
398.371	1274
398.595	1336
398.82	1426
399.044	1472
399.268	1663
399.492	1859
399.717	2099
399.941	2067
400.165	1929
400.389	1743
400.613	1588
400.837	1483
401.062	1460
401.286	1411
401.51	1438
401.734	1385
401.958	1416
402.182	1432
402.406	1451
402.63	1491
402.854	1499
403.078	1490
403.302	1534
403.526	1590
403.75	1590
403.974	1630
404.198	1618
404.422	1661
404.645	1609
404.869	1560
405.093	1592
405.317	1564
405.541	1560
405.765	1532
405.988	1489
406.212	1530
406.436	1564
406.66	1596
406.883	1620
407.107	1651
407.331	1746
407.555	1818
407.778	1840
408.002	1759
408.226	1711
408.449	1707
408.673	1574
408.896	1586
409.12	1569
409.344	1565
409.567	1552
409.791	1624
410.014	1574
410.238	1549
410.461	1547
410.685	1481
410.908	1480
411.132	1473
411.355	1425
411.578	1429
411.802	1462
412.025	1463
412.249	1466
412.472	1468
412.695	1428
412.919	1457
413.142	1440
413.365	1377
413.589	1416
413.812	1375
414.035	1352
414.258	1412
414.482	1408
414.705	1428
414.928	1409
415.151	1423
415.374	1386
415.597	1377
415.821	1349
416.044	1352
416.267	1340
416.49	1398
416.713	1342
416.936	1360
417.159	1388
417.382	1350
417.605	1340
417.828	1376
418.051	1345
418.274	1397
418.497	1396
418.72	1400
418.943	1410
419.166	1482
419.389	1598
419.611	1576
419.834	1491
420.057	1430
420.28	1373
420.503	1354
420.726	1350
420.948	1355
421.171	1361
421.394	1393
421.617	1376
421.839	1387
422.062	1393
422.285	1341
422.507	1382
422.73	1400
422.953	1368
423.175	1414
423.398	1430
423.621	1425
423.843	1433
424.066	1436
424.288	1443
424.511	1437
424.733	1422
424.956	1395
425.178	1372
425.401	1386
425.623	1359
425.846	1326
426.068	1329
426.291	1309
426.513	1321
426.735	1323
426.958	1314
427.18	1244
427.402	1276
427.625	1264
427.847	1235
428.069	1190
428.292	1229
428.514	1213
428.736	1248
428.958	1219
429.181	1159
429.403	1180
429.625	1184
429.847	1186
430.069	1159
430.292	1194
430.514	1173
430.736	1195
430.958	1186
431.18	1168
431.402	1187
431.624	1168
431.846	1192
432.068	1208
432.29	1252
432.512	1222
432.734	1207
432.956	1184
433.178	1185
433.4	1208
433.622	1224
433.844	1243
434.066	1240
434.287	1248
434.509	1267
434.731	1299
434.953	1354
435.175	1374
435.397	1316
435.618	1271
435.84	1278
436.062	1233
436.284	1201
436.505	1209
436.727	1215
436.949	1217
437.17	1205
437.392	1177
437.614	1172
437.835	1138
438.057	1191
438.278	1147
438.5	1146
438.721	1140
438.943	1185
439.165	1182
439.386	1164
439.608	1162
439.829	1208
440.05	1196
440.272	1202
440.493	1232
440.715	1280
440.936	1238
441.158	1258
441.379	1272
441.6	1356
441.822	1376
442.043	1418
442.264	1362
442.486	1337
442.707	1324
442.928	1320
443.149	1341
443.371	1297
443.592	1349
443.813	1345
444.034	1372
444.255	1404
444.476	1460
444.698	1574
444.919	1628
445.14	1685
445.361	1495
445.582	1385
445.803	1346
446.024	1270
446.245	1280
446.466	1247
446.687	1190
446.908	1193
447.129	1190
447.35	1154
447.571	1160
447.792	1147
448.013	1126
448.234	1166
448.455	1135
448.675	1102
448.896	1107
449.117	1089
449.338	1091
449.559	1090
449.779	1080
450	1067
450.221	1111
450.442	1094
450.662	1097
450.883	1104
451.104	1131
451.324	1112
451.545	1130
451.766	1121
451.986	1125
452.207	1108
452.428	1123
452.648	1118
452.869	1052
453.089	1072
453.31	1103
453.53	1041
453.751	1060
453.971	1054
454.192	1089
454.412	1043
454.633	1035
454.853	1050
455.073	1037
455.294	1026
455.514	1008
455.734	1032
455.955	1011
456.175	1006
456.395	1040
456.616	989
456.836	1037
457.056	1078
457.276	1001
457.497	1032
457.717	1045
457.937	1042
458.157	1048
458.377	1087
458.598	1108
458.818	1087
459.038	1162
459.258	1184
459.478	1217
459.698	1273
459.918	1268
460.138	1346
460.358	1403
460.578	1416
460.798	1411
461.018	1472
461.238	1414
461.458	1426
461.678	1420
461.898	1447
462.118	1466
462.338	1561
462.558	1619
462.777	1650
462.997	1806
463.217	1928
463.437	1914
463.657	1795
463.876	1706
464.096	1679
464.316	1669
464.536	1648
464.755	1607
464.975	1560
465.195	1480
465.414	1404
465.634	1330
465.854	1264
466.073	1256
466.293	1225
466.512	1192
466.732	1155
466.951	1171
467.171	1157
467.391	1144
467.61	1146
467.829	1157
468.049	1154
468.268	1146
468.488	1098
468.707	1116
468.927	1106
469.146	1130
469.365	1127
469.585	1098
469.804	1131
470.023	1172
470.243	1199
470.462	1222
470.681	1190
470.901	1163
471.12	1195
471.339	1163
471.558	1119
471.777	1115
471.997	1128
472.216	1096
472.435	1103
472.654	1096
472.873	1062
473.092	1066
473.311	1056
473.53	1094
473.749	1062
473.968	1094
474.187	1055
474.406	1097
474.625	1068
474.844	1118
475.063	1101
475.282	1076
475.501	1110
475.72	1108
475.939	1091
476.158	1104
476.377	1124
476.596	1124
476.814	1144
477.033	1142
477.252	1152
477.471	1198
477.69	1238
477.908	1256
478.127	1291
478.346	1307
478.564	1311
478.783	1344
479.002	1398
479.22	1418
479.439	1365
479.658	1359
479.876	1363
480.095	1358
480.313	1442
480.532	1473
480.751	1422
480.969	1393
481.188	1364
481.406	1305
481.624	1300
481.843	1256
482.061	1253
482.28	1242
482.498	1257
482.717	1227
482.935	1254
483.153	1267
483.372	1221
483.59	1208
483.808	1259
484.027	1219
484.245	1222
484.463	1247
484.681	1243
484.9	1258
485.118	1284
485.336	1255
485.554	1322
485.772	1284
485.99	1301
486.209	1302
486.427	1280
486.645	1315
486.863	1303
487.081	1319
487.299	1306
487.517	1331
487.735	1259
487.953	1265
488.171	1303
488.389	1303
488.607	1291
488.825	1282
489.043	1306
489.261	1278
489.479	1290
489.696	1303
489.914	1315
490.132	1332
490.35	1314
490.568	1299
490.786	1313
491.003	1313
491.221	1322
491.439	1289
491.657	1330
491.874	1326
492.092	1362
492.31	1345
492.527	1348
492.745	1355
492.963	1377
493.18	1365
493.398	1352
493.615	1355
493.833	1334
494.05	1388
494.268	1391
494.485	1379
494.703	1389
494.92	1415
495.138	1397
495.355	1401
495.573	1385
495.79	1419
496.008	1441
496.225	1414
496.442	1464
496.66	1456
496.877	1497
497.094	1515
497.312	1544
497.529	1586
497.746	1636
497.963	1685
498.181	1730
498.398	1818
498.615	1896
498.832	2103
499.049	2195
499.267	2405
499.484	2681
499.701	2921
499.918	3209
500.135	3640
500.352	4082
500.569	4236
500.786	4212
501.003	3990
501.22	3551
501.437	3128
501.654	2789
501.871	2558
502.088	2367
502.305	2182
502.522	2081
502.739	2016
502.956	1889
503.172	1808
503.389	1720
503.606	1648
503.823	1612
504.04	1629
504.256	1638
504.473	1681
504.69	1712
504.907	1644
505.123	1574
505.34	1482
505.557	1406
505.773	1403
505.99	1355
506.207	1307
506.423	1306
506.64	1253
506.856	1244
507.073	1254
507.289	1278
507.506	1211
507.722	1250
507.939	1219
508.155	1161
508.372	1201
508.588	1176
508.805	1176
509.021	1182
509.238	1163
509.454	1139
509.67	1158
509.887	1112
510.103	1168
510.319	1141
510.536	1139
510.752	1147
510.968	1118
511.184	1116
511.401	1127
511.617	1131
511.833	1107
512.049	1106
512.265	1116
512.481	1088
512.698	1127
512.914	1091
513.13	1110
513.346	1142
513.562	1125
513.778	1134
513.994	1114
514.21	1137
514.426	1168
514.642	1131
514.858	1152
515.074	1141
515.29	1171
515.506	1190
515.721	1186
515.937	1207
516.153	1249
516.369	1274
516.585	1311
516.801	1338
517.016	1409
517.232	1455
517.448	1498
517.664	1546
517.879	1590
518.095	1592
518.311	1561
518.527	1479
518.742	1422
518.958	1368
519.173	1307
519.389	1284
519.605	1235
519.82	1219
520.036	1220
520.251	1149
520.467	1128
520.682	1152
520.898	1127
521.113	1121
521.329	1096
521.544	1098
521.76	1089
521.975	1092
522.19	1108
522.406	1076
522.621	1075
522.836	1066
523.052	1030
523.267	1029
523.482	1050
523.698	1031
523.913	1038
524.128	1051
524.343	1042
524.559	1028
524.774	1014
524.989	1018
525.204	1030
525.419	1022
525.634	1021
525.849	1017
526.064	1030
526.28	996
526.495	976
526.71	978
526.925	1026
527.14	989
527.355	994
527.57	1020
527.785	1013
527.999	970
528.214	992
528.429	999
528.644	1000
528.859	1006
529.074	1015
529.289	1003
529.503	1001
529.718	986
529.933	965
530.148	999
530.363	988
530.577	980
530.792	992
531.007	1003
531.221	995
531.436	1016
531.651	994
531.865	966
532.08	998
532.295	982
532.509	987
532.724	1000
532.938	1014
533.153	984
533.367	982
533.582	989
533.796	963
534.011	974
534.225	981
534.44	986
534.654	980
534.868	962
535.083	964
535.297	958
535.511	967
535.726	944
535.94	962
536.154	935
536.369	950
536.583	941
536.797	923
537.011	935
537.225	919
537.44	923
537.654	906
537.868	914
538.082	896
538.296	928
538.51	895
538.724	904
538.938	909
539.153	920
539.367	907
539.581	920
539.795	886
540.009	908
540.222	894
540.436	888
540.65	882
540.864	881
541.078	897
541.292	889
541.506	903
541.72	899
541.934	905
542.147	898
542.361	906
542.575	884
542.789	879
543.002	853
543.216	910
543.43	892
543.644	887
543.857	889
544.071	909
544.285	885
544.498	891
544.712	893
544.925	910
545.139	902
545.352	906
545.566	947
545.779	906
545.993	913
546.206	914
546.42	915
546.633	907
546.847	912
547.06	894
547.274	907
547.487	913
547.7	920
547.914	927
548.127	927
548.34	930
548.554	910
548.767	935
548.98	940
549.193	916
549.407	929
549.62	924
549.833	946
550.046	902
550.259	962
550.473	928
550.686	934
550.899	892
551.112	914
551.325	895
551.538	888
551.751	904
551.964	914
552.177	895
552.39	910
552.603	938
552.816	994
553.029	975
553.242	982
553.455	1008
553.667	1001
553.88	982
554.093	962
554.306	937
554.519	937
554.732	889
554.944	886
555.157	878
555.37	855
555.583	827
555.795	836
556.008	850
556.221	812
556.433	802
556.646	797
556.859	807
557.071	788
557.284	796
557.496	791
557.709	792
557.921	788
558.134	760
558.346	769
558.559	774
558.771	772
558.984	758
559.196	770
559.409	763
559.621	771
559.833	746
560.046	756
560.258	739
560.47	732
560.683	738
560.895	735
561.107	739
561.32	747
561.532	730
561.744	775
561.956	751
562.168	726
562.381	746
562.593	773
562.805	784
563.017	756
563.229	728
563.441	741
563.653	746
563.865	760
564.077	794
564.289	792
564.501	783
564.713	800
564.925	814
565.137	831
565.349	848
565.561	872
565.773	891
565.985	924
566.197	989
566.408	1067
566.62	1111
566.832	1214
567.044	1248
567.255	1240
567.467	1275
567.679	1364
567.891	1441
568.102	1438
568.314	1381
568.526	1242
568.737	1184
568.949	1012
569.161	970
569.372	900
569.584	849
569.795	842
570.007	814
570.218	816
570.43	763
570.641	807
570.853	780
571.064	773
571.276	776
571.487	746
571.698	726
571.91	721
572.121	706
572.333	674
572.544	667
572.755	632
572.966	660
573.178	655
573.389	650
573.6	650
573.811	615
574.023	620
574.234	615
574.445	608
574.656	627
574.867	642
575.078	600
575.289	608
575.501	596
575.712	575
575.923	587
576.134	585
576.345	579
576.556	585
576.767	566
576.978	577
577.188	585
577.399	569
577.61	593
577.821	566
578.032	558
578.243	540
578.454	572
578.665	558
578.875	551
579.086	521
579.297	527
579.508	550
579.718	532
579.929	496
580.14	534
580.35	534
580.561	532
580.772	530
580.982	541
581.193	533
581.403	522
581.614	516
581.825	536
582.035	512
582.246	521
582.456	524
582.667	511
582.877	513
583.087	511
583.298	505
583.508	501
583.719	495
583.929	504
584.139	514
584.35	513
584.56	501
584.77	487
584.981	484
585.191	507
585.401	499
585.611	487
585.821	476
586.032	507
586.242	489
586.452	506
586.662	494
586.872	512
587.082	474
587.292	496
587.502	496
587.713	474
587.923	479
588.133	504
588.343	496
588.553	486
588.762	481
588.972	455
589.182	525
589.392	523
589.602	498
589.812	515
590.022	524
590.232	508
590.441	491
590.651	490
590.861	478
591.071	498
591.281	506
591.49	536
591.7	528
591.91	520
592.119	532
592.329	542
592.539	563
592.748	550
592.958	598
593.167	627
593.377	634
593.587	627
593.796	611
594.006	640
594.215	650
594.424	622
594.634	613
594.843	602
595.053	558
595.262	561
595.472	519
595.681	504
595.89	510
596.1	475
596.309	495
596.518	486
596.727	440
596.937	481
597.146	461
597.355	450
597.564	448
597.774	446
597.983	410
598.192	431
598.401	420
598.61	418
598.819	418
599.028	423
599.237	422
599.446	408
599.655	402
599.864	422
600.073	404
600.282	404
600.491	390
600.7	422
600.909	386
601.118	406
601.327	395
601.536	388
601.745	390
601.953	394
602.162	380
602.371	373
602.58	384
602.789	400
602.997	384
603.206	383
603.415	382
603.623	377
603.832	386
604.041	391
604.249	380
604.458	382
604.666	370
604.875	376
605.084	381
605.292	378
605.501	379
605.709	380
605.918	370
606.126	358
606.334	376
606.543	366
606.751	372
606.96	372
607.168	355
607.376	347
607.585	348
607.793	352
608.001	387
608.21	376
608.418	374
608.626	346
608.834	356
609.043	357
609.251	349
609.459	346
609.667	355
609.875	354
610.083	372
610.291	355
610.499	360
610.707	355
610.916	361
611.124	359
611.332	361
611.54	356
611.748	370
611.955	346
612.163	357
612.371	344
612.579	342
612.787	343
612.995	345
613.203	358
613.411	343
613.618	340
613.826	343
614.034	353
614.242	356
614.449	344
614.657	351
614.865	327
615.072	337
615.28	347
615.488	336
615.695	334
615.903	329
616.111	363
616.318	358
616.526	331
616.733	340
616.941	343
617.148	331
617.356	327
617.563	349
617.771	357
617.978	343
618.185	345
618.393	336
618.6	336
618.807	324
619.015	332
619.222	347
619.429	313
619.637	330
619.844	338
620.051	337
620.258	336
620.466	323
620.673	312
620.88	303
621.087	314
621.294	325
621.501	310
621.708	315
621.915	321
622.122	314
622.329	302
622.536	318
622.743	321
622.95	316
623.157	304
623.364	298
623.571	306
623.778	300
623.985	298
624.192	310
624.399	312
624.606	315
624.812	308
625.019	302
625.226	295
625.433	291
625.639	291
625.846	287
626.053	289
626.259	284
626.466	297
626.673	281
626.879	284
627.086	291
627.293	272
627.499	284
627.706	291
627.912	279
628.119	270
628.325	274
628.532	287
628.738	299
628.945	281
629.151	279
629.357	287
629.564	258
629.77	259
629.976	283
630.183	283
630.389	273
630.595	294
630.802	275
631.008	258
631.214	265
631.42	270
631.627	272
631.833	249
632.039	269
632.245	241
632.451	256
632.657	272
632.863	261
633.069	279
633.275	248
633.481	260
633.688	259
633.893	257
634.099	235
634.305	232
634.511	265
634.717	247
634.923	235
635.129	246
635.335	247
635.541	247
635.747	271
635.952	240
636.158	239
636.364	240
636.57	230
636.775	249
636.981	250
637.187	263
637.392	230
637.598	265
637.804	250
638.009	232
638.215	258
638.421	226
638.626	232
638.832	220
639.037	222
639.243	215
639.448	231
639.654	228
639.859	236
640.065	227
640.27	241
640.475	243
640.681	223
640.886	226
641.091	210
641.297	220
641.502	225
641.707	224
641.913	226
642.118	201
642.323	217
642.528	207
642.733	231
642.939	222
643.144	212
643.349	212
643.554	224
643.759	218
643.964	214
644.169	225
644.374	216
644.579	224
644.784	218
644.989	223
645.194	225
645.399	222
645.604	208
645.809	201
646.014	218
646.219	220
646.423	214
646.628	208
646.833	224
647.038	219
647.243	222
647.447	208
647.652	223
647.857	226
648.062	219
648.266	203
648.471	226
648.676	230
648.88	231
649.085	195
649.289	212
649.494	204
649.698	202
649.903	215
650.107	188
650.312	212
650.516	206
650.721	207
650.925	197
651.13	182
651.334	191
651.539	179
651.743	184
651.947	196
652.152	180
652.356	182
652.56	182
652.764	168
652.969	179
653.173	184
653.377	152
653.581	162
653.785	167
653.99	164
654.194	173
654.398	166
654.602	163
654.806	152
655.01	168
655.214	164
655.418	148
655.622	154
655.826	143
656.03	150
656.234	168
656.438	156
656.642	154
656.846	141
657.049	140
657.253	148
657.457	136
657.661	126
657.865	128
658.068	114
658.272	137
658.476	118
658.68	126
658.883	108
659.087	114
659.291	101
659.494	98
659.698	104
659.901	111
660.105	105
660.309	103
660.512	89
660.716	105
660.919	100
661.123	102
661.326	102
661.53	93
661.733	102
661.936	85
662.14	79
662.343	77
662.546	81
662.75	88
662.953	75
663.156	89
663.36	94
663.563	81
663.766	96
663.969	73
664.173	64
664.376	76
664.579	70
664.782	84
664.985	84
665.188	98
665.391	78
665.594	77
665.797	83
666	67
666.203	63
666.406	78
666.609	68
666.812	86
667.015	81
667.218	90
667.421	75
667.624	77
667.827	90
668.03	88
668.232	83
668.435	76
668.638	80
668.841	79
669.043	80
669.246	65
669.449	88
669.651	80
669.854	76
670.057	82
670.259	85
670.462	80
670.665	86
670.867	74
671.07	87
671.272	83
671.475	86
671.677	86
671.88	83
672.082	83
672.284	98
672.487	89
672.689	77
672.892	79
