Data from NiCl2@0.5M.TitratingCurve.Agarose3%dH2O.NegLispCup.LampEnergy10.LIBS07252019_HRD10591_18-18-53-572.txt Node
Date: Thu Jul 25 18:18:53 EDT 2019
User: cochatt
Spectrometer: HR+D1059
Trigger mode: 1
Integration Time (sec): 1.000000E-1
Scans to average: 1
Electric dark correction enabled: true
Nonlinearity correction enabled: false
Boxcar width: 0
XAxis mode: Wavelengths
Number of Pixels in Spectrum: 2048
>>>>>Begin Spectral Data<<<<<
223.165	-19
223.4	-19
223.635	-19
223.869	-30
224.104	-7
224.338	-14
224.573	-13
224.808	-22
225.042	-3
225.277	-18
225.511	-9
225.746	10
225.98	17
226.215	10
226.449	16
226.683	18
226.918	24
227.152	40
227.387	32
227.621	46
227.856	47
228.09	41
228.324	41
228.559	54
228.793	66
229.027	146
229.262	162
229.496	155
229.73	156
229.964	157
230.199	171
230.433	183
230.667	179
230.901	186
231.136	175
231.37	167
231.604	178
231.838	190
232.072	195
232.306	189
232.541	204
232.775	191
233.009	188
233.243	198
233.477	206
233.711	193
233.945	212
234.179	194
234.413	177
234.647	176
234.881	194
235.115	200
235.349	206
235.583	190
235.817	201
236.051	197
236.285	200
236.519	190
236.753	194
236.987	203
237.221	211
237.455	233
237.689	212
237.922	232
238.156	220
238.39	233
238.624	202
238.858	220
239.091	250
239.325	225
239.559	228
239.793	246
240.027	259
240.26	246
240.494	226
240.728	231
240.961	245
241.195	249
241.429	274
241.662	270
241.896	272
242.13	282
242.363	290
242.597	266
242.83	265
243.064	274
243.298	285
243.531	273
243.765	286
243.998	289
244.232	275
244.465	293
244.699	294
244.932	302
245.166	302
245.399	322
245.633	296
245.866	311
246.099	309
246.333	309
246.566	292
246.8	318
247.033	317
247.266	302
247.5	294
247.733	313
247.966	329
248.2	322
248.433	335
248.666	343
248.899	352
249.133	346
249.366	323
249.599	348
249.832	351
250.066	359
250.299	346
250.532	374
250.765	360
250.998	350
251.231	368
251.465	385
251.698	381
251.931	378
252.164	376
252.397	378
252.63	378
252.863	389
253.096	373
253.329	390
253.562	400
253.795	398
254.028	389
254.261	398
254.494	394
254.727	399
254.96	392
255.193	385
255.426	399
255.659	409
255.892	431
256.124	424
256.357	431
256.59	394
256.823	410
257.056	425
257.289	437
257.521	440
257.754	444
257.987	442
258.22	456
258.452	435
258.685	450
258.918	445
259.151	448
259.383	455
259.616	464
259.849	453
260.081	473
260.314	461
260.547	465
260.779	478
261.012	460
261.244	463
261.477	465
261.71	473
261.942	459
262.175	480
262.407	479
262.64	472
262.872	497
263.105	473
263.337	463
263.57	487
263.802	499
264.035	514
264.267	522
264.499	521
264.732	487
264.964	497
265.197	519
265.429	512
265.661	507
265.894	520
266.126	509
266.358	500
266.591	502
266.823	529
267.055	541
267.287	534
267.52	516
267.752	523
267.984	521
268.216	529
268.448	569
268.681	540
268.913	537
269.145	533
269.377	538
269.609	551
269.841	560
270.073	565
270.306	579
270.538	565
270.77	573
271.002	561
271.234	579
271.466	548
271.698	567
271.93	596
272.162	577
272.394	571
272.626	583
272.858	572
273.09	602
273.322	615
273.553	601
273.785	596
274.017	602
274.249	608
274.481	604
274.713	601
274.945	619
275.176	638
275.408	623
275.64	648
275.872	629
276.104	663
276.335	642
276.567	615
276.799	615
277.031	645
277.262	646
277.494	644
277.726	639
277.957	646
278.189	665
278.421	635
278.652	657
278.884	679
279.115	680
279.347	668
279.579	673
279.81	694
280.042	676
280.273	677
280.505	667
280.736	696
280.968	693
281.199	702
281.431	693
281.662	688
281.894	694
282.125	704
282.356	731
282.588	716
282.819	697
283.051	705
283.282	713
283.513	718
283.745	724
283.976	686
284.207	718
284.439	734
284.67	732
284.901	729
285.132	724
285.364	746
285.595	747
285.826	745
286.057	741
286.288	753
286.52	749
286.751	752
286.982	750
287.213	739
287.444	779
287.675	800
287.906	771
288.138	778
288.369	781
288.6	777
288.831	791
289.062	804
289.293	755
289.524	766
289.755	778
289.986	794
290.217	797
290.448	790
290.679	802
290.91	817
291.141	785
291.371	778
291.602	785
291.833	810
292.064	817
292.295	800
292.526	800
292.757	769
292.987	818
293.218	785
293.449	811
293.68	792
293.91	779
294.141	793
294.372	823
294.603	847
294.833	823
295.064	837
295.295	849
295.525	815
295.756	814
295.987	823
296.217	838
296.448	840
296.679	824
296.909	823
297.14	841
297.37	857
297.601	883
297.831	859
298.062	863
298.292	888
298.523	896
298.753	903
298.984	899
299.214	896
299.445	921
299.675	896
299.905	877
300.136	904
300.366	921
300.597	929
300.827	946
301.057	917
301.288	963
301.518	937
301.748	904
301.979	925
302.209	929
302.439	924
302.669	930
302.9	910
303.13	926
303.36	902
303.59	905
303.82	931
304.051	970
304.281	946
304.511	922
304.741	934
304.971	931
305.201	951
305.431	1002
305.661	951
305.891	941
306.121	953
306.352	927
306.582	916
306.812	895
307.042	927
307.272	909
307.502	901
307.731	915
307.961	910
308.191	905
308.421	913
308.651	943
308.881	912
309.111	935
309.341	909
309.571	935
309.8	922
310.03	944
310.26	982
310.49	952
310.72	928
310.949	944
311.179	921
311.409	909
311.639	930
311.868	959
312.098	935
312.328	941
312.557	967
312.787	1000
313.017	974
313.246	975
313.476	984
313.706	1007
313.935	992
314.165	986
314.394	985
314.624	989
314.853	970
315.083	1003
315.312	969
315.542	1012
315.771	995
316.001	993
316.23	980
316.46	996
316.689	981
316.919	957
317.148	984
317.377	976
317.607	966
317.836	983
318.065	964
318.295	982
318.524	992
318.753	999
318.983	987
319.212	963
319.441	996
319.67	974
319.9	984
320.129	1000
320.358	993
320.587	986
320.816	1003
321.046	1001
321.275	992
321.504	1013
321.733	1008
321.962	978
322.191	999
322.42	1000
322.649	1008
322.878	1009
323.108	1019
323.337	1008
323.566	1032
323.795	1040
324.024	1021
324.253	1010
324.482	1016
324.71	1039
324.939	1039
325.168	1029
325.397	1033
325.626	1059
325.855	1020
326.084	1043
326.313	1057
326.542	1070
326.77	1083
326.999	1066
327.228	1051
327.457	1063
327.686	1046
327.914	1080
328.143	1047
328.372	1055
328.6	1066
328.829	1066
329.058	1079
329.287	1069
329.515	1095
329.744	1094
329.972	1075
330.201	1105
330.43	1097
330.658	1106
330.887	1138
331.115	1109
331.344	1157
331.572	1151
331.801	1178
332.03	1168
332.258	1201
332.486	1228
332.715	1252
332.943	1254
333.172	1291
333.4	1327
333.629	1379
333.857	1401
334.085	1368
334.314	1349
334.542	1346
334.771	1350
334.999	1302
335.227	1341
335.455	1339
335.684	1336
335.912	1319
336.14	1318
336.369	1320
336.597	1323
336.825	1326
337.053	1341
337.281	1314
337.51	1293
337.738	1238
337.966	1226
338.194	1293
338.422	1270
338.65	1181
338.878	1192
339.106	1245
339.334	1249
339.562	1217
339.79	1179
340.018	1143
340.246	1137
340.474	1133
340.702	1101
340.93	1138
341.158	1169
341.386	1148
341.614	1231
341.842	1241
342.07	1144
342.298	1170
342.526	1157
342.754	1120
342.981	1145
343.209	1161
343.437	1234
343.665	1314
343.893	1341
344.12	1337
344.348	1328
344.576	1270
344.804	1302
345.031	1244
345.259	1203
345.487	1213
345.714	1208
345.942	1226
346.17	1214
346.397	1209
346.625	1139
346.853	1111
347.08	1097
347.308	1115
347.535	1141
347.763	1129
347.99	1123
348.218	1073
348.445	1092
348.673	1079
348.9	1087
349.128	1080
349.355	1146
349.583	1175
349.81	1102
350.037	1049
350.265	1048
350.492	1064
350.72	1065
350.947	1065
351.174	1079
351.402	1151
351.629	1133
351.856	1130
352.083	1091
352.311	1085
352.538	1153
352.765	1151
352.992	1086
353.22	995
353.447	1002
353.674	1045
353.901	1016
354.128	1004
354.355	1048
354.583	1039
354.81	1035
355.037	1070
355.264	1062
355.491	1053
355.718	1051
355.945	1043
356.172	1043
356.399	1052
356.626	1066
356.853	1141
357.08	1094
357.307	1069
357.534	1062
357.761	1051
357.988	1024
358.215	1045
358.441	1009
358.668	1035
358.895	1021
359.122	1027
359.349	1011
359.576	1027
359.802	1043
360.029	1057
360.256	1030
360.483	1010
360.709	1020
360.936	1042
361.163	1055
361.39	1067
361.616	1077
361.843	1071
362.07	1139
362.296	1151
362.523	1058
362.749	1021
362.976	1011
363.203	1002
363.429	1025
363.656	1012
363.882	1019
364.109	977
364.335	1033
364.562	1027
364.788	1012
365.015	1036
365.241	1020
365.468	999
365.694	1012
365.92	1041
366.147	991
366.373	1045
366.599	1033
366.826	1010
367.052	983
367.278	1049
367.505	1053
367.731	1045
367.957	1042
368.184	1017
368.41	1037
368.636	1088
368.862	1015
369.089	1032
369.315	1035
369.541	1049
369.767	1077
369.993	1053
370.219	1042
370.445	1049
370.672	1072
370.898	1058
371.124	1052
371.35	1102
371.576	1084
371.802	1080
372.028	1078
372.254	1079
372.48	1104
372.706	1093
372.932	1104
373.158	1112
373.384	1104
373.61	1091
373.835	1120
374.061	1074
374.287	1086
374.513	1113
374.739	1154
374.965	1195
375.191	1177
375.416	1175
375.642	1139
375.868	1159
376.094	1126
376.319	1107
376.545	1098
376.771	1092
376.997	1089
377.222	1077
377.448	1039
377.674	1094
377.899	1069
378.125	1079
378.35	1058
378.576	1096
378.802	1074
379.027	1074
379.253	1094
379.478	1067
379.704	1066
379.929	1049
380.155	1061
380.38	1039
380.606	1065
380.831	1058
381.057	1095
381.282	1061
381.507	1088
381.733	1102
381.958	1082
382.184	1114
382.409	1106
382.634	1124
382.86	1102
383.085	1125
383.31	1143
383.535	1127
383.761	1160
383.986	1175
384.211	1185
384.436	1194
384.662	1258
384.887	1256
385.112	1275
385.337	1244
385.562	1243
385.787	1264
386.013	1329
386.238	1281
386.463	1287
386.688	1271
386.913	1243
387.138	1253
387.363	1267
387.588	1249
387.813	1304
388.038	1270
388.263	1273
388.488	1283
388.713	1249
388.938	1233
389.163	1262
389.387	1261
389.612	1272
389.837	1302
390.062	1245
390.287	1277
390.512	1267
390.736	1275
390.961	1277
391.186	1302
391.411	1322
391.636	1361
391.86	1392
392.085	1454
392.31	1458
392.534	1396
392.759	1381
392.984	1355
393.208	1365
393.433	1359
393.658	1378
393.882	1397
394.107	1367
394.331	1374
394.556	1342
394.78	1361
395.005	1378
395.229	1353
395.454	1401
395.678	1416
395.903	1429
396.127	1395
396.352	1395
396.576	1365
396.801	1402
397.025	1398
397.249	1448
397.474	1453
397.698	1451
397.922	1446
398.147	1447
398.371	1498
398.595	1537
398.82	1594
399.044	1667
399.268	1820
399.492	2052
399.717	2205
399.941	2217
400.165	2079
400.389	1929
400.613	1809
400.837	1696
401.062	1645
401.286	1636
401.51	1617
401.734	1633
401.958	1623
402.182	1620
402.406	1644
402.63	1677
402.854	1658
403.078	1717
403.302	1707
403.526	1729
403.75	1750
403.974	1743
404.198	1755
404.422	1784
404.645	1770
404.869	1713
405.093	1750
405.317	1708
405.541	1715
405.765	1750
405.988	1743
406.212	1733
406.436	1728
406.66	1749
406.883	1768
407.107	1886
407.331	1942
407.555	2013
407.778	2005
408.002	1938
408.226	1941
408.449	1881
408.673	1825
408.896	1813
409.12	1808
409.344	1782
409.567	1729
409.791	1804
410.014	1768
410.238	1766
410.461	1739
410.685	1727
410.908	1667
411.132	1670
411.355	1636
411.578	1672
411.802	1623
412.025	1665
412.249	1711
412.472	1690
412.695	1643
412.919	1605
413.142	1612
413.365	1639
413.589	1652
413.812	1613
414.035	1607
414.258	1589
414.482	1628
414.705	1632
414.928	1646
415.151	1571
415.374	1607
415.597	1618
415.821	1546
416.044	1560
416.267	1581
416.49	1573
416.713	1573
416.936	1561
417.159	1542
417.382	1567
417.605	1564
417.828	1577
418.051	1587
418.274	1576
418.497	1570
418.72	1598
418.943	1581
419.166	1693
419.389	1823
419.611	1793
419.834	1705
420.057	1640
420.28	1605
420.503	1569
420.726	1557
420.948	1559
421.171	1564
421.394	1590
421.617	1539
421.839	1582
422.062	1581
422.285	1565
422.507	1606
422.73	1610
422.953	1586
423.175	1639
423.398	1636
423.621	1625
423.843	1630
424.066	1622
424.288	1634
424.511	1627
424.733	1632
424.956	1630
425.178	1598
425.401	1614
425.623	1600
425.846	1545
426.068	1555
426.291	1503
426.513	1557
426.735	1536
426.958	1501
427.18	1450
427.402	1507
427.625	1475
427.847	1470
428.069	1477
428.292	1490
428.514	1462
428.736	1482
428.958	1487
429.181	1443
429.403	1420
429.625	1438
429.847	1398
430.069	1433
430.292	1434
430.514	1443
430.736	1464
430.958	1441
431.18	1411
431.402	1471
431.624	1428
431.846	1455
432.068	1450
432.29	1491
432.512	1426
432.734	1455
432.956	1401
433.178	1463
433.4	1463
433.622	1505
433.844	1493
434.066	1498
434.287	1511
434.509	1509
434.731	1594
434.953	1618
435.175	1607
435.397	1566
435.618	1546
435.84	1509
436.062	1466
436.284	1475
436.505	1468
436.727	1463
436.949	1495
437.17	1461
437.392	1448
437.614	1461
437.835	1391
438.057	1441
438.278	1375
438.5	1434
438.721	1394
438.943	1424
439.165	1426
439.386	1451
439.608	1419
439.829	1459
440.05	1470
440.272	1473
440.493	1469
440.715	1488
440.936	1488
441.158	1527
441.379	1594
441.6	1601
441.822	1597
442.043	1603
442.264	1594
442.486	1573
442.707	1646
442.928	1559
443.149	1610
443.371	1577
443.592	1637
443.813	1607
444.034	1601
444.255	1657
444.476	1699
444.698	1821
444.919	1885
445.14	1922
445.361	1764
445.582	1689
445.803	1627
446.024	1567
446.245	1567
446.466	1511
446.687	1522
446.908	1519
447.129	1473
447.35	1438
447.571	1405
447.792	1397
448.013	1390
448.234	1384
448.455	1387
448.675	1348
448.896	1350
449.117	1326
449.338	1380
449.559	1342
449.779	1338
450	1355
450.221	1335
450.442	1329
450.662	1333
450.883	1379
451.104	1365
451.324	1382
451.545	1360
451.766	1361
451.986	1355
452.207	1344
452.428	1332
452.648	1304
452.869	1295
453.089	1293
453.31	1316
453.53	1292
453.751	1287
453.971	1306
454.192	1283
454.412	1316
454.633	1293
454.853	1271
455.073	1285
455.294	1327
455.514	1287
455.734	1291
455.955	1282
456.175	1294
456.395	1294
456.616	1269
456.836	1274
457.056	1269
457.276	1263
457.497	1289
457.717	1272
457.937	1280
458.157	1308
458.377	1306
458.598	1330
458.818	1369
459.038	1399
459.258	1437
459.478	1490
459.698	1580
459.918	1619
460.138	1638
460.358	1681
460.578	1703
460.798	1731
461.018	1768
461.238	1706
461.458	1716
461.678	1690
461.898	1720
462.118	1739
462.338	1822
462.558	1914
462.777	1946
462.997	2083
463.217	2135
463.437	2185
463.657	2053
463.876	1988
464.096	2006
464.316	1942
464.536	1981
464.755	1881
464.975	1813
465.195	1784
465.414	1718
465.634	1622
465.854	1573
466.073	1564
466.293	1505
466.512	1460
466.732	1455
466.951	1513
467.171	1482
467.391	1410
467.61	1396
467.829	1443
468.049	1409
468.268	1363
468.488	1395
468.707	1394
468.927	1404
469.146	1406
469.365	1415
469.585	1404
469.804	1437
470.023	1464
470.243	1437
470.462	1482
470.681	1455
470.901	1451
471.12	1431
471.339	1434
471.558	1447
471.777	1421
471.997	1409
472.216	1437
472.435	1374
472.654	1367
472.873	1351
473.092	1363
473.311	1339
473.53	1375
473.749	1384
473.968	1346
474.187	1363
474.406	1324
474.625	1374
474.844	1385
475.063	1376
475.282	1390
475.501	1433
475.72	1422
475.939	1419
476.158	1428
476.377	1452
476.596	1433
476.814	1475
477.033	1463
477.252	1483
477.471	1501
477.69	1541
477.908	1565
478.127	1589
478.346	1615
478.564	1654
478.783	1639
479.002	1733
479.22	1704
479.439	1722
479.658	1687
479.876	1693
480.095	1710
480.313	1780
480.532	1826
480.751	1793
480.969	1767
481.188	1719
481.406	1641
481.624	1623
481.843	1619
482.061	1607
482.28	1601
482.498	1588
482.717	1561
482.935	1608
483.153	1618
483.372	1625
483.59	1633
483.808	1610
484.027	1616
484.245	1611
484.463	1631
484.681	1645
484.9	1647
485.118	1661
485.336	1642
485.554	1647
485.772	1673
485.99	1665
486.209	1638
486.427	1657
486.645	1683
486.863	1681
487.081	1648
487.299	1667
487.517	1678
487.735	1663
487.953	1700
488.171	1689
488.389	1632
488.607	1641
488.825	1697
489.043	1638
489.261	1660
489.479	1663
489.696	1677
489.914	1661
490.132	1660
490.35	1624
490.568	1684
490.786	1681
491.003	1706
491.221	1714
491.439	1698
491.657	1709
491.874	1705
492.092	1725
492.31	1715
492.527	1722
492.745	1756
492.963	1729
493.18	1744
493.398	1756
493.615	1730
493.833	1722
494.05	1783
494.268	1754
494.485	1749
494.703	1829
494.92	1785
495.138	1778
495.355	1813
495.573	1758
495.79	1831
496.008	1818
496.225	1833
496.442	1839
496.66	1894
496.877	1848
497.094	1958
497.312	1981
497.529	1984
497.746	2036
497.963	2115
498.181	2177
498.398	2266
498.615	2393
498.832	2549
499.049	2698
499.267	2875
499.484	3114
499.701	3295
499.918	3614
500.135	4023
500.352	4370
500.569	4529
500.786	4435
501.003	4333
501.22	3958
501.437	3601
501.654	3257
501.871	3039
502.088	2863
502.305	2702
502.522	2575
502.739	2437
502.956	2306
503.172	2207
503.389	2154
503.606	2109
503.823	2089
504.04	2056
504.256	2011
504.473	2084
504.69	2055
504.907	2013
505.123	1923
505.34	1852
505.557	1838
505.773	1747
505.99	1686
506.207	1637
506.423	1640
506.64	1622
506.856	1629
507.073	1559
507.289	1571
507.506	1570
507.722	1559
507.939	1527
508.155	1567
508.372	1518
508.588	1504
508.805	1519
509.021	1500
509.238	1496
509.454	1476
509.67	1438
509.887	1446
510.103	1448
510.319	1392
510.536	1413
510.752	1450
510.968	1415
511.184	1395
511.401	1409
511.617	1434
511.833	1349
512.049	1362
512.265	1405
512.481	1444
512.698	1379
512.914	1391
513.13	1399
513.346	1392
513.562	1406
513.778	1437
513.994	1422
514.21	1447
514.426	1406
514.642	1436
514.858	1451
515.074	1475
515.29	1490
515.506	1438
515.721	1472
515.937	1499
516.153	1537
516.369	1559
516.585	1635
516.801	1641
517.016	1686
517.232	1723
517.448	1808
517.664	1818
517.879	1848
518.095	1791
518.311	1795
518.527	1786
518.742	1716
518.958	1613
519.173	1626
519.389	1582
519.605	1527
519.82	1493
520.036	1518
520.251	1448
520.467	1451
520.682	1413
520.898	1409
521.113	1391
521.329	1405
521.544	1391
521.76	1331
521.975	1329
522.19	1334
522.406	1344
522.621	1327
522.836	1348
523.052	1347
523.267	1304
523.482	1316
523.698	1330
523.913	1277
524.128	1312
524.343	1302
524.559	1276
524.774	1287
524.989	1239
525.204	1277
525.419	1257
525.634	1273
525.849	1267
526.064	1237
526.28	1269
526.495	1268
526.71	1255
526.925	1249
527.14	1249
527.355	1251
527.57	1214
527.785	1233
527.999	1245
528.214	1219
528.429	1255
528.644	1245
528.859	1246
529.074	1257
529.289	1264
529.503	1251
529.718	1241
529.933	1242
530.148	1220
530.363	1234
530.577	1195
530.792	1229
531.007	1256
531.221	1229
531.436	1200
531.651	1231
531.865	1247
532.08	1254
532.295	1240
532.509	1245
532.724	1233
532.938	1230
533.153	1249
533.367	1207
533.582	1190
533.796	1240
534.011	1204
534.225	1199
534.44	1195
534.654	1199
534.868	1191
535.083	1208
535.297	1193
535.511	1174
535.726	1175
535.94	1172
536.154	1169
536.369	1158
536.583	1152
536.797	1142
537.011	1150
537.225	1127
537.44	1143
537.654	1154
537.868	1161
538.082	1126
538.296	1122
538.51	1108
538.724	1140
538.938	1123
539.153	1109
539.367	1146
539.581	1109
539.795	1111
540.009	1097
540.222	1091
540.436	1130
540.65	1089
540.864	1121
541.078	1118
541.292	1149
541.506	1135
541.72	1121
541.934	1113
542.147	1147
542.361	1113
542.575	1073
542.789	1095
543.002	1101
543.216	1096
543.43	1097
543.644	1110
543.857	1086
544.071	1124
544.285	1107
544.498	1098
544.712	1121
544.925	1131
545.139	1119
545.352	1118
545.566	1130
545.779	1152
545.993	1133
546.206	1171
546.42	1153
546.633	1115
546.847	1144
547.06	1105
547.274	1135
547.487	1145
547.7	1155
547.914	1193
548.127	1159
548.34	1146
548.554	1106
548.767	1106
548.98	1143
549.193	1175
549.407	1144
549.62	1149
549.833	1146
550.046	1157
550.259	1160
550.473	1114
550.686	1128
550.899	1130
551.112	1131
551.325	1125
551.538	1106
551.751	1103
551.964	1107
552.177	1139
552.39	1135
552.603	1135
552.816	1173
553.029	1169
553.242	1197
553.455	1198
553.667	1224
553.88	1191
554.093	1154
554.306	1137
554.519	1109
554.732	1085
554.944	1074
555.157	1055
555.37	1067
555.583	1063
555.795	1043
556.008	1005
556.221	994
556.433	991
556.646	999
556.859	965
557.071	972
557.284	959
557.496	926
557.709	945
557.921	957
558.134	965
558.346	956
558.559	935
558.771	930
558.984	958
559.196	945
559.409	953
559.621	932
559.833	907
560.046	928
560.258	916
560.47	899
560.683	907
560.895	917
561.107	917
561.32	903
561.532	925
561.744	907
561.956	924
562.168	935
562.381	914
562.593	898
562.805	942
563.017	937
563.229	945
563.441	928
563.653	927
563.865	946
564.077	982
564.289	967
564.501	980
564.713	1013
564.925	985
565.137	1020
565.349	1048
565.561	1062
565.773	1083
565.985	1147
566.197	1219
566.408	1248
566.62	1324
566.832	1406
567.044	1397
567.255	1389
567.467	1446
567.679	1472
567.891	1539
568.102	1553
568.314	1501
568.526	1375
568.737	1289
568.949	1220
569.161	1138
569.372	1086
569.584	1041
569.795	1010
570.007	982
570.218	973
570.43	950
570.641	961
570.853	922
571.064	925
571.276	915
571.487	895
571.698	861
571.91	857
572.121	835
572.333	829
572.544	797
572.755	794
572.966	795
573.178	779
573.389	770
573.6	761
573.811	770
574.023	758
574.234	735
574.445	737
574.656	770
574.867	766
575.078	746
575.289	737
575.501	713
575.712	750
575.923	727
576.134	695
576.345	694
576.556	697
576.767	682
576.978	693
577.188	696
577.399	697
577.61	682
577.821	682
578.032	664
578.243	669
578.454	696
578.665	663
578.875	664
579.086	657
579.297	650
579.508	656
579.718	654
579.929	634
580.14	650
580.35	641
580.561	655
580.772	646
580.982	653
581.193	645
581.403	639
581.614	636
581.825	606
582.035	616
582.246	600
582.456	617
582.667	638
582.877	628
583.087	599
583.298	600
583.508	610
583.719	615
583.929	637
584.139	588
584.35	596
584.56	598
584.77	601
584.981	584
585.191	581
585.401	606
585.611	591
585.821	601
586.032	599
586.242	602
586.452	599
586.662	575
586.872	599
587.082	599
587.292	597
587.502	569
587.713	590
587.923	586
588.133	582
588.343	600
588.553	570
588.762	594
588.972	607
589.182	860
589.392	831
589.602	646
589.812	808
590.022	698
590.232	616
590.441	581
590.651	601
590.861	582
591.071	604
591.281	596
591.49	636
591.7	632
591.91	613
592.119	621
592.329	633
592.539	641
592.748	658
592.958	675
593.167	664
593.377	711
593.587	720
593.796	705
594.006	710
594.215	680
594.424	702
594.634	680
594.843	678
595.053	646
595.262	652
595.472	596
595.681	598
595.89	599
596.1	587
596.309	581
596.518	558
596.727	548
596.937	559
597.146	537
597.355	525
597.564	512
597.774	519
597.983	535
598.192	520
598.401	515
598.61	503
598.819	515
599.028	478
599.237	511
599.446	490
599.655	505
599.864	494
600.073	467
600.282	487
600.491	494
600.7	486
600.909	462
601.118	475
601.327	477
601.536	460
601.745	469
601.953	478
602.162	459
602.371	476
602.58	465
602.789	455
602.997	465
603.206	461
603.415	454
603.623	450
603.832	440
604.041	451
604.249	430
604.458	439
604.666	452
604.875	436
605.084	449
605.292	451
605.501	448
605.709	427
605.918	424
606.126	439
606.334	447
606.543	449
606.751	449
606.96	426
607.168	414
607.376	426
607.585	433
607.793	429
608.001	417
608.21	433
608.418	404
608.626	415
608.834	432
609.043	441
609.251	418
609.459	424
609.667	423
609.875	407
610.083	426
610.291	439
610.499	419
610.707	394
610.916	425
611.124	422
611.332	414
611.54	405
611.748	431
611.955	413
612.163	416
612.371	415
612.579	388
612.787	415
612.995	426
613.203	407
613.411	378
613.618	378
613.826	394
614.034	418
614.242	393
614.449	393
614.657	393
614.865	399
615.072	403
615.28	391
615.488	401
615.695	392
615.903	392
616.111	394
616.318	401
616.526	410
616.733	405
616.941	389
617.148	387
617.356	396
617.563	397
617.771	424
617.978	386
618.185	394
618.393	389
618.6	387
618.807	383
619.015	398
619.222	395
619.429	378
619.637	379
619.844	393
620.051	370
620.258	370
620.466	375
620.673	349
620.88	362
621.087	375
621.294	357
621.501	373
621.708	355
621.915	368
622.122	367
622.329	359
622.536	385
622.743	358
622.95	353
623.157	379
623.364	357
623.571	344
623.778	363
623.985	344
624.192	342
624.399	339
624.606	335
624.812	359
625.019	346
625.226	359
625.433	361
625.639	335
625.846	327
626.053	339
626.259	339
626.466	339
626.673	342
626.879	314
627.086	325
627.293	312
627.499	337
627.706	335
627.912	314
628.119	307
628.325	314
628.532	322
628.738	325
628.945	317
629.151	309
629.357	315
629.564	294
629.77	301
629.976	313
630.183	307
630.389	302
630.595	325
630.802	292
631.008	286
631.214	303
631.42	308
631.627	317
631.833	305
632.039	298
632.245	306
632.451	314
632.657	302
632.863	306
633.069	303
633.275	318
633.481	286
633.688	285
633.893	312
634.099	295
634.305	284
634.511	291
634.717	291
634.923	289
635.129	285
635.335	277
635.541	262
635.747	287
635.952	293
636.158	291
636.364	278
636.57	268
636.775	279
636.981	287
637.187	264
637.392	279
637.598	278
637.804	285
638.009	267
638.215	286
638.421	266
638.626	274
638.832	262
639.037	270
639.243	263
639.448	271
639.654	268
639.859	254
640.065	275
640.27	265
640.475	261
640.681	263
640.886	253
641.091	264
641.297	267
641.502	281
641.707	266
641.913	255
642.118	250
642.323	246
642.528	250
642.733	267
642.939	237
643.144	260
643.349	252
643.554	257
643.759	261
643.964	247
644.169	234
644.374	253
644.579	253
644.784	257
644.989	261
645.194	245
645.399	246
645.604	251
645.809	237
646.014	262
646.219	253
646.423	246
646.628	241
646.833	253
647.038	260
647.243	255
647.447	261
647.652	246
647.857	257
648.062	269
648.266	273
648.471	262
648.676	261
648.88	260
649.085	270
649.289	241
649.494	262
649.698	225
649.903	223
650.107	231
650.312	249
650.516	242
650.721	234
650.925	244
651.13	239
651.334	225
651.539	213
651.743	237
651.947	225
652.152	212
652.356	218
652.56	211
652.764	208
652.969	216
653.173	213
653.377	205
653.581	192
653.785	186
653.99	185
654.194	202
654.398	195
654.602	191
654.806	196
655.01	181
655.214	176
655.418	186
655.622	191
655.826	187
656.03	177
656.234	191
656.438	192
656.642	179
656.846	182
657.049	181
657.253	186
657.457	166
657.661	161
657.865	149
658.068	151
658.272	135
658.476	135
658.68	122
658.883	131
659.087	127
659.291	121
659.494	127
659.698	139
659.901	115
660.105	106
660.309	94
660.512	102
660.716	107
660.919	104
661.123	105
661.326	98
661.53	104
661.733	87
661.936	99
662.14	99
662.343	108
662.546	87
662.75	90
662.953	76
663.156	82
663.36	78
663.563	82
663.766	76
663.969	79
664.173	81
664.376	76
664.579	81
664.782	84
664.985	89
665.188	74
665.391	71
665.594	82
665.797	63
666	78
666.203	81
666.406	75
666.609	68
666.812	86
667.015	89
667.218	82
667.421	83
667.624	78
667.827	80
668.03	80
668.232	78
668.435	84
668.638	77
668.841	106
669.043	80
669.246	74
669.449	75
669.651	86
669.854	71
670.057	74
670.259	78
670.462	76
670.665	87
670.867	86
671.07	74
671.272	86
671.475	85
671.677	83
671.88	77
672.082	80
672.284	66
672.487	76
672.689	83
672.892	73
