Data from NiCl2@0.25M.TitratingCurve.Agarose3%dH2O.NegLispCup.LampEnergy10.LIBS07252019_HRD10591_18-23-29-573.txt Node
Date: Thu Jul 25 18:23:29 EDT 2019
User: cochatt
Spectrometer: HR+D1059
Trigger mode: 1
Integration Time (sec): 1.000000E-1
Scans to average: 1
Electric dark correction enabled: true
Nonlinearity correction enabled: false
Boxcar width: 0
XAxis mode: Wavelengths
Number of Pixels in Spectrum: 2048
>>>>>Begin Spectral Data<<<<<
223.165	-18
223.4	-18
223.635	-18
223.869	-9
224.104	-14
224.338	-9
224.573	-19
224.808	-11
225.042	-15
225.277	-6
225.511	-12
225.746	7
225.98	8
226.215	-2
226.449	10
226.683	25
226.918	27
227.152	38
227.387	35
227.621	41
227.856	41
228.09	57
228.324	29
228.559	58
228.793	64
229.027	115
229.262	130
229.496	130
229.73	142
229.964	142
230.199	138
230.433	149
230.667	129
230.901	146
231.136	153
231.37	147
231.604	138
231.838	145
232.072	142
232.306	160
232.541	156
232.775	156
233.009	162
233.243	172
233.477	174
233.711	178
233.945	162
234.179	154
234.413	169
234.647	155
234.881	151
235.115	159
235.349	171
235.583	155
235.817	167
236.051	159
236.285	152
236.519	177
236.753	166
236.987	184
237.221	153
237.455	180
237.689	183
237.922	195
238.156	179
238.39	172
238.624	172
238.858	181
239.091	193
239.325	190
239.559	181
239.793	191
240.027	194
240.26	197
240.494	200
240.728	194
240.961	194
241.195	193
241.429	217
241.662	203
241.896	221
242.13	211
242.363	202
242.597	200
242.83	215
243.064	213
243.298	233
243.531	221
243.765	222
243.998	219
244.232	230
244.465	242
244.699	235
244.932	242
245.166	223
245.399	260
245.633	248
245.866	231
246.099	233
246.333	238
246.566	257
246.8	249
247.033	232
247.266	254
247.5	253
247.733	240
247.966	270
248.2	272
248.433	271
248.666	263
248.899	249
249.133	260
249.366	264
249.599	257
249.832	259
250.066	273
250.299	266
250.532	296
250.765	288
250.998	279
251.231	281
251.465	287
251.698	289
251.931	296
252.164	292
252.397	318
252.63	303
252.863	305
253.096	292
253.329	292
253.562	305
253.795	308
254.028	313
254.261	328
254.494	304
254.727	311
254.96	302
255.193	326
255.426	337
255.659	311
255.892	332
256.124	327
256.357	329
256.59	321
256.823	306
257.056	322
257.289	329
257.521	344
257.754	338
257.987	340
258.22	354
258.452	322
258.685	330
258.918	339
259.151	341
259.383	338
259.616	331
259.849	336
260.081	380
260.314	340
260.547	348
260.779	364
261.012	359
261.244	362
261.477	363
261.71	367
261.942	378
262.175	368
262.407	377
262.64	354
262.872	366
263.105	363
263.337	364
263.57	371
263.802	386
264.035	371
264.267	379
264.499	385
264.732	378
264.964	385
265.197	378
265.429	380
265.661	393
265.894	405
266.126	388
266.358	391
266.591	385
266.823	399
267.055	398
267.287	403
267.52	406
267.752	400
267.984	422
268.216	409
268.448	419
268.681	425
268.913	411
269.145	412
269.377	424
269.609	418
269.841	416
270.073	416
270.306	410
270.538	433
270.77	417
271.002	436
271.234	412
271.466	436
271.698	427
271.93	440
272.162	429
272.394	444
272.626	444
272.858	449
273.09	425
273.322	457
273.553	444
273.785	443
274.017	449
274.249	456
274.481	443
274.713	454
274.945	463
275.176	455
275.408	455
275.64	474
275.872	465
276.104	465
276.335	481
276.567	473
276.799	483
277.031	484
277.262	486
277.494	461
277.726	481
277.957	482
278.189	462
278.421	471
278.652	490
278.884	510
279.115	485
279.347	505
279.579	494
279.81	514
280.042	465
280.273	501
280.505	523
280.736	538
280.968	513
281.199	524
281.431	497
281.662	512
281.894	511
282.125	504
282.356	523
282.588	552
282.819	537
283.051	537
283.282	547
283.513	536
283.745	553
283.976	545
284.207	560
284.439	560
284.67	554
284.901	545
285.132	545
285.364	550
285.595	536
285.826	563
286.057	562
286.288	551
286.52	552
286.751	570
286.982	566
287.213	554
287.444	574
287.675	571
287.906	590
288.138	583
288.369	578
288.6	584
288.831	600
289.062	583
289.293	607
289.524	579
289.755	597
289.986	582
290.217	581
290.448	576
290.679	574
290.91	580
291.141	595
291.371	567
291.602	587
291.833	575
292.064	599
292.295	586
292.526	575
292.757	606
292.987	609
293.218	604
293.449	604
293.68	593
293.91	592
294.141	577
294.372	590
294.603	592
294.833	608
295.064	604
295.295	612
295.525	579
295.756	618
295.987	633
296.217	606
296.448	612
296.679	614
296.909	623
297.14	640
297.37	653
297.601	643
297.831	622
298.062	647
298.292	665
298.523	660
298.753	652
298.984	653
299.214	629
299.445	627
299.675	650
299.905	632
300.136	650
300.366	652
300.597	653
300.827	654
301.057	660
301.288	680
301.518	683
301.748	682
301.979	671
302.209	701
302.439	706
302.669	668
302.9	676
303.13	678
303.36	666
303.59	661
303.82	641
304.051	673
304.281	682
304.511	694
304.741	684
304.971	643
305.201	666
305.431	670
305.661	665
305.891	647
306.121	649
306.352	692
306.582	658
306.812	660
307.042	673
307.272	651
307.502	680
307.731	672
307.961	637
308.191	651
308.421	652
308.651	683
308.881	658
309.111	643
309.341	648
309.571	659
309.8	672
310.03	682
310.26	663
310.49	657
310.72	688
310.949	662
311.179	667
311.409	668
311.639	676
311.868	680
312.098	679
312.328	669
312.557	709
312.787	688
313.017	696
313.246	722
313.476	698
313.706	712
313.935	733
314.165	723
314.394	745
314.624	714
314.853	708
315.083	695
315.312	713
315.542	715
315.771	697
316.001	725
316.23	698
316.46	674
316.689	709
316.919	672
317.148	705
317.377	698
317.607	708
317.836	686
318.065	697
318.295	700
318.524	699
318.753	696
318.983	705
319.212	672
319.441	674
319.67	662
319.9	700
320.129	696
320.358	687
320.587	686
320.816	695
321.046	719
321.275	707
321.504	703
321.733	730
321.962	710
322.191	693
322.42	710
322.649	677
322.878	704
323.108	711
323.337	714
323.566	707
323.795	711
324.024	742
324.253	714
324.482	734
324.71	745
324.939	751
325.168	766
325.397	755
325.626	724
325.855	745
326.084	747
326.313	744
326.542	805
326.77	785
326.999	752
327.228	748
327.457	752
327.686	745
327.914	774
328.143	800
328.372	758
328.6	779
328.829	760
329.058	785
329.287	782
329.515	798
329.744	785
329.972	779
330.201	752
330.43	800
330.658	776
330.887	794
331.115	797
331.344	798
331.572	801
331.801	829
332.03	834
332.258	877
332.486	934
332.715	934
332.943	960
333.172	975
333.4	1026
333.629	1066
333.857	1050
334.085	1055
334.314	1003
334.542	1001
334.771	986
334.999	963
335.227	968
335.455	969
335.684	926
335.912	956
336.14	944
336.369	929
336.597	930
336.825	940
337.053	932
337.281	927
337.51	883
337.738	906
337.966	870
338.194	881
338.422	871
338.65	834
338.878	846
339.106	828
339.334	834
339.562	838
339.79	832
340.018	816
340.246	792
340.474	798
340.702	799
340.93	824
341.158	815
341.386	827
341.614	835
341.842	810
342.07	810
342.298	800
342.526	823
342.754	838
342.981	820
343.209	820
343.437	840
343.665	915
343.893	983
344.12	994
344.348	959
344.576	893
344.804	895
345.031	845
345.259	832
345.487	827
345.714	790
345.942	798
346.17	820
346.397	811
346.625	798
346.853	759
347.08	751
347.308	789
347.535	765
347.763	784
347.99	780
348.218	789
348.445	809
348.673	777
348.9	768
349.128	786
349.355	781
349.583	775
349.81	762
350.037	784
350.265	755
350.492	753
350.72	736
350.947	759
351.174	779
351.402	776
351.629	741
351.856	720
352.083	731
352.311	763
352.538	755
352.765	755
352.992	739
353.22	758
353.447	738
353.674	758
353.901	740
354.128	726
354.355	719
354.583	732
354.81	719
355.037	767
355.264	748
355.491	745
355.718	729
355.945	753
356.172	739
356.399	778
356.626	756
356.853	772
357.08	746
357.307	764
357.534	767
357.761	762
357.988	748
358.215	730
358.441	737
358.668	735
358.895	744
359.122	759
359.349	760
359.576	756
359.802	770
360.029	728
360.256	735
360.483	758
360.709	762
360.936	732
361.163	731
361.39	741
361.616	767
361.843	752
362.07	752
362.296	755
362.523	734
362.749	725
362.976	738
363.203	748
363.429	729
363.656	752
363.882	737
364.109	751
364.335	741
364.562	726
364.788	737
365.015	764
365.241	752
365.468	724
365.694	728
365.92	736
366.147	726
366.373	734
366.599	721
366.826	728
367.052	725
367.278	752
367.505	746
367.731	769
367.957	737
368.184	744
368.41	769
368.636	772
368.862	771
369.089	783
369.315	750
369.541	788
369.767	762
369.993	763
370.219	785
370.445	805
370.672	780
370.898	762
371.124	794
371.35	796
371.576	804
371.802	827
372.028	789
372.254	812
372.48	815
372.706	835
372.932	814
373.158	832
373.384	832
373.61	817
373.835	834
374.061	812
374.287	835
374.513	838
374.739	860
374.965	891
375.191	898
375.416	898
375.642	889
375.868	866
376.094	820
376.319	850
376.545	824
376.771	830
376.997	826
377.222	816
377.448	797
377.674	810
377.899	816
378.125	795
378.35	815
378.576	808
378.802	820
379.027	814
379.253	802
379.478	790
379.704	809
379.929	793
380.155	780
380.38	794
380.606	799
380.831	836
381.057	825
381.282	812
381.507	811
381.733	800
381.958	822
382.184	809
382.409	830
382.634	864
382.86	867
383.085	863
383.31	872
383.535	893
383.761	885
383.986	906
384.211	934
384.436	927
384.662	966
384.887	968
385.112	953
385.337	955
385.562	983
385.787	944
386.013	1011
386.238	966
386.463	974
386.688	993
386.913	944
387.138	973
387.363	964
387.588	969
387.813	971
388.038	968
388.263	941
388.488	984
388.713	961
388.938	937
389.163	932
389.387	938
389.612	953
389.837	930
390.062	934
390.287	936
390.512	955
390.736	968
390.961	968
391.186	1011
391.411	1034
391.636	1046
391.86	1095
392.085	1124
392.31	1093
392.534	1082
392.759	1039
392.984	1013
393.208	1027
393.433	1012
393.658	1027
393.882	1038
394.107	1033
394.331	1042
394.556	1039
394.78	1023
395.005	1046
395.229	1042
395.454	1087
395.678	1126
395.903	1105
396.127	1092
396.352	1040
396.576	1016
396.801	1004
397.025	1042
397.249	1082
397.474	1109
397.698	1096
397.922	1108
398.147	1108
398.371	1118
398.595	1152
398.82	1225
399.044	1298
399.268	1459
399.492	1684
399.717	1846
399.941	1904
400.165	1641
400.389	1540
400.613	1363
400.837	1292
401.062	1239
401.286	1207
401.51	1249
401.734	1234
401.958	1246
402.182	1267
402.406	1257
402.63	1245
402.854	1310
403.078	1360
403.302	1356
403.526	1407
403.75	1426
403.974	1436
404.198	1444
404.422	1468
404.645	1429
404.869	1399
405.093	1393
405.317	1371
405.541	1366
405.765	1342
405.988	1341
406.212	1355
406.436	1326
406.66	1375
406.883	1404
407.107	1475
407.331	1555
407.555	1577
407.778	1574
408.002	1538
408.226	1491
408.449	1456
408.673	1412
408.896	1410
409.12	1413
409.344	1375
409.567	1376
409.791	1398
410.014	1364
410.238	1382
410.461	1352
410.685	1353
410.908	1311
411.132	1305
411.355	1262
411.578	1263
411.802	1281
412.025	1289
412.249	1300
412.472	1282
412.695	1239
412.919	1238
413.142	1226
413.365	1195
413.589	1248
413.812	1227
414.035	1207
414.258	1222
414.482	1230
414.705	1221
414.928	1246
415.151	1200
415.374	1216
415.597	1185
415.821	1215
416.044	1207
416.267	1168
416.49	1185
416.713	1193
416.936	1220
417.159	1187
417.382	1212
417.605	1190
417.828	1154
418.051	1223
418.274	1232
418.497	1206
418.72	1254
418.943	1222
419.166	1300
419.389	1396
419.611	1374
419.834	1328
420.057	1294
420.28	1242
420.503	1224
420.726	1203
420.948	1170
421.171	1190
421.394	1200
421.617	1194
421.839	1213
422.062	1238
422.285	1199
422.507	1225
422.73	1262
422.953	1264
423.175	1246
423.398	1256
423.621	1244
423.843	1276
424.066	1298
424.288	1292
424.511	1276
424.733	1251
424.956	1214
425.178	1216
425.401	1229
425.623	1199
425.846	1170
426.068	1160
426.291	1148
426.513	1190
426.735	1169
426.958	1135
427.18	1098
427.402	1100
427.625	1117
427.847	1089
428.069	1090
428.292	1066
428.514	1084
428.736	1043
428.958	1055
429.181	1009
429.403	1017
429.625	1011
429.847	1068
430.069	1026
430.292	1060
430.514	1029
430.736	1057
430.958	1060
431.18	1040
431.402	1063
431.624	1039
431.846	1098
432.068	1080
432.29	1087
432.512	1057
432.734	1093
432.956	1075
433.178	1078
433.4	1063
433.622	1066
433.844	1056
434.066	1090
434.287	1076
434.509	1135
434.731	1170
434.953	1219
435.175	1184
435.397	1186
435.618	1115
435.84	1090
436.062	1090
436.284	1061
436.505	1064
436.727	1039
436.949	1054
437.17	1042
437.392	1030
437.614	1010
437.835	1028
438.057	1002
438.278	1025
438.5	982
438.721	1008
438.943	1044
439.165	1034
439.386	1001
439.608	1042
439.829	1042
440.05	1077
440.272	1053
440.493	1060
440.715	1081
440.936	1098
441.158	1136
441.379	1142
441.6	1179
441.822	1208
442.043	1225
442.264	1214
442.486	1176
442.707	1173
442.928	1203
443.149	1201
443.371	1191
443.592	1172
443.813	1203
444.034	1211
444.255	1259
444.476	1304
444.698	1410
444.919	1429
445.14	1532
445.361	1368
445.582	1207
445.803	1168
446.024	1104
446.245	1124
446.466	1114
446.687	1063
446.908	1074
447.129	1030
447.35	1011
447.571	1031
447.792	996
448.013	1046
448.234	998
448.455	947
448.675	990
448.896	966
449.117	963
449.338	923
449.559	961
449.779	961
450	936
450.221	993
450.442	979
450.662	967
450.883	1000
451.104	999
451.324	1021
451.545	1006
451.766	967
451.986	950
452.207	962
452.428	951
452.648	990
452.869	929
453.089	928
453.31	979
453.53	917
453.751	935
453.971	935
454.192	958
454.412	917
454.633	911
454.853	929
455.073	923
455.294	931
455.514	898
455.734	886
455.955	905
456.175	911
456.395	904
456.616	891
456.836	889
457.056	885
457.276	880
457.497	919
457.717	922
457.937	919
458.157	902
458.377	929
458.598	969
458.818	984
459.038	988
459.258	1059
459.478	1074
459.698	1123
459.918	1159
460.138	1180
460.358	1238
460.578	1241
460.798	1257
461.018	1293
461.238	1254
461.458	1266
461.678	1229
461.898	1274
462.118	1250
462.338	1345
462.558	1371
462.777	1435
462.997	1556
463.217	1678
463.437	1674
463.657	1576
463.876	1466
464.096	1455
464.316	1444
464.536	1493
464.755	1420
464.975	1368
465.195	1312
465.414	1230
465.634	1153
465.854	1127
466.073	1094
466.293	1068
466.512	1039
466.732	990
466.951	1008
467.171	1010
467.391	1031
467.61	990
467.829	1026
468.049	993
468.268	953
468.488	963
468.707	973
468.927	982
469.146	979
469.365	998
469.585	972
469.804	1044
470.023	1026
470.243	1035
470.462	1054
470.681	1075
470.901	1070
471.12	1052
471.339	1028
471.558	982
471.777	1018
471.997	998
472.216	983
472.435	988
472.654	944
472.873	955
473.092	962
473.311	960
473.53	939
473.749	927
473.968	919
474.187	935
474.406	920
474.625	942
474.844	928
475.063	939
475.282	965
475.501	953
475.72	989
475.939	961
476.158	995
476.377	1007
476.596	970
476.814	992
477.033	1024
477.252	988
477.471	1063
477.69	1086
477.908	1101
478.127	1122
478.346	1139
478.564	1189
478.783	1168
479.002	1219
479.22	1214
479.439	1225
479.658	1175
479.876	1213
480.095	1212
480.313	1256
480.532	1293
480.751	1306
480.969	1224
481.188	1204
481.406	1144
481.624	1133
481.843	1096
482.061	1123
482.28	1087
482.498	1066
482.717	1061
482.935	1095
483.153	1099
483.372	1111
483.59	1084
483.808	1101
484.027	1090
484.245	1107
484.463	1092
484.681	1105
484.9	1115
485.118	1124
485.336	1120
485.554	1148
485.772	1152
485.99	1168
486.209	1132
486.427	1139
486.645	1127
486.863	1136
487.081	1162
487.299	1158
487.517	1170
487.735	1143
487.953	1176
488.171	1156
488.389	1115
488.607	1134
488.825	1088
489.043	1118
489.261	1119
489.479	1145
489.696	1151
489.914	1140
490.132	1138
490.35	1139
490.568	1121
490.786	1111
491.003	1145
491.221	1159
491.439	1189
491.657	1143
491.874	1164
492.092	1138
492.31	1152
492.527	1200
492.745	1159
492.963	1182
493.18	1172
493.398	1212
493.615	1180
493.833	1199
494.05	1213
494.268	1180
494.485	1225
494.703	1198
494.92	1220
495.138	1248
495.355	1226
495.573	1249
495.79	1238
496.008	1252
496.225	1221
496.442	1235
496.66	1284
496.877	1307
497.094	1319
497.312	1324
497.529	1357
497.746	1424
497.963	1435
498.181	1500
498.398	1584
498.615	1647
498.832	1781
499.049	1947
499.267	2110
499.484	2279
499.701	2518
499.918	2834
500.135	3233
500.352	3678
500.569	3814
500.786	3778
501.003	3503
501.22	3106
501.437	2718
501.654	2414
501.871	2188
502.088	2016
502.305	1885
502.522	1790
502.739	1744
502.956	1627
503.172	1557
503.389	1482
503.606	1401
503.823	1459
504.04	1415
504.256	1433
504.473	1429
504.69	1471
504.907	1454
505.123	1371
505.34	1277
505.557	1202
505.773	1206
505.99	1163
506.207	1170
506.423	1138
506.64	1110
506.856	1107
507.073	1100
507.289	1094
507.506	1091
507.722	1099
507.939	1060
508.155	1032
508.372	1072
508.588	1035
508.805	1040
509.021	1037
509.238	1010
509.454	988
509.67	1014
509.887	994
510.103	1010
510.319	1004
510.536	982
510.752	976
510.968	981
511.184	955
511.401	962
511.617	975
511.833	975
512.049	960
512.265	972
512.481	972
512.698	948
512.914	985
513.13	975
513.346	986
513.562	970
513.778	996
513.994	1007
514.21	1033
514.426	1014
514.642	967
514.858	1010
515.074	1013
515.29	1018
515.506	1014
515.721	1043
515.937	1079
516.153	1083
516.369	1118
516.585	1128
516.801	1148
517.016	1216
517.232	1247
517.448	1337
517.664	1386
517.879	1406
518.095	1378
518.311	1355
518.527	1282
518.742	1242
518.958	1174
519.173	1143
519.389	1133
519.605	1082
519.82	1080
520.036	1044
520.251	996
520.467	987
520.682	980
520.898	984
521.113	963
521.329	946
521.544	963
521.76	937
521.975	939
522.19	938
522.406	945
522.621	922
522.836	911
523.052	927
523.267	926
523.482	925
523.698	914
523.913	880
524.128	917
524.343	894
524.559	904
524.774	909
524.989	907
525.204	917
525.419	871
525.634	915
525.849	885
526.064	913
526.28	883
526.495	878
526.71	863
526.925	880
527.14	894
527.355	895
527.57	859
527.785	892
527.999	872
528.214	887
528.429	884
528.644	905
528.859	860
529.074	896
529.289	898
529.503	885
529.718	887
529.933	858
530.148	875
530.363	860
530.577	853
530.792	871
531.007	838
531.221	873
531.436	908
531.651	884
531.865	887
532.08	857
532.295	863
532.509	862
532.724	852
532.938	884
533.153	857
533.367	847
533.582	864
533.796	854
534.011	855
534.225	861
534.44	849
534.654	850
534.868	856
535.083	820
535.297	830
535.511	849
535.726	848
535.94	817
536.154	823
536.369	794
536.583	822
536.797	820
537.011	806
537.225	781
537.44	807
537.654	803
537.868	795
538.082	790
538.296	800
538.51	773
538.724	794
538.938	787
539.153	824
539.367	783
539.581	801
539.795	780
540.009	778
540.222	781
540.436	796
540.65	760
540.864	787
541.078	779
541.292	793
541.506	758
541.72	752
541.934	804
542.147	784
542.361	774
542.575	759
542.789	775
543.002	765
543.216	770
543.43	771
543.644	760
543.857	779
544.071	786
544.285	788
544.498	778
544.712	770
544.925	801
545.139	818
545.352	786
545.566	774
545.779	803
545.993	817
546.206	794
546.42	800
546.633	801
546.847	803
547.06	812
547.274	819
547.487	796
547.7	798
547.914	825
548.127	815
548.34	809
548.554	802
548.767	808
548.98	830
549.193	811
549.407	820
549.62	827
549.833	849
550.046	817
550.259	803
550.473	779
550.686	809
550.899	767
551.112	801
551.325	771
551.538	782
551.751	788
551.964	812
552.177	781
552.39	809
552.603	819
552.816	845
553.029	873
553.242	883
553.455	892
553.667	889
553.88	863
554.093	852
554.306	837
554.519	808
554.732	802
554.944	780
555.157	774
555.37	742
555.583	759
555.795	754
556.008	730
556.221	689
556.433	714
556.646	701
556.859	673
557.071	693
557.284	681
557.496	697
557.709	669
557.921	670
558.134	693
558.346	660
558.559	653
558.771	683
558.984	656
559.196	633
559.409	667
559.621	663
559.833	663
560.046	656
560.258	648
560.47	654
560.683	626
560.895	656
561.107	648
561.32	644
561.532	658
561.744	668
561.956	660
562.168	643
562.381	657
562.593	653
562.805	666
563.017	683
563.229	635
563.441	645
563.653	654
563.865	641
564.077	660
564.289	675
564.501	692
564.713	694
564.925	692
565.137	726
565.349	725
565.561	748
565.773	773
565.985	825
566.197	865
566.408	942
566.62	991
566.832	1083
567.044	1100
567.255	1090
567.467	1107
567.679	1202
567.891	1287
568.102	1289
568.314	1251
568.526	1122
568.737	1023
568.949	911
569.161	841
569.372	792
569.584	728
569.795	717
570.007	708
570.218	690
570.43	675
570.641	698
570.853	682
571.064	668
571.276	674
571.487	664
571.698	619
571.91	616
572.121	604
572.333	575
572.544	550
572.755	549
572.966	574
573.178	556
573.389	583
573.6	554
573.811	530
574.023	526
574.234	524
574.445	526
574.656	534
574.867	555
575.078	523
575.289	536
575.501	530
575.712	516
575.923	524
576.134	519
576.345	506
576.556	501
576.767	519
576.978	483
577.188	495
577.399	480
577.61	474
577.821	484
578.032	504
578.243	483
578.454	499
578.665	480
578.875	478
579.086	471
579.297	462
579.508	453
579.718	456
579.929	483
580.14	457
580.35	466
580.561	461
580.772	447
580.982	470
581.193	446
581.403	464
581.614	475
581.825	435
582.035	434
582.246	447
582.456	436
582.667	459
582.877	447
583.087	439
583.298	433
583.508	449
583.719	439
583.929	450
584.139	447
584.35	430
584.56	433
584.77	435
584.981	444
585.191	426
585.401	427
585.611	433
585.821	435
586.032	423
586.242	436
586.452	423
586.662	412
586.872	405
587.082	408
587.292	402
587.502	425
587.713	441
587.923	421
588.133	428
588.343	430
588.553	418
588.762	423
588.972	416
589.182	456
589.392	457
589.602	421
589.812	457
590.022	441
590.232	435
590.441	420
590.651	424
590.861	438
591.071	434
591.281	438
591.49	446
591.7	453
591.91	479
592.119	471
592.329	469
592.539	492
592.748	499
592.958	504
593.167	535
593.377	554
593.587	550
593.796	545
594.006	580
594.215	542
594.424	546
594.634	529
594.843	522
595.053	503
595.262	476
595.472	457
595.681	450
595.89	435
596.1	435
596.309	409
596.518	423
596.727	403
596.937	394
597.146	398
597.355	387
597.564	387
597.774	397
597.983	382
598.192	395
598.401	382
598.61	356
598.819	372
599.028	370
599.237	367
599.446	368
599.655	375
599.864	377
600.073	338
600.282	345
600.491	346
600.7	338
600.909	355
601.118	360
601.327	361
601.536	343
601.745	350
601.953	340
602.162	336
602.371	337
602.58	347
602.789	356
602.997	332
603.206	340
603.415	342
603.623	340
603.832	327
604.041	330
604.249	337
604.458	329
604.666	335
604.875	332
605.084	307
605.292	316
605.501	342
605.709	330
605.918	338
606.126	328
606.334	326
606.543	342
606.751	339
606.96	320
607.168	330
607.376	320
607.585	323
607.793	321
608.001	312
608.21	302
608.418	320
608.626	314
608.834	314
609.043	340
609.251	319
609.459	317
609.667	312
609.875	323
610.083	315
610.291	319
610.499	317
610.707	326
610.916	296
611.124	306
611.332	294
611.54	299
611.748	310
611.955	304
612.163	308
612.371	294
612.579	306
612.787	299
612.995	306
613.203	305
613.411	314
613.618	317
613.826	320
614.034	291
614.242	310
614.449	306
614.657	304
614.865	298
615.072	293
615.28	304
615.488	304
615.695	290
615.903	291
616.111	297
616.318	299
616.526	286
616.733	302
616.941	290
617.148	314
617.356	298
617.563	297
617.771	308
617.978	302
618.185	309
618.393	295
618.6	307
618.807	303
619.015	284
619.222	297
619.429	293
619.637	291
619.844	298
620.051	290
620.258	285
620.466	265
620.673	283
620.88	281
621.087	292
621.294	286
621.501	279
621.708	272
621.915	283
622.122	278
622.329	267
622.536	281
622.743	287
622.95	287
623.157	276
623.364	281
623.571	258
623.778	278
623.985	288
624.192	258
624.399	264
624.606	265
624.812	253
625.019	279
625.226	277
625.433	262
625.639	242
625.846	267
626.053	259
626.259	260
626.466	259
626.673	255
626.879	248
627.086	251
627.293	253
627.499	258
627.706	256
627.912	249
628.119	261
628.325	252
628.532	262
628.738	261
628.945	244
629.151	244
629.357	250
629.564	255
629.77	243
629.976	234
630.183	248
630.389	248
630.595	246
630.802	229
631.008	242
631.214	243
631.42	226
631.627	241
631.833	228
632.039	215
632.245	237
632.451	230
632.657	232
632.863	223
633.069	230
633.275	213
633.481	203
633.688	223
633.893	215
634.099	230
634.305	235
634.511	236
634.717	215
634.923	212
635.129	218
635.335	242
635.541	221
635.747	216
635.952	215
636.158	219
636.364	218
636.57	216
636.775	206
636.981	229
637.187	224
637.392	218
637.598	221
637.804	216
638.009	233
638.215	211
638.421	211
638.626	198
638.832	211
639.037	208
639.243	198
639.448	220
639.654	200
639.859	195
640.065	193
640.27	209
640.475	211
640.681	191
640.886	209
641.091	204
641.297	218
641.502	205
641.707	188
641.913	207
642.118	200
642.323	178
642.528	205
642.733	190
642.939	202
643.144	189
643.349	210
643.554	202
643.759	202
643.964	196
644.169	197
644.374	209
644.579	198
644.784	201
644.989	187
645.194	192
645.399	191
645.604	187
645.809	203
646.014	186
646.219	184
646.423	190
646.628	212
646.833	219
647.038	191
647.243	206
647.447	190
647.652	203
647.857	196
648.062	207
648.266	214
648.471	198
648.676	195
648.88	198
649.085	200
649.289	197
649.494	180
649.698	184
649.903	176
650.107	186
650.312	184
650.516	181
650.721	189
650.925	180
651.13	181
651.334	186
651.539	174
651.743	159
651.947	172
652.152	181
652.356	158
652.56	160
652.764	169
652.969	169
653.173	155
653.377	159
653.581	152
653.785	149
653.99	155
654.194	146
654.398	148
654.602	141
654.806	141
655.01	130
655.214	132
655.418	147
655.622	148
655.826	141
656.03	138
656.234	132
656.438	133
656.642	124
656.846	138
657.049	120
657.253	122
657.457	124
657.661	118
657.865	120
658.068	132
658.272	115
658.476	115
658.68	103
658.883	121
659.087	97
659.291	107
659.494	111
659.698	97
659.901	103
660.105	97
660.309	98
660.512	113
660.716	93
660.919	86
661.123	102
661.326	91
661.53	100
661.733	98
661.936	96
662.14	80
662.343	89
662.546	73
662.75	79
662.953	91
663.156	77
663.36	85
663.563	96
663.766	71
663.969	82
664.173	87
664.376	92
664.579	94
664.782	76
664.985	79
665.188	78
665.391	86
665.594	73
665.797	80
666	83
666.203	90
666.406	81
666.609	83
666.812	81
667.015	74
667.218	108
667.421	81
667.624	92
667.827	82
668.03	84
668.232	87
668.435	80
668.638	87
668.841	89
669.043	91
669.246	82
669.449	79
669.651	88
669.854	62
670.057	72
670.259	85
670.462	91
670.665	86
670.867	91
671.07	90
671.272	70
671.475	93
671.677	86
671.88	81
672.082	86
672.284	89
672.487	70
672.689	68
672.892	68
