Data from SnStandardFlinnAPT0064_LampEnergy5.5_LIBS07252019.E.O._I.C._HRD10591_15-16-48-491.txt Node
Date: Thu Jul 25 15:16:48 EDT 2019
User: cochatt
Spectrometer: HR+D1059
Trigger mode: 1
Integration Time (sec): 1.000000E-1
Scans to average: 1
Electric dark correction enabled: true
Nonlinearity correction enabled: false
Boxcar width: 0
XAxis mode: Wavelengths
Number of Pixels in Spectrum: 2048
>>>>>Begin Spectral Data<<<<<
223.165	-23
223.4	-23
223.635	-23
223.869	-31
224.104	-20
224.338	-4
224.573	-23
224.808	-9
225.042	-11
225.277	9
225.511	-7
225.746	18
225.98	17
226.215	7
226.449	21
226.683	9
226.918	20
227.152	27
227.387	43
227.621	42
227.856	51
228.09	49
228.324	51
228.559	65
228.793	88
229.027	170
229.262	160
229.496	156
229.73	145
229.964	154
230.199	149
230.433	160
230.667	155
230.901	177
231.136	176
231.37	182
231.604	200
231.838	221
232.072	259
232.306	248
232.541	220
232.775	199
233.009	204
233.243	198
233.477	223
233.711	241
233.945	284
234.179	248
234.413	214
234.647	239
234.881	234
235.115	250
235.349	271
235.583	332
235.817	444
236.051	447
236.285	319
236.519	246
236.753	225
236.987	224
237.221	253
237.455	251
237.689	223
237.922	235
238.156	221
238.39	253
238.624	226
238.858	229
239.091	243
239.325	223
239.559	251
239.793	250
240.027	260
240.26	259
240.494	257
240.728	259
240.961	269
241.195	295
241.429	306
241.662	313
241.896	332
242.13	427
242.363	535
242.597	695
242.83	655
243.064	639
243.298	777
243.531	672
243.765	426
243.998	341
244.232	329
244.465	319
244.699	301
244.932	301
245.166	302
245.399	302
245.633	287
245.866	309
246.099	307
246.333	298
246.566	299
246.8	322
247.033	301
247.266	282
247.5	295
247.733	307
247.966	323
248.2	353
248.433	383
248.666	443
248.899	428
249.133	370
249.366	378
249.599	394
249.832	448
250.066	459
250.299	374
250.532	354
250.765	345
250.998	351
251.231	341
251.465	332
251.698	333
251.931	339
252.164	344
252.397	363
252.63	361
252.863	359
253.096	351
253.329	348
253.562	360
253.795	366
254.028	362
254.261	373
254.494	398
254.727	457
254.96	550
255.193	529
255.426	441
255.659	390
255.892	381
256.124	382
256.357	400
256.59	395
256.823	437
257.056	465
257.289	543
257.521	594
257.754	496
257.987	418
258.22	420
258.452	419
258.685	404
258.918	407
259.151	445
259.383	451
259.616	544
259.849	536
260.081	462
260.314	447
260.547	443
260.779	428
261.012	464
261.244	423
261.477	448
261.71	439
261.942	443
262.175	458
262.407	461
262.64	478
262.872	488
263.105	509
263.337	532
263.57	557
263.802	594
264.035	566
264.267	581
264.499	611
264.732	640
264.964	625
265.197	621
265.429	647
265.661	651
265.894	683
266.126	744
266.358	831
266.591	796
266.823	721
267.055	634
267.287	621
267.52	582
267.752	566
267.984	557
268.216	575
268.448	564
268.681	547
268.913	529
269.145	556
269.377	560
269.609	583
269.841	563
270.073	595
270.306	672
270.538	929
270.77	1316
271.002	1616
271.234	1125
271.466	792
271.698	637
271.93	597
272.162	560
272.394	575
272.626	551
272.858	546
273.09	547
273.322	536
273.553	559
273.785	553
274.017	517
274.249	548
274.481	525
274.713	517
274.945	554
275.176	564
275.408	564
275.64	527
275.872	572
276.104	547
276.335	557
276.567	555
276.799	555
277.031	571
277.262	594
277.494	607
277.726	654
277.957	737
278.189	845
278.421	796
278.652	709
278.884	679
279.115	655
279.347	601
279.579	615
279.81	613
280.042	617
280.273	624
280.505	633
280.736	653
280.968	677
281.199	759
281.431	821
281.662	839
281.894	760
282.125	699
282.356	695
282.588	721
282.819	703
283.051	778
283.282	847
283.513	1041
283.745	1465
283.976	2311
284.207	3333
284.439	2940
284.67	1765
284.901	1394
285.132	1397
285.364	1361
285.595	1064
285.826	972
286.057	1155
286.288	1597
286.52	2141
286.751	1971
286.982	1220
287.213	922
287.444	838
287.675	794
287.906	743
288.138	721
288.369	723
288.6	731
288.831	729
289.062	715
289.293	743
289.524	699
289.755	710
289.986	727
290.217	742
290.448	727
290.679	721
290.91	747
291.141	778
291.371	790
291.602	832
291.833	794
292.064	768
292.295	717
292.526	713
292.757	700
292.987	685
293.218	676
293.449	717
293.68	692
293.91	692
294.141	682
294.372	685
294.603	685
294.833	684
295.064	683
295.295	683
295.525	664
295.756	683
295.987	688
296.217	701
296.448	691
296.679	681
296.909	703
297.14	709
297.37	682
297.601	709
297.831	695
298.062	689
298.292	706
298.523	706
298.753	723
298.984	733
299.214	728
299.445	740
299.675	771
299.905	768
300.136	794
300.366	880
300.597	1119
300.827	1554
301.057	2124
301.288	2089
301.518	1329
301.748	1017
301.979	973
302.209	928
302.439	937
302.669	987
302.9	1177
303.13	1645
303.36	2446
303.59	3305
303.82	2797
304.051	1627
304.281	1174
304.511	1002
304.741	945
304.971	887
305.201	869
305.431	843
305.661	792
305.891	805
306.121	797
306.352	805
306.582	778
306.812	769
307.042	772
307.272	785
307.502	774
307.731	803
307.961	778
308.191	764
308.421	786
308.651	812
308.881	788
309.111	769
309.341	787
309.571	815
309.8	799
310.03	801
310.26	820
310.49	791
310.72	798
310.949	825
311.179	810
311.409	806
311.639	812
311.868	826
312.098	825
312.328	837
312.557	839
312.787	841
313.017	839
313.246	849
313.476	842
313.706	892
313.935	935
314.165	967
314.394	1018
314.624	969
314.853	913
315.083	918
315.312	928
315.542	912
315.771	933
316.001	946
316.23	990
316.46	1005
316.689	1086
316.919	1315
317.148	1870
317.377	2895
317.607	4293
317.836	4466
318.065	2558
318.295	1614
318.524	1323
318.753	1165
318.983	1132
319.212	1037
319.441	1009
319.67	1012
319.9	1005
320.129	972
320.358	1010
320.587	989
320.816	974
321.046	973
321.275	972
321.504	966
321.733	1001
321.962	1044
322.191	1043
322.42	1059
322.649	1068
322.878	1057
323.108	1035
323.337	1075
323.566	1070
323.795	1074
324.024	1128
324.253	1108
324.482	1171
324.71	1212
324.939	1316
325.168	1337
325.397	1337
325.626	1616
325.855	2264
326.084	3561
326.313	5321
326.542	5587
326.77	3462
326.999	2276
327.228	1894
327.457	1848
327.686	1828
327.914	1910
328.143	2281
328.372	2584
328.6	2784
328.829	2548
329.058	2276
329.287	1974
329.515	1839
329.744	1715
329.972	1614
330.201	1578
330.43	1515
330.658	1456
330.887	1439
331.115	1438
331.344	1399
331.572	1430
331.801	1446
332.03	1407
332.258	1422
332.486	1535
332.715	1721
332.943	2107
333.172	2579
333.4	2549
333.629	1926
333.857	1793
334.085	1771
334.314	1865
334.542	1963
334.771	2304
334.999	2780
335.227	3361
335.455	3717
335.684	3405
335.912	2895
336.14	2528
336.369	2239
336.597	2080
336.825	1982
337.053	1817
337.281	1716
337.51	1642
337.738	1563
337.966	1538
338.194	1461
338.422	1459
338.65	1414
338.878	1404
339.106	1316
339.334	1351
339.562	1322
339.79	1268
340.018	1273
340.246	1282
340.474	1255
340.702	1297
340.93	1298
341.158	1273
341.386	1243
341.614	1233
341.842	1228
342.07	1183
342.298	1190
342.526	1157
342.754	1159
342.981	1157
343.209	1186
343.437	1174
343.665	1190
343.893	1206
344.12	1190
344.348	1185
344.576	1155
344.804	1141
345.031	1134
345.259	1095
345.487	1076
345.714	1092
345.942	1100
346.17	1099
346.397	1105
346.625	1077
346.853	1071
347.08	1079
347.308	1076
347.535	1071
347.763	1079
347.99	1051
348.218	1073
348.445	1068
348.673	1040
348.9	1073
349.128	1080
349.355	1062
349.583	1045
349.81	1051
350.037	1036
350.265	1041
350.492	1025
350.72	1042
350.947	1021
351.174	1030
351.402	1034
351.629	1023
351.856	1042
352.083	1023
352.311	1036
352.538	1046
352.765	1044
352.992	1039
353.22	996
353.447	1004
353.674	1021
353.901	1046
354.128	1066
354.355	1027
354.583	1030
354.81	1013
355.037	1016
355.264	1034
355.491	1061
355.718	1045
355.945	1059
356.172	1072
356.399	1023
356.626	1057
356.853	1076
357.08	1080
357.307	1096
357.534	1088
357.761	1116
357.988	1116
358.215	1095
358.441	1095
358.668	1104
358.895	1091
359.122	1058
359.349	1077
359.576	1081
359.802	1059
360.029	1072
360.256	1096
360.483	1083
360.709	1082
360.936	1084
361.163	1107
361.39	1100
361.616	1088
361.843	1106
362.07	1100
362.296	1091
362.523	1087
362.749	1096
362.976	1089
363.203	1099
363.429	1063
363.656	1083
363.882	1098
364.109	1102
364.335	1072
364.562	1053
364.788	1105
365.015	1121
365.241	1105
365.468	1192
365.694	1226
365.92	1210
366.147	1131
366.373	1095
366.599	1111
366.826	1125
367.052	1094
367.278	1127
367.505	1124
367.731	1120
367.957	1126
368.184	1131
368.41	1140
368.636	1143
368.862	1166
369.089	1158
369.315	1141
369.541	1160
369.767	1129
369.993	1129
370.219	1144
370.445	1144
370.672	1115
370.898	1142
371.124	1152
371.35	1192
371.576	1158
371.802	1157
372.028	1177
372.254	1180
372.48	1174
372.706	1185
372.932	1197
373.158	1164
373.384	1185
373.61	1191
373.835	1221
374.061	1174
374.287	1196
374.513	1236
374.739	1237
374.965	1216
375.191	1225
375.416	1239
375.642	1227
375.868	1214
376.094	1222
376.319	1198
376.545	1203
376.771	1183
376.997	1182
377.222	1179
377.448	1159
377.674	1199
377.899	1166
378.125	1161
378.35	1196
378.576	1155
378.802	1180
379.027	1214
379.253	1213
379.478	1285
379.704	1464
379.929	2118
380.155	3202
380.38	3373
380.606	2067
380.831	1445
381.057	1356
381.282	1233
381.507	1205
381.733	1193
381.958	1171
382.184	1180
382.409	1195
382.634	1166
382.86	1156
383.085	1188
383.31	1155
383.535	1148
383.761	1173
383.986	1176
384.211	1191
384.436	1202
384.662	1215
384.887	1237
385.112	1195
385.337	1181
385.562	1195
385.787	1213
386.013	1235
386.238	1218
386.463	1236
386.688	1239
386.913	1208
387.138	1199
387.363	1208
387.588	1219
387.813	1202
388.038	1213
388.263	1186
388.488	1206
388.713	1195
388.938	1195
389.163	1192
389.387	1217
389.612	1194
389.837	1241
390.062	1191
390.287	1255
390.512	1208
390.736	1252
390.961	1255
391.186	1249
391.411	1240
391.636	1234
391.86	1258
392.085	1249
392.31	1241
392.534	1232
392.759	1250
392.984	1219
393.208	1273
393.433	1260
393.658	1275
393.882	1231
394.107	1225
394.331	1222
394.556	1236
394.78	1227
395.005	1248
395.229	1213
395.454	1276
395.678	1247
395.903	1237
396.127	1259
396.352	1254
396.576	1280
396.801	1270
397.025	1291
397.249	1274
397.474	1257
397.698	1243
397.922	1264
398.147	1261
398.371	1291
398.595	1301
398.82	1319
399.044	1399
399.268	1469
399.492	1579
399.717	1622
399.941	1608
400.165	1509
400.389	1482
400.613	1436
400.837	1380
401.062	1414
401.286	1365
401.51	1315
401.734	1316
401.958	1355
402.182	1348
402.406	1353
402.63	1361
402.854	1332
403.078	1340
403.302	1398
403.526	1413
403.75	1372
403.974	1419
404.198	1384
404.422	1448
404.645	1413
404.869	1400
405.093	1360
405.317	1386
405.541	1401
405.765	1419
405.988	1441
406.212	1458
406.436	1389
406.66	1443
406.883	1401
407.107	1484
407.331	1483
407.555	1535
407.778	1482
408.002	1480
408.226	1455
408.449	1485
408.673	1466
408.896	1413
409.12	1421
409.344	1412
409.567	1401
409.791	1404
410.014	1368
410.238	1372
410.461	1369
410.685	1395
410.908	1400
411.132	1351
411.355	1320
411.578	1336
411.802	1362
412.025	1357
412.249	1356
412.472	1298
412.695	1303
412.919	1309
413.142	1329
413.365	1306
413.589	1299
413.812	1290
414.035	1327
414.258	1340
414.482	1332
414.705	1309
414.928	1315
415.151	1334
415.374	1293
415.597	1288
415.821	1231
416.044	1283
416.267	1267
416.49	1275
416.713	1267
416.936	1257
417.159	1244
417.382	1239
417.605	1255
417.828	1234
418.051	1260
418.274	1295
418.497	1287
418.72	1315
418.943	1238
419.166	1295
419.389	1420
419.611	1387
419.834	1350
420.057	1346
420.28	1276
420.503	1251
420.726	1231
420.948	1229
421.171	1268
421.394	1295
421.617	1270
421.839	1291
422.062	1305
422.285	1263
422.507	1291
422.73	1269
422.953	1286
423.175	1296
423.398	1303
423.621	1273
423.843	1289
424.066	1290
424.288	1268
424.511	1274
424.733	1289
424.956	1275
425.178	1253
425.401	1263
425.623	1260
425.846	1228
426.068	1217
426.291	1225
426.513	1221
426.735	1216
426.958	1207
427.18	1187
427.402	1235
427.625	1223
427.847	1159
428.069	1171
428.292	1184
428.514	1203
428.736	1196
428.958	1185
429.181	1163
429.403	1164
429.625	1162
429.847	1153
430.069	1220
430.292	1247
430.514	1243
430.736	1229
430.958	1176
431.18	1165
431.402	1177
431.624	1169
431.846	1119
432.068	1119
432.29	1133
432.512	1122
432.734	1165
432.956	1161
433.178	1152
433.4	1186
433.622	1169
433.844	1187
434.066	1209
434.287	1171
434.509	1177
434.731	1163
434.953	1187
435.175	1178
435.397	1238
435.618	1199
435.84	1173
436.062	1176
436.284	1165
436.505	1141
436.727	1162
436.949	1161
437.17	1175
437.392	1127
437.614	1150
437.835	1110
438.057	1089
438.278	1114
438.5	1129
438.721	1150
438.943	1205
439.165	1188
439.386	1211
439.608	1205
439.829	1209
440.05	1248
440.272	1263
440.493	1192
440.715	1191
440.936	1215
441.158	1220
441.379	1249
441.6	1293
441.822	1292
442.043	1357
442.264	1379
442.486	1310
442.707	1287
442.928	1261
443.149	1266
443.371	1249
443.592	1252
443.813	1253
444.034	1250
444.255	1270
444.476	1285
444.698	1342
444.919	1327
445.14	1428
445.361	1342
445.582	1275
445.803	1274
446.024	1238
446.245	1247
446.466	1234
446.687	1218
446.908	1221
447.129	1186
447.35	1176
447.571	1183
447.792	1184
448.013	1160
448.234	1120
448.455	1140
448.675	1153
448.896	1187
449.117	1208
449.338	1309
449.559	1368
449.779	1210
450	1126
450.221	1120
450.442	1147
450.662	1103
450.883	1107
451.104	1141
451.324	1103
451.545	1113
451.766	1080
451.986	1137
452.207	1225
452.428	1457
452.648	2073
452.869	1788
453.089	1317
453.31	1204
453.53	1223
453.751	1236
453.971	1374
454.192	1363
454.412	1134
454.633	1127
454.853	1061
455.073	1055
455.294	1060
455.514	1045
455.734	1082
455.955	1084
456.175	1072
456.395	1074
456.616	1067
456.836	1107
457.056	1071
457.276	1083
457.497	1136
457.717	1153
457.937	1117
458.157	1129
458.377	1094
458.598	1114
458.818	1131
459.038	1132
459.258	1144
459.478	1173
459.698	1170
459.918	1178
460.138	1231
460.358	1220
460.578	1236
460.798	1281
461.018	1244
461.238	1275
461.458	1271
461.678	1302
461.898	1301
462.118	1328
462.338	1309
462.558	1373
462.777	1408
462.997	1401
463.217	1482
463.437	1515
463.657	1521
463.876	1503
464.096	1431
464.316	1405
464.536	1373
464.755	1342
464.975	1322
465.195	1269
465.414	1252
465.634	1209
465.854	1179
466.073	1189
466.293	1163
466.512	1198
466.732	1180
466.951	1250
467.171	1327
467.391	1322
467.61	1189
467.829	1165
468.049	1158
468.268	1109
468.488	1140
468.707	1141
468.927	1157
469.146	1139
469.365	1157
469.585	1139
469.804	1192
470.023	1237
470.243	1185
470.462	1242
470.681	1306
470.901	1408
471.12	1661
471.339	1619
471.558	1380
471.777	1263
471.997	1208
472.216	1172
472.435	1143
472.654	1128
472.873	1137
473.092	1152
473.311	1156
473.53	1184
473.749	1184
473.968	1201
474.187	1159
474.406	1143
474.625	1172
474.844	1155
475.063	1157
475.282	1157
475.501	1167
475.72	1171
475.939	1165
476.158	1190
476.377	1226
476.596	1252
476.814	1197
477.033	1212
477.252	1221
477.471	1234
477.69	1271
477.908	1299
478.127	1333
478.346	1304
478.564	1339
478.783	1356
479.002	1366
479.22	1330
479.439	1363
479.658	1369
479.876	1354
480.095	1346
480.313	1389
480.532	1400
480.751	1402
480.969	1381
481.188	1350
481.406	1356
481.624	1346
481.843	1362
482.061	1367
482.28	1342
482.498	1351
482.717	1327
482.935	1369
483.153	1403
483.372	1415
483.59	1461
483.808	1465
484.027	1453
484.245	1591
484.463	1707
484.681	1938
484.9	1727
485.118	1615
485.336	1595
485.554	1606
485.772	1701
485.99	1920
486.209	2079
486.427	1778
486.645	1555
486.863	1523
487.081	1507
487.299	1522
487.517	1459
487.735	1495
487.953	1491
488.171	1517
488.389	1475
488.607	1433
488.825	1373
489.043	1407
489.261	1409
489.479	1428
489.696	1439
489.914	1391
490.132	1435
490.35	1437
490.568	1462
490.786	1531
491.003	1448
491.221	1469
491.439	1518
491.657	1503
491.874	1517
492.092	1559
492.31	1578
492.527	1527
492.745	1555
492.963	1517
493.18	1531
493.398	1536
493.615	1484
493.833	1484
494.05	1489
494.268	1543
494.485	1548
494.703	1519
494.92	1519
495.138	1520
495.355	1513
495.573	1549
495.79	1569
496.008	1506
496.225	1549
496.442	1576
496.66	1598
496.877	1644
497.094	1661
497.312	1610
497.529	1621
497.746	1667
497.963	1639
498.181	1676
498.398	1691
498.615	1760
498.832	1835
499.049	1916
499.267	2041
499.484	2210
499.701	2202
499.918	2277
500.135	2381
500.352	2504
500.569	2563
500.786	2540
501.003	2473
501.22	2299
501.437	2191
501.654	2079
501.871	2012
502.088	1888
502.305	1844
502.522	1785
502.739	1755
502.956	1738
503.172	1640
503.389	1629
503.606	1617
503.823	1553
504.04	1570
504.256	1553
504.473	1566
504.69	1585
504.907	1546
505.123	1531
505.34	1492
505.557	1443
505.773	1427
505.99	1407
506.207	1395
506.423	1386
506.64	1363
506.856	1351
507.073	1329
507.289	1344
507.506	1303
507.722	1311
507.939	1294
508.155	1339
508.372	1288
508.588	1292
508.805	1274
509.021	1294
509.238	1303
509.454	1345
509.67	1439
509.887	1331
510.103	1320
510.319	1239
510.536	1281
510.752	1249
510.968	1252
511.184	1247
511.401	1258
511.617	1265
511.833	1226
512.049	1186
512.265	1223
512.481	1207
512.698	1221
512.914	1210
513.13	1241
513.346	1213
513.562	1228
513.778	1220
513.994	1241
514.21	1268
514.426	1360
514.642	1375
514.858	1315
515.074	1275
515.29	1271
515.506	1301
515.721	1256
515.937	1254
516.153	1283
516.369	1293
516.585	1296
516.801	1322
517.016	1337
517.232	1351
517.448	1371
517.664	1381
517.879	1393
518.095	1389
518.311	1393
518.527	1349
518.742	1358
518.958	1377
519.173	1384
519.389	1331
519.605	1327
519.82	1260
520.036	1272
520.251	1243
520.467	1231
520.682	1265
520.898	1239
521.113	1222
521.329	1233
521.544	1201
521.76	1218
521.975	1197
522.19	1218
522.406	1190
522.621	1243
522.836	1214
523.052	1224
523.267	1184
523.482	1203
523.698	1175
523.913	1195
524.128	1160
524.343	1197
524.559	1205
524.774	1166
524.989	1214
525.204	1209
525.419	1224
525.634	1192
525.849	1152
526.064	1188
526.28	1164
526.495	1167
526.71	1190
526.925	1153
527.14	1201
527.355	1168
527.57	1183
527.785	1169
527.999	1176
528.214	1227
528.429	1215
528.644	1242
528.859	1221
529.074	1249
529.289	1294
529.503	1281
529.718	1263
529.933	1249
530.148	1273
530.363	1255
530.577	1258
530.792	1222
531.007	1256
531.221	1250
531.436	1253
531.651	1293
531.865	1314
532.08	1327
532.295	1319
532.509	1395
532.724	1381
532.938	1399
533.153	1476
533.367	1486
533.582	1593
533.796	1562
534.011	1534
534.225	1485
534.44	1420
534.654	1422
534.868	1395
535.083	1381
535.297	1348
535.511	1344
535.726	1340
535.94	1267
536.154	1304
536.369	1253
536.583	1229
536.797	1287
537.011	1208
537.225	1239
537.44	1196
537.654	1201
537.868	1186
538.082	1174
538.296	1179
538.51	1176
538.724	1184
538.938	1213
539.153	1190
539.367	1182
539.581	1147
539.795	1129
540.009	1112
540.222	1117
540.436	1146
540.65	1113
540.864	1164
541.078	1197
541.292	1256
541.506	1506
541.72	1531
541.934	1378
542.147	1276
542.361	1285
542.575	1177
542.789	1166
543.002	1123
543.216	1087
543.43	1102
543.644	1100
543.857	1126
544.071	1108
544.285	1156
544.498	1163
544.712	1127
544.925	1153
545.139	1181
545.352	1142
545.566	1120
545.779	1159
545.993	1165
546.206	1153
546.42	1175
546.633	1173
546.847	1175
547.06	1152
547.274	1129
547.487	1151
547.7	1184
547.914	1167
548.127	1183
548.34	1153
548.554	1171
548.767	1177
548.98	1174
549.193	1124
549.407	1146
549.62	1176
549.833	1158
550.046	1175
550.259	1144
550.473	1152
550.686	1130
550.899	1113
551.112	1162
551.325	1128
551.538	1137
551.751	1109
551.964	1138
552.177	1164
552.39	1210
552.603	1213
552.816	1238
553.029	1224
553.242	1250
553.455	1272
553.667	1260
553.88	1259
554.093	1257
554.306	1264
554.519	1290
554.732	1283
554.944	1310
555.157	1292
555.37	1356
555.583	1411
555.795	1425
556.008	1503
556.221	1624
556.433	1700
556.646	1732
556.859	1634
557.071	1585
557.284	1579
557.496	1583
557.709	1561
557.921	1548
558.134	1536
558.346	1554
558.559	1574
558.771	1638
558.984	1777
559.196	1843
559.409	1824
559.621	1699
559.833	1612
560.046	1570
560.258	1471
560.47	1372
560.683	1361
560.895	1357
561.107	1289
561.32	1277
561.532	1238
561.744	1218
561.956	1169
562.168	1163
562.381	1147
562.593	1151
562.805	1203
563.017	1193
563.229	1183
563.441	1308
563.653	1149
563.865	1107
564.077	1079
564.289	1059
564.501	1055
564.713	1060
564.925	1051
565.137	1052
565.349	1080
565.561	1066
565.773	1046
565.985	1091
566.197	1096
566.408	1117
566.62	1143
566.832	1162
567.044	1187
567.255	1153
567.467	1191
567.679	1208
567.891	1251
568.102	1372
568.314	1654
568.526	1405
568.737	1209
568.949	1094
569.161	1023
569.372	987
569.584	959
569.795	954
570.007	939
570.218	940
570.43	990
570.641	947
570.853	904
571.064	902
571.276	890
571.487	861
571.698	874
571.91	872
572.121	843
572.333	852
572.544	844
572.755	874
572.966	1047
573.178	937
573.389	843
573.6	801
573.811	778
574.023	773
574.234	759
574.445	799
574.656	795
574.867	779
575.078	770
575.289	786
575.501	744
575.712	744
575.923	739
576.134	761
576.345	807
576.556	772
576.767	780
576.978	738
577.188	781
577.399	807
577.61	767
577.821	776
578.032	764
578.243	825
578.454	805
578.665	820
578.875	823
579.086	860
579.297	889
579.508	953
579.718	975
579.929	1121
580.14	1266
580.35	1293
580.561	1199
580.772	1139
580.982	1058
581.193	980
581.403	956
581.614	913
581.825	873
582.035	840
582.246	834
582.456	772
582.667	784
582.877	744
583.087	756
583.298	739
583.508	711
583.719	695
583.929	681
584.139	688
584.35	675
584.56	674
584.77	642
584.981	659
585.191	656
585.401	640
585.611	635
585.821	620
586.032	635
586.242	620
586.452	617
586.662	628
586.872	599
587.082	587
587.292	607
587.502	587
587.713	581
587.923	580
588.133	594
588.343	562
588.553	564
588.762	565
588.972	568
589.182	589
589.392	593
589.602	556
589.812	565
590.022	535
590.232	547
590.441	538
590.651	567
590.861	548
591.071	537
591.281	565
591.49	551
591.7	556
591.91	554
592.119	574
592.329	537
592.539	562
592.748	579
592.958	553
593.167	556
593.377	575
593.587	581
593.796	587
594.006	597
594.215	575
594.424	586
594.634	573
594.843	561
595.053	583
595.262	544
595.472	523
595.681	521
595.89	528
596.1	532
596.309	539
596.518	504
596.727	492
596.937	495
597.146	501
597.355	507
597.564	484
597.774	496
597.983	480
598.192	475
598.401	481
598.61	476
598.819	478
599.028	460
599.237	469
599.446	475
599.655	466
599.864	459
600.073	445
600.282	448
600.491	462
600.7	450
600.909	467
601.118	466
601.327	479
601.536	446
601.745	474
601.953	530
602.162	594
602.371	520
602.58	496
602.789	485
602.997	455
603.206	448
603.415	444
603.623	450
603.832	446
604.041	450
604.249	429
604.458	435
604.666	435
604.875	439
605.084	457
605.292	444
605.501	423
605.709	447
605.918	441
606.126	447
606.334	450
606.543	475
606.751	500
606.96	550
607.168	613
607.376	500
607.585	464
607.793	451
608.001	436
608.21	439
608.418	460
608.626	431
608.834	451
609.043	423
609.251	433
609.459	425
609.667	433
609.875	426
610.083	433
610.291	409
610.499	409
610.707	412
610.916	435
611.124	403
611.332	401
611.54	428
611.748	402
611.955	419
612.163	398
612.371	400
612.579	429
612.787	415
612.995	413
613.203	423
613.411	414
613.618	418
613.826	419
614.034	425
614.242	412
614.449	385
614.657	387
614.865	413
615.072	428
615.28	408
615.488	429
615.695	411
615.903	425
616.111	394
616.318	401
616.526	411
616.733	399
616.941	407
617.148	390
617.356	396
617.563	387
617.771	388
617.978	401
618.185	379
618.393	421
618.6	383
618.807	395
619.015	392
619.222	383
619.429	373
619.637	378
619.844	378
620.051	375
620.258	384
620.466	355
620.673	356
620.88	361
621.087	373
621.294	357
621.501	362
621.708	375
621.915	351
622.122	369
622.329	377
622.536	372
622.743	359
622.95	362
623.157	353
623.364	364
623.571	344
623.778	353
623.985	359
624.192	337
624.399	363
624.606	350
624.812	335
625.019	342
625.226	326
625.433	347
625.639	330
625.846	337
626.053	330
626.259	330
626.466	347
626.673	343
626.879	328
627.086	331
627.293	316
627.499	321
627.706	329
627.912	332
628.119	320
628.325	348
628.532	331
628.738	318
628.945	321
629.151	322
629.357	328
629.564	306
629.77	328
629.976	317
630.183	312
630.389	315
630.595	297
630.802	319
631.008	315
631.214	314
631.42	319
631.627	328
631.833	319
632.039	319
632.245	313
632.451	330
632.657	300
632.863	309
633.069	323
633.275	304
633.481	304
633.688	299
633.893	309
634.099	317
634.305	316
634.511	325
634.717	294
634.923	314
635.129	354
635.335	378
635.541	357
635.747	330
635.952	322
636.158	311
636.364	313
636.57	319
636.775	296
636.981	285
637.187	317
637.392	304
637.598	329
637.804	313
638.009	301
638.215	316
638.421	316
638.626	307
638.832	302
639.037	305
639.243	295
639.448	305
639.654	324
639.859	320
640.065	309
640.27	319
640.475	305
640.681	330
640.886	320
641.091	318
641.297	313
641.502	328
641.707	323
641.913	346
642.118	359
642.323	343
642.528	335
642.733	355
642.939	359
643.144	370
643.349	358
643.554	383
643.759	391
643.964	403
644.169	432
644.374	428
644.579	480
644.784	529
644.989	588
645.194	662
645.399	771
645.604	779
645.809	608
646.014	493
646.219	451
646.423	416
646.628	377
646.833	349
647.038	336
647.243	307
647.447	310
647.652	309
647.857	322
648.062	284
648.266	276
648.471	292
648.676	301
648.88	297
649.085	295
649.289	272
649.494	253
649.698	288
649.903	269
650.107	268
650.312	257
650.516	254
650.721	259
650.925	259
651.13	240
651.334	239
651.539	240
651.743	239
651.947	243
652.152	247
652.356	245
652.56	252
652.764	284
652.969	269
653.173	241
653.377	240
653.581	206
653.785	212
653.99	221
654.194	203
654.398	217
654.602	221
654.806	185
655.01	214
655.214	216
655.418	216
655.622	197
655.826	225
656.03	214
656.234	227
656.438	242
656.642	219
656.846	209
657.049	209
657.253	203
657.457	190
657.661	185
657.865	183
658.068	183
658.272	159
658.476	158
658.68	172
658.883	159
659.087	148
659.291	147
659.494	147
659.698	133
659.901	123
660.105	133
660.309	124
660.512	123
660.716	101
660.919	112
661.123	108
661.326	114
661.53	104
661.733	113
661.936	113
662.14	106
662.343	101
662.546	108
662.75	95
662.953	97
663.156	103
663.36	75
663.563	85
663.766	85
663.969	89
664.173	78
664.376	76
664.579	80
664.782	87
664.985	99
665.188	90
665.391	89
665.594	83
665.797	88
666	70
666.203	90
666.406	77
666.609	84
666.812	80
667.015	78
667.218	88
667.421	91
667.624	71
667.827	79
668.03	84
668.232	94
668.435	74
668.638	84
668.841	72
669.043	91
669.246	83
669.449	93
669.651	89
669.854	75
670.057	86
670.259	77
670.462	83
670.665	95
670.867	84
671.07	89
671.272	72
671.475	85
671.677	95
671.88	94
672.082	83
672.284	87
672.487	88
672.689	73
672.892	87
