Data from SnStandardFlinnAPT0064_QswitchEnergy10_LIBS07252019.E.O._I.C._HRD10591_15-26-20-972.txt Node
Date: Thu Jul 25 15:26:20 EDT 2019
User: cochatt
Spectrometer: HR+D1059
Trigger mode: 1
Integration Time (sec): 1.000000E-1
Scans to average: 1
Electric dark correction enabled: true
Nonlinearity correction enabled: false
Boxcar width: 0
XAxis mode: Wavelengths
Number of Pixels in Spectrum: 2048
>>>>>Begin Spectral Data<<<<<
223.165	-21
223.4	-21
223.635	-21
223.869	-8
224.104	-22
224.338	-25
224.573	-22
224.808	-1
225.042	7
225.277	-8
225.511	-11
225.746	5
225.98	13
226.215	18
226.449	-7
226.683	22
226.918	19
227.152	41
227.387	14
227.621	46
227.856	43
228.09	49
228.324	52
228.559	49
228.793	53
229.027	72
229.262	69
229.496	66
229.73	81
229.964	77
230.199	81
230.433	80
230.667	69
230.901	87
231.136	77
231.37	88
231.604	90
231.838	91
232.072	104
232.306	113
232.541	93
232.775	78
233.009	84
233.243	90
233.477	103
233.711	102
233.945	102
234.179	101
234.413	86
234.647	91
234.881	77
235.115	81
235.349	83
235.583	94
235.817	126
236.051	128
236.285	95
236.519	75
236.753	85
236.987	83
237.221	91
237.455	83
237.689	81
237.922	78
238.156	74
238.39	94
238.624	88
238.858	78
239.091	72
239.325	79
239.559	75
239.793	77
240.027	94
240.26	80
240.494	75
240.728	76
240.961	74
241.195	91
241.429	90
241.662	82
241.896	87
242.13	104
242.363	136
242.597	156
242.83	132
243.064	130
243.298	151
243.531	142
243.765	107
243.998	96
244.232	98
244.465	88
244.699	68
244.932	84
245.166	95
245.399	77
245.633	72
245.866	72
246.099	85
246.333	86
246.566	82
246.8	83
247.033	84
247.266	75
247.5	81
247.733	72
247.966	85
248.2	95
248.433	113
248.666	121
248.899	115
249.133	86
249.366	99
249.599	108
249.832	112
250.066	123
250.299	95
250.532	89
250.765	84
250.998	80
251.231	103
251.465	74
251.698	99
251.931	77
252.164	94
252.397	97
252.63	102
252.863	110
253.096	93
253.329	84
253.562	82
253.795	76
254.028	90
254.261	89
254.494	87
254.727	120
254.96	143
255.193	128
255.426	95
255.659	94
255.892	108
256.124	89
256.357	90
256.59	93
256.823	91
257.056	112
257.289	140
257.521	157
257.754	116
257.987	91
258.22	86
258.452	90
258.685	78
258.918	78
259.151	94
259.383	112
259.616	122
259.849	150
260.081	83
260.314	80
260.547	96
260.779	84
261.012	86
261.244	81
261.477	94
261.71	75
261.942	97
262.175	82
262.407	83
262.64	89
262.872	76
263.105	76
263.337	85
263.57	99
263.802	93
264.035	89
264.267	85
264.499	86
264.732	95
264.964	78
265.197	91
265.429	81
265.661	92
265.894	94
266.126	122
266.358	154
266.591	133
266.823	109
267.055	96
267.287	92
267.52	80
267.752	77
267.984	76
268.216	98
268.448	89
268.681	88
268.913	79
269.145	90
269.377	84
269.609	105
269.841	102
270.073	91
270.306	119
270.538	188
270.77	290
271.002	358
271.234	181
271.466	103
271.698	104
271.93	75
272.162	87
272.394	88
272.626	79
272.858	89
273.09	84
273.322	85
273.553	85
273.785	87
274.017	93
274.249	101
274.481	82
274.713	90
274.945	85
275.176	86
275.408	93
275.64	96
275.872	93
276.104	98
276.335	91
276.567	101
276.799	101
277.031	94
277.262	86
277.494	90
277.726	113
277.957	174
278.189	237
278.421	221
278.652	170
278.884	180
279.115	134
279.347	110
279.579	93
279.81	105
280.042	96
280.273	93
280.505	103
280.736	112
280.968	109
281.199	158
281.431	225
281.662	274
281.894	145
282.125	108
282.356	108
282.588	90
282.819	109
283.051	103
283.282	136
283.513	177
283.745	299
283.976	497
284.207	722
284.439	557
284.67	256
284.901	259
285.132	319
285.364	350
285.595	201
285.826	151
286.057	242
286.288	377
286.52	563
286.751	464
286.982	189
287.213	122
287.444	121
287.675	109
287.906	100
288.138	101
288.369	86
288.6	97
288.831	84
289.062	91
289.293	88
289.524	80
289.755	101
289.986	107
290.217	104
290.448	99
290.679	98
290.91	121
291.141	145
291.371	219
291.602	265
291.833	168
292.064	112
292.295	93
292.526	90
292.757	99
292.987	75
293.218	96
293.449	96
293.68	113
293.91	89
294.141	97
294.372	96
294.603	94
294.833	73
295.064	96
295.295	82
295.525	82
295.756	106
295.987	92
296.217	88
296.448	82
296.679	80
296.909	88
297.14	103
297.37	91
297.601	105
297.831	95
298.062	97
298.292	112
298.523	96
298.753	94
298.984	105
299.214	117
299.445	121
299.675	113
299.905	114
300.136	119
300.366	169
300.597	262
300.827	420
301.057	636
301.288	581
301.518	232
301.748	136
301.979	121
302.209	117
302.439	130
302.669	148
302.9	241
303.13	456
303.36	838
303.59	1120
303.82	764
304.051	282
304.281	164
304.511	120
304.741	107
304.971	107
305.201	106
305.431	92
305.661	101
305.891	103
306.121	96
306.352	89
306.582	104
306.812	111
307.042	132
307.272	120
307.502	113
307.731	91
307.961	97
308.191	99
308.421	108
308.651	103
308.881	97
309.111	101
309.341	109
309.571	93
309.8	108
310.03	110
310.26	96
310.49	113
310.72	102
310.949	101
311.179	92
311.409	103
311.639	112
311.868	102
312.098	105
312.328	111
312.557	108
312.787	90
313.017	103
313.246	115
313.476	100
313.706	120
313.935	142
314.165	182
314.394	204
314.624	184
314.853	128
315.083	109
315.312	114
315.542	124
315.771	118
316.001	125
316.23	116
316.46	140
316.689	155
316.919	244
317.148	452
317.377	872
317.607	1377
317.836	1246
318.065	492
318.295	215
318.524	144
318.753	128
318.983	123
319.212	115
319.441	118
319.67	117
319.9	117
320.129	109
320.358	113
320.587	114
320.816	126
321.046	104
321.275	128
321.504	125
321.733	150
321.962	161
322.191	155
322.42	137
322.649	128
322.878	105
323.108	109
323.337	101
323.566	120
323.795	128
324.024	126
324.253	136
324.482	150
324.71	199
324.939	262
325.168	229
325.397	194
325.626	224
325.855	438
326.084	884
326.313	1464
326.542	1419
326.77	555
326.999	253
327.228	187
327.457	204
327.686	210
327.914	142
328.143	134
328.372	131
328.6	134
328.829	120
329.058	109
329.287	97
329.515	117
329.744	108
329.972	126
330.201	109
330.43	105
330.658	115
330.887	97
331.115	115
331.344	97
331.572	117
331.801	124
332.03	124
332.258	123
332.486	162
332.715	263
332.943	452
333.172	702
333.4	614
333.629	240
333.857	150
334.085	123
334.314	126
334.542	132
334.771	124
334.999	106
335.227	123
335.455	108
335.684	111
335.912	114
336.14	118
336.369	96
336.597	105
336.825	99
337.053	105
337.281	95
337.51	114
337.738	104
337.966	103
338.194	112
338.422	119
338.65	125
338.878	110
339.106	112
339.334	107
339.562	121
339.79	106
340.018	114
340.246	97
340.474	113
340.702	110
340.93	122
341.158	112
341.386	125
341.614	107
341.842	112
342.07	114
342.298	101
342.526	118
342.754	113
342.981	111
343.209	106
343.437	110
343.665	99
343.893	101
344.12	102
344.348	114
344.576	115
344.804	114
345.031	101
345.259	122
345.487	120
345.714	114
345.942	113
346.17	114
346.397	115
346.625	121
346.853	100
347.08	106
347.308	119
347.535	109
347.763	105
347.99	100
348.218	104
348.445	118
348.673	108
348.9	112
349.128	117
349.355	115
349.583	114
349.81	104
350.037	118
350.265	107
350.492	104
350.72	103
350.947	103
351.174	110
351.402	101
351.629	109
351.856	105
352.083	99
352.311	114
352.538	104
352.765	109
352.992	107
353.22	99
353.447	100
353.674	93
353.901	97
354.128	104
354.355	111
354.583	118
354.81	108
355.037	103
355.264	97
355.491	93
355.718	95
355.945	97
356.172	92
356.399	115
356.626	113
356.853	108
357.08	104
357.307	98
357.534	99
357.761	116
357.988	107
358.215	122
358.441	106
358.668	102
358.895	107
359.122	122
359.349	112
359.576	104
359.802	105
360.029	102
360.256	109
360.483	99
360.709	101
360.936	111
361.163	112
361.39	107
361.616	106
361.843	97
362.07	121
362.296	123
362.523	88
362.749	105
362.976	107
363.203	122
363.429	106
363.656	84
363.882	103
364.109	104
364.335	106
364.562	96
364.788	107
365.015	118
365.241	124
365.468	172
365.694	230
365.92	194
366.147	107
366.373	111
366.599	103
366.826	95
367.052	92
367.278	100
367.505	106
367.731	102
367.957	96
368.184	110
368.41	122
368.636	106
368.862	94
369.089	116
369.315	98
369.541	122
369.767	100
369.993	105
370.219	93
370.445	121
370.672	112
370.898	97
371.124	109
371.35	108
371.576	114
371.802	106
372.028	101
372.254	104
372.48	94
372.706	122
372.932	99
373.158	113
373.384	114
373.61	122
373.835	117
374.061	113
374.287	108
374.513	111
374.739	114
374.965	101
375.191	118
375.416	105
375.642	113
375.868	105
376.094	116
376.319	104
376.545	114
376.771	107
376.997	114
377.222	116
377.448	95
377.674	94
377.899	101
378.125	101
378.35	113
378.576	116
378.802	124
379.027	125
379.253	123
379.478	174
379.704	297
379.929	720
380.155	1430
380.38	1475
380.606	496
380.831	173
381.057	136
381.282	106
381.507	108
381.733	106
381.958	102
382.184	91
382.409	104
382.634	116
382.86	100
383.085	103
383.31	104
383.535	108
383.761	97
383.986	116
384.211	100
384.436	106
384.662	97
384.887	109
385.112	102
385.337	109
385.562	107
385.787	104
386.013	122
386.238	110
386.463	106
386.688	100
386.913	109
387.138	105
387.363	114
387.588	86
387.813	96
388.038	90
388.263	106
388.488	103
388.713	91
388.938	100
389.163	98
389.387	106
389.612	105
389.837	100
390.062	106
390.287	99
390.512	92
390.736	110
390.961	95
391.186	101
391.411	105
391.636	75
391.86	103
392.085	93
392.31	102
392.534	100
392.759	106
392.984	106
393.208	113
393.433	134
393.658	132
393.882	104
394.107	86
394.331	98
394.556	92
394.78	93
395.005	91
395.229	99
395.454	105
395.678	90
395.903	104
396.127	96
396.352	90
396.576	106
396.801	109
397.025	116
397.249	115
397.474	103
397.698	69
397.922	101
398.147	109
398.371	91
398.595	95
398.82	95
399.044	98
399.268	110
399.492	88
399.717	97
399.941	93
400.165	100
400.389	90
400.613	95
400.837	95
401.062	103
401.286	91
401.51	102
401.734	97
401.958	112
402.182	106
402.406	100
402.63	86
402.854	89
403.078	96
403.302	90
403.526	103
403.75	100
403.974	90
404.198	90
404.422	79
404.645	86
404.869	111
405.093	93
405.317	107
405.541	104
405.765	126
405.988	154
406.212	112
406.436	102
406.66	88
406.883	106
407.107	90
407.331	89
407.555	100
407.778	96
408.002	101
408.226	107
408.449	117
408.673	91
408.896	98
409.12	110
409.344	93
409.567	101
409.791	94
410.014	100
410.238	108
410.461	103
410.685	84
410.908	98
411.132	104
411.355	99
411.578	92
411.802	89
412.025	100
412.249	89
412.472	93
412.695	98
412.919	97
413.142	92
413.365	101
413.589	87
413.812	108
414.035	120
414.258	106
414.482	103
414.705	102
414.928	92
415.151	88
415.374	93
415.597	94
415.821	84
416.044	89
416.267	102
416.49	104
416.713	89
416.936	91
417.159	92
417.382	79
417.605	101
417.828	86
418.051	92
418.274	96
418.497	102
418.72	107
418.943	121
419.166	99
419.389	93
419.611	98
419.834	97
420.057	108
420.28	117
420.503	114
420.726	112
420.948	101
421.171	88
421.394	94
421.617	100
421.839	95
422.062	94
422.285	102
422.507	107
422.73	131
422.953	130
423.175	102
423.398	91
423.621	96
423.843	88
424.066	92
424.288	87
424.511	93
424.733	102
424.956	93
425.178	90
425.401	93
425.623	91
425.846	83
426.068	103
426.291	99
426.513	89
426.735	110
426.958	96
427.18	107
427.402	106
427.625	82
427.847	97
428.069	91
428.292	87
428.514	117
428.736	100
428.958	118
429.181	101
429.403	102
429.625	94
429.847	97
430.069	107
430.292	116
430.514	107
430.736	104
430.958	100
431.18	94
431.402	82
431.624	82
431.846	90
432.068	85
432.29	96
432.512	107
432.734	116
432.956	101
433.178	87
433.4	81
433.622	77
433.844	89
434.066	99
434.287	83
434.509	93
434.731	96
434.953	97
435.175	95
435.397	90
435.618	86
435.84	97
436.062	100
436.284	105
436.505	93
436.727	105
436.949	89
437.17	92
437.392	98
437.614	100
437.835	102
438.057	102
438.278	91
438.5	93
438.721	101
438.943	95
439.165	100
439.386	96
439.608	102
439.829	104
440.05	106
440.272	114
440.493	110
440.715	107
440.936	85
441.158	111
441.379	88
441.6	101
441.822	108
442.043	122
442.264	130
442.486	112
442.707	94
442.928	94
443.149	100
443.371	95
443.592	88
443.813	94
444.034	81
444.255	88
444.476	96
444.698	100
444.919	90
445.14	193
445.361	136
445.582	87
445.803	107
446.024	100
446.245	87
446.466	122
446.687	110
446.908	97
447.129	105
447.35	97
447.571	89
447.792	83
448.013	81
448.234	81
448.455	92
448.675	94
448.896	96
449.117	108
449.338	145
449.559	154
449.779	126
450	100
450.221	112
450.442	112
450.662	102
450.883	103
451.104	106
451.324	101
451.545	99
451.766	122
451.986	138
452.207	210
452.428	497
452.648	1229
452.869	714
453.089	200
453.31	131
453.53	121
453.751	150
453.971	147
454.192	150
454.412	116
454.633	88
454.853	101
455.073	87
455.294	93
455.514	92
455.734	93
455.955	84
456.175	92
456.395	88
456.616	95
456.836	99
457.056	91
457.276	104
457.497	109
457.717	114
457.937	92
458.157	89
458.377	89
458.598	86
458.818	96
459.038	87
459.258	83
459.478	89
459.698	84
459.918	104
460.138	84
460.358	87
460.578	92
460.798	97
461.018	88
461.238	84
461.458	82
461.678	90
461.898	102
462.118	109
462.338	91
462.558	98
462.777	96
462.997	107
463.217	106
463.437	128
463.657	164
463.876	185
464.096	107
464.316	101
464.536	98
464.755	87
464.975	88
465.195	124
465.414	112
465.634	86
465.854	96
466.073	84
466.293	96
466.512	91
466.732	102
466.951	115
467.171	138
467.391	154
467.61	112
467.829	99
468.049	85
468.268	85
468.488	92
468.707	94
468.927	117
469.146	96
469.365	103
469.585	109
469.804	96
470.023	112
470.243	92
470.462	103
470.681	107
470.901	128
471.12	184
471.339	217
471.558	139
471.777	117
471.997	102
472.216	106
472.435	91
472.654	91
472.873	92
473.092	109
473.311	103
473.53	97
473.749	93
473.968	98
474.187	87
474.406	78
474.625	93
474.844	114
475.063	115
475.282	94
475.501	93
475.72	93
475.939	94
476.158	89
476.377	120
476.596	122
476.814	95
477.033	100
477.252	99
477.471	84
477.69	106
477.908	99
478.127	92
478.346	99
478.564	77
478.783	123
479.002	93
479.22	104
479.439	106
479.658	90
479.876	88
480.095	88
480.313	97
480.532	101
480.751	98
480.969	86
481.188	92
481.406	92
481.624	108
481.843	112
482.061	120
482.28	99
482.498	104
482.717	102
482.935	93
483.153	100
483.372	109
483.59	105
483.808	96
484.027	113
484.245	105
484.463	160
484.681	233
484.9	142
485.118	116
485.336	106
485.554	116
485.772	129
485.99	185
486.209	224
486.427	162
486.645	119
486.863	108
487.081	113
487.299	97
487.517	108
487.735	96
487.953	99
488.171	91
488.389	93
488.607	101
488.825	107
489.043	110
489.261	92
489.479	88
489.696	95
489.914	98
490.132	114
490.35	104
490.568	96
490.786	103
491.003	108
491.221	99
491.439	108
491.657	96
491.874	100
492.092	109
492.31	120
492.527	96
492.745	112
492.963	122
493.18	99
493.398	95
493.615	98
493.833	104
494.05	96
494.268	109
494.485	100
494.703	106
494.92	100
495.138	95
495.355	97
495.573	93
495.79	110
496.008	109
496.225	91
496.442	113
496.66	119
496.877	161
497.094	160
497.312	109
497.529	114
497.746	86
497.963	99
498.181	94
498.398	100
498.615	86
498.832	99
499.049	101
499.267	127
499.484	163
499.701	122
499.918	107
500.135	108
500.352	95
500.569	106
500.786	105
501.003	100
501.22	98
501.437	92
501.654	96
501.871	111
502.088	86
502.305	106
502.522	91
502.739	97
502.956	100
503.172	97
503.389	100
503.606	92
503.823	108
504.04	97
504.256	88
504.473	101
504.69	87
504.907	108
505.123	100
505.34	104
505.557	108
505.773	110
505.99	98
506.207	97
506.423	88
506.64	118
506.856	104
507.073	101
507.289	95
507.506	91
507.722	100
507.939	89
508.155	96
508.372	89
508.588	93
508.805	98
509.021	102
509.238	106
509.454	134
509.67	159
509.887	105
510.103	107
510.319	99
510.536	112
510.752	111
510.968	91
511.184	100
511.401	105
511.617	97
511.833	101
512.049	105
512.265	106
512.481	91
512.698	105
512.914	100
513.13	99
513.346	93
513.562	91
513.778	81
513.994	100
514.21	110
514.426	130
514.642	186
514.858	130
515.074	96
515.29	100
515.506	101
515.721	118
515.937	102
516.153	95
516.369	86
516.585	92
516.801	93
517.016	115
517.232	102
517.448	114
517.664	109
517.879	103
518.095	107
518.311	92
518.527	113
518.742	109
518.958	114
519.173	151
519.389	112
519.605	99
519.82	106
520.036	110
520.251	108
520.467	102
520.682	92
520.898	82
521.113	106
521.329	99
521.544	86
521.76	102
521.975	100
522.19	100
522.406	92
522.621	97
522.836	91
523.052	112
523.267	76
523.482	86
523.698	96
523.913	104
524.128	103
524.343	106
524.559	98
524.774	86
524.989	87
525.204	103
525.419	107
525.634	85
525.849	88
526.064	93
526.28	107
526.495	90
526.71	93
526.925	96
527.14	100
527.355	114
527.57	104
527.785	108
527.999	86
528.214	89
528.429	93
528.644	92
528.859	97
529.074	80
529.289	86
529.503	101
529.718	100
529.933	95
530.148	85
530.363	89
530.577	95
530.792	93
531.007	84
531.221	98
531.436	95
531.651	90
531.865	96
532.08	104
532.295	110
532.509	123
532.724	112
532.938	89
533.153	96
533.367	107
533.582	93
533.796	77
534.011	82
534.225	83
534.44	84
534.654	100
534.868	118
535.083	94
535.297	84
535.511	107
535.726	102
535.94	88
536.154	102
536.369	96
536.583	82
536.797	120
537.011	102
537.225	98
537.44	97
537.654	90
537.868	92
538.082	92
538.296	91
538.51	93
538.724	102
538.938	97
539.153	100
539.367	102
539.581	89
539.795	94
540.009	107
540.222	77
540.436	93
540.65	105
540.864	97
541.078	106
541.292	141
541.506	217
541.72	192
541.934	114
542.147	113
542.361	117
542.575	97
542.789	101
543.002	89
543.216	104
543.43	92
543.644	108
543.857	102
544.071	111
544.285	88
544.498	102
544.712	100
544.925	91
545.139	106
545.352	95
545.566	98
545.779	116
545.993	100
546.206	93
546.42	102
546.633	99
546.847	107
547.06	107
547.274	96
547.487	113
547.7	97
547.914	112
548.127	98
548.34	98
548.554	104
548.767	104
548.98	104
549.193	90
549.407	92
549.62	94
549.833	98
550.046	103
550.259	96
550.473	96
550.686	101
550.899	96
551.112	112
551.325	114
551.538	102
551.751	98
551.964	87
552.177	97
552.39	97
552.603	107
552.816	103
553.029	118
553.242	95
553.455	89
553.667	99
553.88	110
554.093	94
554.306	110
554.519	91
554.732	106
554.944	100
555.157	107
555.37	94
555.583	107
555.795	93
556.008	114
556.221	148
556.433	138
556.646	100
556.859	109
557.071	104
557.284	123
557.496	102
557.709	93
557.921	115
558.134	112
558.346	113
558.559	89
558.771	108
558.984	94
559.196	111
559.409	100
559.621	86
559.833	95
560.046	100
560.258	110
560.47	110
560.683	80
560.895	111
561.107	96
561.32	106
561.532	100
561.744	96
561.956	92
562.168	94
562.381	103
562.593	106
562.805	140
563.017	140
563.229	228
563.441	533
563.653	194
563.865	124
564.077	99
564.289	102
564.501	94
564.713	100
564.925	93
565.137	99
565.349	91
565.561	97
565.773	104
565.985	99
566.197	93
566.408	98
566.62	101
566.832	120
567.044	105
567.255	99
567.467	88
567.679	91
567.891	110
568.102	157
568.314	230
568.526	153
568.737	108
568.949	101
569.161	87
569.372	90
569.584	92
569.795	93
570.007	109
570.218	113
570.43	148
570.641	120
570.853	103
571.064	100
571.276	95
571.487	99
571.698	97
571.91	93
572.121	92
572.333	96
572.544	97
572.755	141
572.966	194
573.178	126
573.389	105
573.6	88
573.811	97
574.023	94
574.234	87
574.445	103
574.656	86
574.867	85
575.078	82
575.289	86
575.501	89
575.712	97
575.923	90
576.134	100
576.345	84
576.556	102
576.767	105
576.978	96
577.188	92
577.399	92
577.61	69
577.821	98
578.032	108
578.243	97
578.454	88
578.665	93
578.875	89
579.086	85
579.297	91
579.508	93
579.718	101
579.929	84
580.14	96
580.35	94
580.561	104
580.772	101
580.982	88
581.193	86
581.403	104
581.614	79
581.825	93
582.035	83
582.246	101
582.456	96
582.667	98
582.877	126
583.087	125
583.298	106
583.508	97
583.719	92
583.929	94
584.139	100
584.35	88
584.56	87
584.77	96
584.981	100
585.191	73
585.401	81
585.611	94
585.821	114
586.032	91
586.242	96
586.452	82
586.662	96
586.872	96
587.082	104
587.292	85
587.502	86
587.713	87
587.923	101
588.133	103
588.343	94
588.553	113
588.762	89
588.972	102
589.182	120
589.392	104
589.602	98
589.812	116
590.022	106
590.232	98
590.441	83
590.651	82
590.861	96
591.071	89
591.281	96
591.49	99
591.7	87
591.91	84
592.119	86
592.329	102
592.539	93
592.748	81
592.958	81
593.167	95
593.377	93
593.587	105
593.796	97
594.006	77
594.215	92
594.424	87
594.634	103
594.843	96
595.053	93
595.262	99
595.472	90
595.681	92
595.89	94
596.1	83
596.309	96
596.518	102
596.727	83
596.937	88
597.146	84
597.355	105
597.564	93
597.774	94
597.983	84
598.192	97
598.401	99
598.61	103
598.819	101
599.028	88
599.237	84
599.446	96
599.655	86
599.864	77
600.073	88
600.282	96
600.491	110
600.7	100
600.909	86
601.118	97
601.327	79
601.536	84
601.745	107
601.953	124
602.162	150
602.371	107
602.58	105
602.789	93
602.997	95
603.206	84
603.415	90
603.623	101
603.832	99
604.041	98
604.249	89
604.458	105
604.666	94
604.875	92
605.084	81
605.292	83
605.501	96
605.709	100
605.918	99
606.126	90
606.334	103
606.543	92
606.751	118
606.96	152
607.168	156
607.376	115
607.585	107
607.793	99
608.001	92
608.21	119
608.418	95
608.626	101
608.834	85
609.043	90
609.251	94
609.459	90
609.667	85
609.875	102
610.083	105
610.291	91
610.499	100
610.707	90
610.916	98
611.124	91
611.332	102
611.54	94
611.748	78
611.955	99
612.163	84
612.371	98
612.579	94
612.787	90
612.995	96
613.203	107
613.411	89
613.618	100
613.826	92
614.034	96
614.242	112
614.449	91
614.657	80
614.865	99
615.072	110
615.28	114
615.488	86
615.695	104
615.903	101
616.111	94
616.318	110
616.526	98
616.733	87
616.941	107
617.148	109
617.356	103
617.563	93
617.771	99
617.978	91
618.185	95
618.393	82
618.6	94
618.807	93
619.015	112
619.222	84
619.429	97
619.637	80
619.844	85
620.051	83
620.258	91
620.466	84
620.673	83
620.88	97
621.087	89
621.294	97
621.501	91
621.708	81
621.915	77
622.122	92
622.329	97
622.536	100
622.743	83
622.95	90
623.157	93
623.364	81
623.571	97
623.778	95
623.985	95
624.192	86
624.399	80
624.606	75
624.812	83
625.019	97
625.226	99
625.433	94
625.639	79
625.846	86
626.053	77
626.259	92
626.466	97
626.673	78
626.879	86
627.086	98
627.293	82
627.499	85
627.706	104
627.912	88
628.119	86
628.325	98
628.532	98
628.738	107
628.945	77
629.151	80
629.357	77
629.564	92
629.77	91
629.976	107
630.183	82
630.389	87
630.595	84
630.802	93
631.008	88
631.214	98
631.42	93
631.627	91
631.833	90
632.039	89
632.245	92
632.451	77
632.657	101
632.863	83
633.069	86
633.275	82
633.481	88
633.688	90
633.893	81
634.099	86
634.305	86
634.511	89
634.717	91
634.923	101
635.129	122
635.335	131
635.541	92
635.747	94
635.952	100
636.158	96
636.364	84
636.57	101
636.775	88
636.981	86
637.187	87
637.392	102
637.598	90
637.804	97
638.009	86
638.215	88
638.421	86
638.626	105
638.832	89
639.037	89
639.243	81
639.448	80
639.654	85
639.859	82
640.065	92
640.27	93
640.475	93
640.681	87
640.886	94
641.091	89
641.297	90
641.502	100
641.707	99
641.913	81
642.118	74
642.323	65
642.528	94
642.733	94
642.939	91
643.144	86
643.349	77
643.554	92
643.759	90
643.964	90
644.169	93
644.374	100
644.579	83
644.784	87
644.989	99
645.194	95
645.399	99
645.604	93
645.809	110
646.014	90
646.219	91
646.423	98
646.628	83
646.833	83
647.038	82
647.243	92
647.447	88
647.652	98
647.857	85
648.062	101
648.266	97
648.471	83
648.676	83
648.88	100
649.085	84
649.289	86
649.494	86
649.698	82
649.903	87
650.107	92
650.312	86
650.516	88
650.721	71
650.925	90
651.13	94
651.334	88
651.539	87
651.743	88
651.947	84
652.152	89
652.356	93
652.56	96
652.764	99
652.969	85
653.173	86
653.377	92
653.581	90
653.785	83
653.99	84
654.194	84
654.398	85
654.602	88
654.806	81
655.01	99
655.214	84
655.418	81
655.622	85
655.826	85
656.03	79
656.234	89
656.438	83
656.642	84
656.846	80
657.049	85
657.253	92
657.457	89
657.661	75
657.865	66
658.068	73
658.272	90
658.476	92
658.68	88
658.883	77
659.087	66
659.291	84
659.494	77
659.698	75
659.901	83
660.105	88
660.309	78
660.512	86
660.716	91
660.919	86
661.123	77
661.326	90
661.53	76
661.733	78
661.936	73
662.14	87
662.343	86
662.546	79
662.75	81
662.953	99
663.156	86
663.36	91
663.563	93
663.766	87
663.969	82
664.173	87
664.376	92
664.579	87
664.782	85
664.985	81
665.188	76
665.391	89
665.594	70
665.797	81
666	86
666.203	70
666.406	74
666.609	89
666.812	89
667.015	83
667.218	88
667.421	65
667.624	76
667.827	97
668.03	75
668.232	81
668.435	82
668.638	86
668.841	92
669.043	84
669.246	82
669.449	86
669.651	84
669.854	75
670.057	78
670.259	70
670.462	82
670.665	84
670.867	95
671.07	80
671.272	85
671.475	93
671.677	90
671.88	78
672.082	96
672.284	70
672.487	70
672.689	88
672.892	73
