Data from SnStandardFlinnAPT0064_QswitchEnergy10_LIBS07252019.E.O._I.C._HRD10591_15-26-51-973.txt Node
Date: Thu Jul 25 15:26:51 EDT 2019
User: cochatt
Spectrometer: HR+D1059
Trigger mode: 1
Integration Time (sec): 1.000000E-1
Scans to average: 1
Electric dark correction enabled: true
Nonlinearity correction enabled: false
Boxcar width: 0
XAxis mode: Wavelengths
Number of Pixels in Spectrum: 2048
>>>>>Begin Spectral Data<<<<<
223.165	-16
223.4	-16
223.635	-16
223.869	-10
224.104	-6
224.338	-21
224.573	-25
224.808	-15
225.042	-20
225.277	-4
225.511	-1
225.746	5
225.98	-3
226.215	13
226.449	9
226.683	31
226.918	27
227.152	36
227.387	48
227.621	44
227.856	56
228.09	53
228.324	45
228.559	52
228.793	45
229.027	70
229.262	74
229.496	75
229.73	80
229.964	79
230.199	73
230.433	94
230.667	77
230.901	82
231.136	78
231.37	74
231.604	94
231.838	104
232.072	103
232.306	123
232.541	97
232.775	78
233.009	85
233.243	109
233.477	77
233.711	96
233.945	92
234.179	85
234.413	81
234.647	81
234.881	94
235.115	98
235.349	84
235.583	90
235.817	112
236.051	118
236.285	93
236.519	84
236.753	87
236.987	83
237.221	82
237.455	93
237.689	84
237.922	70
238.156	75
238.39	84
238.624	87
238.858	92
239.091	77
239.325	93
239.559	80
239.793	72
240.027	77
240.26	80
240.494	76
240.728	65
240.961	79
241.195	92
241.429	92
241.662	103
241.896	90
242.13	93
242.363	127
242.597	140
242.83	131
243.064	121
243.298	162
243.531	134
243.765	105
243.998	96
244.232	69
244.465	81
244.699	94
244.932	81
245.166	93
245.399	90
245.633	84
245.866	96
246.099	81
246.333	72
246.566	79
246.8	98
247.033	95
247.266	86
247.5	102
247.733	106
247.966	94
248.2	90
248.433	109
248.666	116
248.899	124
249.133	95
249.366	100
249.599	96
249.832	121
250.066	120
250.299	74
250.532	91
250.765	87
250.998	76
251.231	97
251.465	79
251.698	92
251.931	85
252.164	83
252.397	82
252.63	71
252.863	95
253.096	99
253.329	89
253.562	89
253.795	99
254.028	93
254.261	86
254.494	112
254.727	113
254.96	134
255.193	131
255.426	117
255.659	96
255.892	92
256.124	83
256.357	86
256.59	88
256.823	97
257.056	114
257.289	128
257.521	166
257.754	130
257.987	96
258.22	77
258.452	84
258.685	89
258.918	84
259.151	94
259.383	101
259.616	131
259.849	146
260.081	110
260.314	75
260.547	84
260.779	87
261.012	91
261.244	81
261.477	94
261.71	88
261.942	84
262.175	95
262.407	91
262.64	86
262.872	97
263.105	83
263.337	90
263.57	75
263.802	94
264.035	94
264.267	90
264.499	76
264.732	102
264.964	86
265.197	89
265.429	89
265.661	95
265.894	83
266.126	135
266.358	165
266.591	140
266.823	109
267.055	87
267.287	97
267.52	84
267.752	82
267.984	93
268.216	88
268.448	87
268.681	98
268.913	77
269.145	81
269.377	87
269.609	94
269.841	93
270.073	118
270.306	131
270.538	193
270.77	288
271.002	322
271.234	166
271.466	113
271.698	98
271.93	84
272.162	82
272.394	100
272.626	89
272.858	92
273.09	84
273.322	80
273.553	82
273.785	83
274.017	90
274.249	90
274.481	87
274.713	91
274.945	83
275.176	85
275.408	90
275.64	101
275.872	91
276.104	100
276.335	107
276.567	90
276.799	94
277.031	97
277.262	87
277.494	106
277.726	125
277.957	172
278.189	225
278.421	206
278.652	177
278.884	162
279.115	123
279.347	112
279.579	89
279.81	98
280.042	96
280.273	96
280.505	99
280.736	105
280.968	104
281.199	169
281.431	219
281.662	226
281.894	151
282.125	119
282.356	103
282.588	98
282.819	98
283.051	132
283.282	128
283.513	179
283.745	288
283.976	481
284.207	692
284.439	519
284.67	264
284.901	238
285.132	300
285.364	337
285.595	209
285.826	169
286.057	242
286.288	375
286.52	552
286.751	435
286.982	169
287.213	116
287.444	92
287.675	94
287.906	103
288.138	103
288.369	86
288.6	85
288.831	96
289.062	104
289.293	92
289.524	97
289.755	100
289.986	89
290.217	87
290.448	98
290.679	105
290.91	126
291.141	162
291.371	222
291.602	264
291.833	162
292.064	109
292.295	117
292.526	98
292.757	86
292.987	96
293.218	86
293.449	100
293.68	98
293.91	98
294.141	99
294.372	95
294.603	90
294.833	104
295.064	101
295.295	110
295.525	84
295.756	102
295.987	81
296.217	106
296.448	93
296.679	99
296.909	99
297.14	96
297.37	103
297.601	97
297.831	109
298.062	90
298.292	108
298.523	107
298.753	106
298.984	117
299.214	103
299.445	99
299.675	115
299.905	109
300.136	134
300.366	163
300.597	243
300.827	416
301.057	619
301.288	562
301.518	224
301.748	132
301.979	117
302.209	130
302.439	141
302.669	151
302.9	248
303.13	456
303.36	781
303.59	1072
303.82	748
304.051	264
304.281	145
304.511	125
304.741	115
304.971	112
305.201	116
305.431	103
305.661	99
305.891	101
306.121	113
306.352	102
306.582	100
306.812	104
307.042	110
307.272	101
307.502	98
307.731	112
307.961	101
308.191	98
308.421	103
308.651	101
308.881	101
309.111	86
309.341	94
309.571	110
309.8	97
310.03	109
310.26	99
310.49	105
310.72	111
310.949	98
311.179	104
311.409	97
311.639	106
311.868	98
312.098	111
312.328	110
312.557	124
312.787	120
313.017	122
313.246	113
313.476	112
313.706	137
313.935	155
314.165	157
314.394	223
314.624	164
314.853	120
315.083	130
315.312	128
315.542	109
315.771	138
316.001	120
316.23	115
316.46	157
316.689	180
316.919	248
317.148	457
317.377	832
317.607	1350
317.836	1227
318.065	491
318.295	195
318.524	161
318.753	128
318.983	123
319.212	123
319.441	114
319.67	105
319.9	109
320.129	121
320.358	114
320.587	118
320.816	118
321.046	118
321.275	101
321.504	130
321.733	138
321.962	158
322.191	142
322.42	134
322.649	134
322.878	122
323.108	119
323.337	114
323.566	119
323.795	115
324.024	125
324.253	138
324.482	166
324.71	216
324.939	243
325.168	202
325.397	162
325.626	237
325.855	448
326.084	848
326.313	1430
326.542	1400
326.77	537
326.999	244
327.228	194
327.457	208
327.686	197
327.914	150
328.143	137
328.372	120
328.6	105
328.829	122
329.058	125
329.287	113
329.515	113
329.744	116
329.972	110
330.201	103
330.43	107
330.658	123
330.887	112
331.115	96
331.344	110
331.572	120
331.801	118
332.03	113
332.258	143
332.486	159
332.715	276
332.943	471
333.172	692
333.4	596
333.629	225
333.857	146
334.085	122
334.314	109
334.542	121
334.771	112
334.999	125
335.227	121
335.455	122
335.684	123
335.912	123
336.14	109
336.369	112
336.597	96
336.825	118
337.053	124
337.281	113
337.51	108
337.738	110
337.966	123
338.194	118
338.422	101
338.65	112
338.878	120
339.106	108
339.334	107
339.562	124
339.79	119
340.018	125
340.246	94
340.474	125
340.702	106
340.93	98
341.158	112
341.386	116
341.614	113
341.842	108
342.07	114
342.298	108
342.526	118
342.754	101
342.981	112
343.209	112
343.437	124
343.665	112
343.893	107
344.12	117
344.348	105
344.576	114
344.804	120
345.031	122
345.259	98
345.487	110
345.714	97
345.942	91
346.17	94
346.397	92
346.625	101
346.853	101
347.08	82
347.308	90
347.535	116
347.763	106
347.99	97
348.218	89
348.445	106
348.673	100
348.9	125
349.128	124
349.355	124
349.583	126
349.81	108
350.037	103
350.265	118
350.492	118
350.72	112
350.947	104
351.174	114
351.402	114
351.629	123
351.856	110
352.083	109
352.311	113
352.538	118
352.765	100
352.992	125
353.22	95
353.447	104
353.674	104
353.901	101
354.128	106
354.355	98
354.583	116
354.81	95
355.037	108
355.264	102
355.491	92
355.718	89
355.945	106
356.172	94
356.399	97
356.626	119
356.853	88
357.08	108
357.307	102
357.534	115
357.761	97
357.988	109
358.215	105
358.441	104
358.668	115
358.895	116
359.122	115
359.349	114
359.576	105
359.802	105
360.029	118
360.256	117
360.483	96
360.709	113
360.936	104
361.163	113
361.39	119
361.616	102
361.843	101
362.07	118
362.296	108
362.523	107
362.749	94
362.976	104
363.203	93
363.429	101
363.656	116
363.882	104
364.109	118
364.335	106
364.562	103
364.788	104
365.015	103
365.241	125
365.468	181
365.694	221
365.92	171
366.147	128
366.373	115
366.599	105
366.826	114
367.052	88
367.278	100
367.505	94
367.731	98
367.957	115
368.184	104
368.41	109
368.636	120
368.862	114
369.089	105
369.315	94
369.541	107
369.767	109
369.993	104
370.219	97
370.445	113
370.672	86
370.898	95
371.124	107
371.35	101
371.576	104
371.802	111
372.028	120
372.254	112
372.48	116
372.706	110
372.932	120
373.158	100
373.384	115
373.61	111
373.835	120
374.061	119
374.287	114
374.513	98
374.739	105
374.965	106
375.191	93
375.416	110
375.642	108
375.868	113
376.094	90
376.319	117
376.545	96
376.771	99
376.997	99
377.222	109
377.448	118
377.674	105
377.899	105
378.125	127
378.35	116
378.576	112
378.802	104
379.027	99
379.253	122
379.478	169
379.704	285
379.929	697
380.155	1428
380.38	1485
380.606	450
380.831	168
381.057	134
381.282	107
381.507	111
381.733	106
381.958	109
382.184	100
382.409	108
382.634	107
382.86	89
383.085	104
383.31	102
383.535	90
383.761	112
383.986	116
384.211	103
384.436	94
384.662	91
384.887	104
385.112	99
385.337	94
385.562	109
385.787	102
386.013	102
386.238	103
386.463	101
386.688	94
386.913	107
387.138	112
387.363	94
387.588	107
387.813	109
388.038	98
388.263	113
388.488	93
388.713	95
388.938	100
389.163	93
389.387	110
389.612	94
389.837	112
390.062	109
390.287	110
390.512	93
390.736	96
390.961	76
391.186	98
391.411	88
391.636	93
391.86	101
392.085	104
392.31	72
392.534	89
392.759	93
392.984	94
393.208	125
393.433	140
393.658	139
393.882	104
394.107	102
394.331	96
394.556	106
394.78	105
395.005	85
395.229	89
395.454	84
395.678	91
395.903	105
396.127	108
396.352	105
396.576	106
396.801	116
397.025	116
397.249	96
397.474	107
397.698	108
397.922	98
398.147	100
398.371	88
398.595	99
398.82	98
399.044	101
399.268	93
399.492	114
399.717	107
399.941	104
400.165	99
400.389	92
400.613	114
400.837	99
401.062	96
401.286	89
401.51	90
401.734	104
401.958	106
402.182	107
402.406	101
402.63	87
402.854	91
403.078	96
403.302	103
403.526	93
403.75	89
403.974	98
404.198	95
404.422	92
404.645	82
404.869	96
405.093	97
405.317	103
405.541	118
405.765	109
405.988	124
406.212	112
406.436	83
406.66	100
406.883	86
407.107	84
407.331	95
407.555	101
407.778	109
408.002	104
408.226	112
408.449	105
408.673	91
408.896	93
409.12	89
409.344	116
409.567	93
409.791	89
410.014	98
410.238	96
410.461	109
410.685	93
410.908	107
411.132	106
411.355	103
411.578	97
411.802	98
412.025	111
412.249	91
412.472	87
412.695	88
412.919	107
413.142	90
413.365	104
413.589	88
413.812	103
414.035	93
414.258	101
414.482	104
414.705	104
414.928	102
415.151	93
415.374	84
415.597	85
415.821	92
416.044	95
416.267	89
416.49	105
416.713	95
416.936	103
417.159	98
417.382	85
417.605	86
417.828	98
418.051	104
418.274	93
418.497	93
418.72	103
418.943	96
419.166	93
419.389	103
419.611	94
419.834	92
420.057	102
420.28	102
420.503	100
420.726	100
420.948	93
421.171	96
421.394	97
421.617	106
421.839	102
422.062	96
422.285	92
422.507	98
422.73	118
422.953	141
423.175	118
423.398	96
423.621	98
423.843	94
424.066	105
424.288	96
424.511	108
424.733	109
424.956	99
425.178	96
425.401	105
425.623	100
425.846	95
426.068	96
426.291	91
426.513	104
426.735	100
426.958	92
427.18	95
427.402	99
427.625	98
427.847	96
428.069	88
428.292	102
428.514	109
428.736	83
428.958	97
429.181	99
429.403	100
429.625	114
429.847	95
430.069	106
430.292	93
430.514	107
430.736	101
430.958	93
431.18	77
431.402	88
431.624	108
431.846	86
432.068	91
432.29	87
432.512	96
432.734	84
432.956	90
433.178	102
433.4	108
433.622	97
433.844	104
434.066	97
434.287	81
434.509	83
434.731	102
434.953	95
435.175	95
435.397	96
435.618	92
435.84	99
436.062	97
436.284	96
436.505	96
436.727	91
436.949	87
437.17	93
437.392	98
437.614	104
437.835	103
438.057	97
438.278	81
438.5	102
438.721	100
438.943	100
439.165	112
439.386	113
439.608	105
439.829	93
440.05	101
440.272	122
440.493	106
440.715	101
440.936	94
441.158	94
441.379	96
441.6	104
441.822	116
442.043	114
442.264	123
442.486	117
442.707	93
442.928	97
443.149	91
443.371	106
443.592	101
443.813	98
444.034	100
444.255	102
444.476	100
444.698	104
444.919	106
445.14	209
445.361	147
445.582	90
445.803	102
446.024	89
446.245	102
446.466	105
446.687	100
446.908	117
447.129	106
447.35	100
447.571	107
447.792	109
448.013	96
448.234	86
448.455	98
448.675	108
448.896	97
449.117	111
449.338	125
449.559	142
449.779	117
450	95
450.221	111
450.442	109
450.662	108
450.883	87
451.104	117
451.324	124
451.545	123
451.766	118
451.986	129
452.207	208
452.428	498
452.648	1226
452.869	660
453.089	174
453.31	112
453.53	128
453.751	132
453.971	145
454.192	166
454.412	100
454.633	94
454.853	96
455.073	93
455.294	102
455.514	95
455.734	94
455.955	95
456.175	93
456.395	101
456.616	96
456.836	106
457.056	106
457.276	96
457.497	98
457.717	105
457.937	97
458.157	80
458.377	86
458.598	90
458.818	77
459.038	93
459.258	98
459.478	89
459.698	80
459.918	103
460.138	103
460.358	93
460.578	95
460.798	72
461.018	98
461.238	99
461.458	99
461.678	88
461.898	94
462.118	102
462.338	93
462.558	96
462.777	99
462.997	115
463.217	114
463.437	122
463.657	178
463.876	181
464.096	112
464.316	101
464.536	103
464.755	91
464.975	92
465.195	74
465.414	84
465.634	94
465.854	96
466.073	84
466.293	85
466.512	116
466.732	104
466.951	104
467.171	122
467.391	144
467.61	93
467.829	92
468.049	105
468.268	101
468.488	94
468.707	100
468.927	98
469.146	98
469.365	104
469.585	107
469.804	101
470.023	98
470.243	104
470.462	100
470.681	114
470.901	124
471.12	177
471.339	197
471.558	121
471.777	110
471.997	106
472.216	114
472.435	92
472.654	88
472.873	92
473.092	94
473.311	101
473.53	101
473.749	89
473.968	102
474.187	101
474.406	89
474.625	86
474.844	81
475.063	91
475.282	92
475.501	87
475.72	103
475.939	97
476.158	106
476.377	119
476.596	111
476.814	93
477.033	100
477.252	98
477.471	93
477.69	100
477.908	92
478.127	102
478.346	92
478.564	85
478.783	108
479.002	100
479.22	95
479.439	106
479.658	96
479.876	107
480.095	88
480.313	103
480.532	105
480.751	94
480.969	97
481.188	84
481.406	96
481.624	107
481.843	122
482.061	121
482.28	95
482.498	100
482.717	86
482.935	100
483.153	99
483.372	100
483.59	106
483.808	112
484.027	108
484.245	119
484.463	165
484.681	213
484.9	141
485.118	105
485.336	105
485.554	117
485.772	124
485.99	194
486.209	236
486.427	145
486.645	106
486.863	101
487.081	100
487.299	82
487.517	91
487.735	92
487.953	97
488.171	111
488.389	100
488.607	96
488.825	109
489.043	94
489.261	88
489.479	102
489.696	94
489.914	105
490.132	81
490.35	93
490.568	98
490.786	101
491.003	105
491.221	110
491.439	103
491.657	111
491.874	110
492.092	108
492.31	92
492.527	105
492.745	102
492.963	91
493.18	100
493.398	100
493.615	108
493.833	107
494.05	96
494.268	96
494.485	111
494.703	109
494.92	102
495.138	100
495.355	104
495.573	115
495.79	97
496.008	107
496.225	105
496.442	108
496.66	112
496.877	149
497.094	130
497.312	105
497.529	87
497.746	98
497.963	103
498.181	111
498.398	102
498.615	112
498.832	100
499.049	101
499.267	126
499.484	149
499.701	115
499.918	111
500.135	100
500.352	108
500.569	92
500.786	117
501.003	93
501.22	97
501.437	117
501.654	106
501.871	89
502.088	97
502.305	100
502.522	82
502.739	92
502.956	90
503.172	92
503.389	106
503.606	91
503.823	90
504.04	87
504.256	105
504.473	103
504.69	98
504.907	105
505.123	117
505.34	104
505.557	118
505.773	97
505.99	76
506.207	96
506.423	112
506.64	112
506.856	102
507.073	97
507.289	94
507.506	109
507.722	102
507.939	97
508.155	107
508.372	94
508.588	90
508.805	112
509.021	107
509.238	109
509.454	135
509.67	134
509.887	105
510.103	95
510.319	91
510.536	95
510.752	106
510.968	98
511.184	101
511.401	102
511.617	106
511.833	104
512.049	96
512.265	95
512.481	91
512.698	92
512.914	99
513.13	104
513.346	91
513.562	82
513.778	100
513.994	104
514.21	90
514.426	135
514.642	176
514.858	104
515.074	102
515.29	96
515.506	115
515.721	88
515.937	96
516.153	91
516.369	96
516.585	104
516.801	92
517.016	107
517.232	106
517.448	101
517.664	117
517.879	108
518.095	86
518.311	122
518.527	116
518.742	108
518.958	117
519.173	146
519.389	108
519.605	100
519.82	97
520.036	100
520.251	99
520.467	84
520.682	84
520.898	98
521.113	100
521.329	112
521.544	107
521.76	104
521.975	101
522.19	106
522.406	102
522.621	93
522.836	90
523.052	91
523.267	92
523.482	90
523.698	92
523.913	104
524.128	87
524.343	98
524.559	92
524.774	100
524.989	96
525.204	99
525.419	78
525.634	105
525.849	103
526.064	100
526.28	105
526.495	87
526.71	99
526.925	102
527.14	90
527.355	88
527.57	91
527.785	100
527.999	115
528.214	90
528.429	94
528.644	104
528.859	97
529.074	86
529.289	89
529.503	86
529.718	94
529.933	99
530.148	115
530.363	75
530.577	86
530.792	93
531.007	98
531.221	89
531.436	87
531.651	88
531.865	89
532.08	101
532.295	102
532.509	151
532.724	118
532.938	100
533.153	80
533.367	96
533.582	94
533.796	103
534.011	93
534.225	94
534.44	93
534.654	93
534.868	91
535.083	99
535.297	99
535.511	102
535.726	102
535.94	107
536.154	90
536.369	101
536.583	90
536.797	85
537.011	95
537.225	98
537.44	91
537.654	89
537.868	96
538.082	90
538.296	101
538.51	92
538.724	104
538.938	88
539.153	97
539.367	107
539.581	101
539.795	80
540.009	84
540.222	92
540.436	93
540.65	103
540.864	106
541.078	117
541.292	112
541.506	180
541.72	183
541.934	134
542.147	127
542.361	107
542.575	96
542.789	100
543.002	107
543.216	91
543.43	101
543.644	98
543.857	102
544.071	92
544.285	87
544.498	88
544.712	99
544.925	112
545.139	117
545.352	113
545.566	104
545.779	109
545.993	109
546.206	97
546.42	101
546.633	106
546.847	107
547.06	106
547.274	99
547.487	103
547.7	107
547.914	111
548.127	103
548.34	101
548.554	101
548.767	91
548.98	94
549.193	116
549.407	117
549.62	104
549.833	102
550.046	104
550.259	96
550.473	99
550.686	105
550.899	103
551.112	98
551.325	99
551.538	96
551.751	94
551.964	82
552.177	98
552.39	112
552.603	112
552.816	100
553.029	110
553.242	102
553.455	116
553.667	99
553.88	92
554.093	100
554.306	113
554.519	87
554.732	104
554.944	99
555.157	97
555.37	106
555.583	102
555.795	106
556.008	119
556.221	148
556.433	122
556.646	122
556.859	103
557.071	104
557.284	130
557.496	122
557.709	103
557.921	112
558.134	116
558.346	100
558.559	98
558.771	91
558.984	105
559.196	95
559.409	93
559.621	101
559.833	99
560.046	94
560.258	104
560.47	97
560.683	94
560.895	96
561.107	100
561.32	95
561.532	102
561.744	99
561.956	104
562.168	93
562.381	93
562.593	112
562.805	127
563.017	148
563.229	235
563.441	526
563.653	176
563.865	108
564.077	112
564.289	105
564.501	96
564.713	98
564.925	111
565.137	100
565.349	93
565.561	103
565.773	105
565.985	105
566.197	108
566.408	93
566.62	83
566.832	102
567.044	114
567.255	90
567.467	91
567.679	107
567.891	108
568.102	157
568.314	253
568.526	154
568.737	104
568.949	99
569.161	123
569.372	99
569.584	91
569.795	107
570.007	94
570.218	121
570.43	146
570.641	112
570.853	98
571.064	100
571.276	93
571.487	103
571.698	90
571.91	75
572.121	90
572.333	103
572.544	89
572.755	147
572.966	188
573.178	127
573.389	103
573.6	100
573.811	94
574.023	98
574.234	90
574.445	87
574.656	98
574.867	88
575.078	87
575.289	89
575.501	94
575.712	92
575.923	96
576.134	82
576.345	89
576.556	105
576.767	98
576.978	97
577.188	97
577.399	89
577.61	80
577.821	85
578.032	80
578.243	78
578.454	96
578.665	86
578.875	90
579.086	88
579.297	85
579.508	94
579.718	107
579.929	85
580.14	101
580.35	93
580.561	97
580.772	88
580.982	102
581.193	84
581.403	98
581.614	85
581.825	88
582.035	82
582.246	88
582.456	84
582.667	80
582.877	120
583.087	118
583.298	96
583.508	95
583.719	91
583.929	90
584.139	97
584.35	94
584.56	90
584.77	86
584.981	86
585.191	99
585.401	92
585.611	96
585.821	85
586.032	102
586.242	97
586.452	85
586.662	102
586.872	100
587.082	82
587.292	94
587.502	91
587.713	73
587.923	101
588.133	73
588.343	86
588.553	88
588.762	100
588.972	96
589.182	121
589.392	111
589.602	80
589.812	104
590.022	96
590.232	90
590.441	77
590.651	97
590.861	97
591.071	90
591.281	96
591.49	91
591.7	92
591.91	99
592.119	100
592.329	92
592.539	107
592.748	90
592.958	99
593.167	101
593.377	95
593.587	98
593.796	82
594.006	90
594.215	97
594.424	92
594.634	83
594.843	89
595.053	88
595.262	87
595.472	92
595.681	92
595.89	90
596.1	98
596.309	92
596.518	95
596.727	86
596.937	87
597.146	85
597.355	84
597.564	98
597.774	98
597.983	96
598.192	93
598.401	88
598.61	96
598.819	88
599.028	86
599.237	88
599.446	105
599.655	93
599.864	82
600.073	97
600.282	95
600.491	92
600.7	74
600.909	85
601.118	95
601.327	89
601.536	92
601.745	98
601.953	132
602.162	149
602.371	104
602.58	105
602.789	82
602.997	97
603.206	86
603.415	98
603.623	97
603.832	96
604.041	81
604.249	99
604.458	99
604.666	90
604.875	97
605.084	84
605.292	91
605.501	93
605.709	89
605.918	103
606.126	106
606.334	106
606.543	85
606.751	122
606.96	163
607.168	170
607.376	123
607.585	121
607.793	89
608.001	100
608.21	83
608.418	80
608.626	86
608.834	90
609.043	80
609.251	95
609.459	89
609.667	76
609.875	94
610.083	91
610.291	88
610.499	93
610.707	75
610.916	92
611.124	93
611.332	91
611.54	90
611.748	94
611.955	102
612.163	93
612.371	92
612.579	87
612.787	95
612.995	89
613.203	92
613.411	84
613.618	77
613.826	87
614.034	96
614.242	96
614.449	85
614.657	88
614.865	96
615.072	101
615.28	112
615.488	107
615.695	90
615.903	98
616.111	91
616.318	95
616.526	114
616.733	77
616.941	84
617.148	94
617.356	92
617.563	99
617.771	88
617.978	86
618.185	89
618.393	83
618.6	86
618.807	79
619.015	91
619.222	84
619.429	91
619.637	97
619.844	79
620.051	84
620.258	75
620.466	89
620.673	94
620.88	102
621.087	83
621.294	100
621.501	70
621.708	77
621.915	82
622.122	87
622.329	93
622.536	82
622.743	97
622.95	86
623.157	89
623.364	92
623.571	96
623.778	91
623.985	97
624.192	97
624.399	90
624.606	88
624.812	88
625.019	99
625.226	95
625.433	95
625.639	88
625.846	99
626.053	92
626.259	89
626.466	87
626.673	89
626.879	81
627.086	91
627.293	105
627.499	94
627.706	91
627.912	103
628.119	85
628.325	85
628.532	79
628.738	84
628.945	77
629.151	84
629.357	93
629.564	86
629.77	104
629.976	83
630.183	94
630.389	92
630.595	86
630.802	101
631.008	80
631.214	97
631.42	88
631.627	100
631.833	82
632.039	82
632.245	95
632.451	95
632.657	78
632.863	74
633.069	94
633.275	84
633.481	74
633.688	85
633.893	65
634.099	97
634.305	92
634.511	95
634.717	94
634.923	96
635.129	106
635.335	129
635.541	93
635.747	89
635.952	103
636.158	84
636.364	81
636.57	98
636.775	98
636.981	94
637.187	93
637.392	72
637.598	88
637.804	81
638.009	102
638.215	89
638.421	86
638.626	89
638.832	95
639.037	79
639.243	84
639.448	82
639.654	100
639.859	84
640.065	86
640.27	86
640.475	81
640.681	93
640.886	72
641.091	78
641.297	88
641.502	89
641.707	101
641.913	95
642.118	95
642.323	101
642.528	100
642.733	87
642.939	91
643.144	97
643.349	89
643.554	81
643.759	88
643.964	98
644.169	87
644.374	85
644.579	109
644.784	91
644.989	84
645.194	84
645.399	100
645.604	102
645.809	98
646.014	82
646.219	76
646.423	90
646.628	93
646.833	82
647.038	86
647.243	80
647.447	85
647.652	90
647.857	84
648.062	85
648.266	95
648.471	91
648.676	84
648.88	92
649.085	96
649.289	98
649.494	87
649.698	70
649.903	71
650.107	93
650.312	97
650.516	90
650.721	91
650.925	85
651.13	91
651.334	96
651.539	94
651.743	87
651.947	85
652.152	93
652.356	80
652.56	104
652.764	114
652.969	93
653.173	88
653.377	89
653.581	90
653.785	85
653.99	89
654.194	84
654.398	94
654.602	74
654.806	85
655.01	78
655.214	99
655.418	79
655.622	77
655.826	89
656.03	91
656.234	99
656.438	95
656.642	85
656.846	86
657.049	92
657.253	81
657.457	93
657.661	82
657.865	85
658.068	81
658.272	76
658.476	80
658.68	73
658.883	74
659.087	82
659.291	95
659.494	91
659.698	90
659.901	81
660.105	92
660.309	75
660.512	79
660.716	88
660.919	85
661.123	88
661.326	75
661.53	83
661.733	72
661.936	86
662.14	86
662.343	91
662.546	85
662.75	80
662.953	75
663.156	83
663.36	80
663.563	83
663.766	96
663.969	87
664.173	87
664.376	75
664.579	89
664.782	67
664.985	84
665.188	75
665.391	89
665.594	89
665.797	88
666	77
666.203	78
666.406	78
666.609	88
666.812	83
667.015	83
667.218	86
667.421	82
667.624	87
667.827	87
668.03	88
668.232	77
668.435	76
668.638	88
668.841	93
669.043	77
669.246	78
669.449	93
669.651	83
669.854	78
670.057	89
670.259	82
670.462	91
670.665	81
670.867	66
671.07	89
671.272	92
671.475	84
671.677	88
671.88	83
672.082	86
672.284	89
672.487	92
672.689	81
672.892	87
