Data from SnStandardFlinnAPT0064_LampEnergy10_LIBS07252019.E.O._I.C._HRD10591_15-20-36-494.txt Node
Date: Thu Jul 25 15:20:36 EDT 2019
User: cochatt
Spectrometer: HR+D1059
Trigger mode: 1
Integration Time (sec): 1.000000E-1
Scans to average: 1
Electric dark correction enabled: true
Nonlinearity correction enabled: false
Boxcar width: 0
XAxis mode: Wavelengths
Number of Pixels in Spectrum: 2048
>>>>>Begin Spectral Data<<<<<
223.165	-16
223.4	-16
223.635	-16
223.869	-18
224.104	-8
224.338	-7
224.573	-7
224.808	-17
225.042	-20
225.277	-10
225.511	5
225.746	14
225.98	6
226.215	8
226.449	10
226.683	15
226.918	28
227.152	17
227.387	30
227.621	37
227.856	33
228.09	62
228.324	50
228.559	53
228.793	119
229.027	310
229.262	335
229.496	312
229.73	316
229.964	293
230.199	307
230.433	299
230.667	309
230.901	328
231.136	361
231.37	361
231.604	380
231.838	452
232.072	527
232.306	568
232.541	474
232.775	432
233.009	397
233.243	428
233.477	477
233.711	527
233.945	590
234.179	521
234.413	444
234.647	462
234.881	466
235.115	505
235.349	609
235.583	790
235.817	999
236.051	952
236.285	674
236.519	550
236.753	505
236.987	505
237.221	533
237.455	499
237.689	462
237.922	448
238.156	481
238.39	501
238.624	488
238.858	486
239.091	504
239.325	512
239.559	514
239.793	512
240.027	534
240.26	549
240.494	576
240.728	578
240.961	628
241.195	651
241.429	672
241.662	713
241.896	798
242.13	955
242.363	1234
242.597	1643
242.83	1581
243.064	1564
243.298	1835
243.531	1517
243.765	974
243.998	802
244.232	714
244.465	666
244.699	655
244.932	674
245.166	656
245.399	700
245.633	683
245.866	699
246.099	669
246.333	660
246.566	657
246.8	642
247.033	653
247.266	662
247.5	653
247.733	662
247.966	727
248.2	766
248.433	882
248.666	1010
248.899	989
249.133	859
249.366	867
249.599	969
249.832	1081
250.066	1065
250.299	878
250.532	767
250.765	744
250.998	733
251.231	723
251.465	735
251.698	748
251.931	739
252.164	749
252.397	772
252.63	813
252.863	801
253.096	800
253.329	775
253.562	778
253.795	767
254.028	793
254.261	826
254.494	904
254.727	1030
254.96	1253
255.193	1203
255.426	988
255.659	888
255.892	884
256.124	862
256.357	873
256.59	917
256.823	975
257.056	1108
257.289	1330
257.521	1489
257.754	1190
257.987	968
258.22	923
258.452	930
258.685	914
258.918	970
259.151	987
259.383	1099
259.616	1228
259.849	1279
260.081	1115
260.314	994
260.547	947
260.779	919
261.012	967
261.244	955
261.477	975
261.71	992
261.942	983
262.175	1010
262.407	1048
262.64	1051
262.872	1091
263.105	1141
263.337	1210
263.57	1235
263.802	1297
264.035	1316
264.267	1366
264.499	1393
264.732	1451
264.964	1426
265.197	1421
265.429	1415
265.661	1457
265.894	1590
266.126	1763
266.358	1975
266.591	1917
266.823	1623
267.055	1465
267.287	1368
267.52	1330
267.752	1295
267.984	1300
268.216	1219
268.448	1255
268.681	1226
268.913	1210
269.145	1255
269.377	1229
269.609	1239
269.841	1270
270.073	1366
270.306	1590
270.538	2172
270.77	3243
271.002	3997
271.234	2765
271.466	1891
271.698	1543
271.93	1361
272.162	1348
272.394	1276
272.626	1257
272.858	1226
273.09	1228
273.322	1212
273.553	1181
273.785	1180
274.017	1188
274.249	1207
274.481	1228
274.713	1203
274.945	1206
275.176	1215
275.408	1212
275.64	1238
275.872	1246
276.104	1247
276.335	1269
276.567	1267
276.799	1265
277.031	1302
277.262	1331
277.494	1407
277.726	1593
277.957	1848
278.189	2111
278.421	1957
278.652	1795
278.884	1662
279.115	1504
279.347	1442
279.579	1392
279.81	1402
280.042	1398
280.273	1427
280.505	1457
280.736	1512
280.968	1608
281.199	1783
281.431	2062
281.662	2121
281.894	1758
282.125	1642
282.356	1669
282.588	1673
282.819	1696
283.051	1860
283.282	2013
283.513	2479
283.745	3616
283.976	5710
284.207	8120
284.439	7330
284.67	4580
284.901	3725
285.132	3798
285.364	3609
285.595	2740
285.826	2450
286.057	2866
286.288	3910
286.52	5318
286.751	4897
286.982	3053
287.213	2332
287.444	2016
287.675	1827
287.906	1806
288.138	1707
288.369	1693
288.6	1692
288.831	1669
289.062	1678
289.293	1707
289.524	1680
289.755	1731
289.986	1715
290.217	1710
290.448	1700
290.679	1736
290.91	1716
291.141	1852
291.371	2028
291.602	2083
291.833	1940
292.064	1732
292.295	1698
292.526	1638
292.757	1626
292.987	1586
293.218	1593
293.449	1594
293.68	1572
293.91	1537
294.141	1531
294.372	1570
294.603	1565
294.833	1594
295.064	1554
295.295	1583
295.525	1551
295.756	1561
295.987	1509
296.217	1554
296.448	1590
296.679	1570
296.909	1573
297.14	1615
297.37	1645
297.601	1653
297.831	1630
298.062	1633
298.292	1627
298.523	1648
298.753	1702
298.984	1728
299.214	1714
299.445	1729
299.675	1766
299.905	1866
300.136	1963
300.366	2125
300.597	2740
300.827	3858
301.057	5250
301.288	5268
301.518	3383
301.748	2614
301.979	2423
302.209	2276
302.439	2332
302.669	2444
302.9	2934
303.13	4208
303.36	6133
303.59	8278
303.82	7137
304.051	4286
304.281	3049
304.511	2570
304.741	2338
304.971	2190
305.201	2052
305.431	1996
305.661	1959
305.891	1928
306.121	1923
306.352	1895
306.582	1862
306.812	1851
307.042	1828
307.272	1827
307.502	1771
307.731	1822
307.961	1792
308.191	1781
308.421	1794
308.651	1783
308.881	1794
309.111	1792
309.341	1839
309.571	1866
309.8	1834
310.03	1840
310.26	1876
310.49	1834
310.72	1881
310.949	1868
311.179	1919
311.409	1900
311.639	1915
311.868	1913
312.098	1909
312.328	1990
312.557	1979
312.787	1947
313.017	1992
313.246	2008
313.476	1990
313.706	2080
313.935	2182
314.165	2346
314.394	2472
314.624	2379
314.853	2136
315.083	2146
315.312	2118
315.542	2204
315.771	2218
316.001	2269
316.23	2300
316.46	2444
316.689	2664
316.919	3207
317.148	4609
317.377	7152
317.607	10451
317.836	10838
318.065	6587
318.295	4257
318.524	3442
318.753	3014
318.983	2749
319.212	2596
319.441	2494
319.67	2425
319.9	2417
320.129	2342
320.358	2378
320.587	2369
320.816	2344
321.046	2362
321.275	2345
321.504	2391
321.733	2426
321.962	2493
322.191	2491
322.42	2507
322.649	2497
322.878	2450
323.108	2472
323.337	2530
323.566	2575
323.795	2571
324.024	2667
324.253	2741
324.482	2825
324.71	3021
324.939	3202
325.168	3321
325.397	3416
325.626	4099
325.855	5659
326.084	8769
326.313	12645
326.542	13459
326.77	9186
326.999	5920
327.228	4983
327.457	4700
327.686	4825
327.914	5121
328.143	6094
328.372	7147
328.6	7907
328.829	7003
329.058	5818
329.287	5110
329.515	4639
329.744	4320
329.972	4024
330.201	3853
330.43	3732
330.658	3596
330.887	3533
331.115	3501
331.344	3473
331.572	3448
331.801	3476
332.03	3531
332.258	3541
332.486	3714
332.715	4262
332.943	5332
333.172	6592
333.4	6664
333.629	4971
333.857	4444
334.085	4474
334.314	4682
334.542	5150
334.771	6075
334.999	7437
335.227	9274
335.455	10533
335.684	9512
335.912	7803
336.14	6534
336.369	5730
336.597	5264
336.825	4875
337.053	4523
337.281	4270
337.51	4071
337.738	3915
337.966	3654
338.194	3614
338.422	3480
338.65	3368
338.878	3277
339.106	3205
339.334	3206
339.562	3130
339.79	3069
340.018	3083
340.246	2997
340.474	3016
340.702	3023
340.93	3048
341.158	2970
341.386	2977
341.614	2970
341.842	2894
342.07	2821
342.298	2870
342.526	2787
342.754	2738
342.981	2725
343.209	2718
343.437	2761
343.665	2787
343.893	2812
344.12	2819
344.348	2794
344.576	2680
344.804	2669
345.031	2627
345.259	2582
345.487	2544
345.714	2530
345.942	2526
346.17	2526
346.397	2573
346.625	2482
346.853	2482
347.08	2510
347.308	2520
347.535	2530
347.763	2497
347.99	2503
348.218	2480
348.445	2454
348.673	2409
348.9	2468
349.128	2438
349.355	2434
349.583	2429
349.81	2432
350.037	2438
350.265	2395
350.492	2421
350.72	2381
350.947	2410
351.174	2409
351.402	2369
351.629	2389
351.856	2380
352.083	2358
352.311	2386
352.538	2404
352.765	2376
352.992	2363
353.22	2344
353.447	2375
353.674	2353
353.901	2363
354.128	2358
354.355	2388
354.583	2396
354.81	2424
355.037	2377
355.264	2398
355.491	2388
355.718	2474
355.945	2436
356.172	2493
356.399	2464
356.626	2496
356.853	2520
357.08	2523
357.307	2538
357.534	2608
357.761	2616
357.988	2584
358.215	2549
358.441	2572
358.668	2509
358.895	2576
359.122	2544
359.349	2507
359.576	2476
359.802	2521
360.029	2516
360.256	2543
360.483	2531
360.709	2538
360.936	2541
361.163	2534
361.39	2521
361.616	2508
361.843	2562
362.07	2527
362.296	2558
362.523	2568
362.749	2555
362.976	2561
363.203	2497
363.429	2532
363.656	2542
363.882	2533
364.109	2527
364.335	2558
364.562	2533
364.788	2532
365.015	2613
365.241	2638
365.468	2792
365.694	2940
365.92	2803
366.147	2593
366.373	2582
366.599	2562
366.826	2603
367.052	2591
367.278	2625
367.505	2594
367.731	2597
367.957	2579
368.184	2634
368.41	2624
368.636	2632
368.862	2648
369.089	2631
369.315	2600
369.541	2596
369.767	2637
369.993	2612
370.219	2608
370.445	2648
370.672	2659
370.898	2611
371.124	2649
371.35	2746
371.576	2702
371.802	2739
372.028	2736
372.254	2781
372.48	2743
372.706	2776
372.932	2818
373.158	2802
373.384	2784
373.61	2777
373.835	2800
374.061	2814
374.287	2804
374.513	2842
374.739	2875
374.965	2872
375.191	2916
375.416	2882
375.642	2858
375.868	2860
376.094	2786
376.319	2773
376.545	2796
376.771	2759
376.997	2729
377.222	2738
377.448	2727
377.674	2733
377.899	2707
378.125	2690
378.35	2700
378.576	2753
378.802	2746
379.027	2813
379.253	2853
379.478	3051
379.704	3571
379.929	5129
380.155	7968
380.38	8636
380.606	5252
380.831	3709
381.057	3290
381.282	2944
381.507	2901
381.733	2766
381.958	2760
382.184	2733
382.409	2711
382.634	2628
382.86	2676
383.085	2712
383.31	2705
383.535	2681
383.761	2711
383.986	2698
384.211	2723
384.436	2768
384.662	2787
384.887	2829
385.112	2778
385.337	2793
385.562	2729
385.787	2749
386.013	2792
386.238	2769
386.463	2765
386.688	2780
386.913	2692
387.138	2714
387.363	2781
387.588	2733
387.813	2733
388.038	2772
388.263	2758
388.488	2758
388.713	2738
388.938	2722
389.163	2724
389.387	2733
389.612	2749
389.837	2724
390.062	2768
390.287	2782
390.512	2858
390.736	2860
390.961	2880
391.186	2864
391.411	2848
391.636	2845
391.86	2900
392.085	2878
392.31	2873
392.534	2883
392.759	2806
392.984	2802
393.208	2803
393.433	2798
393.658	2805
393.882	2784
394.107	2792
394.331	2753
394.556	2777
394.78	2840
395.005	2834
395.229	2846
395.454	2876
395.678	2873
395.903	2855
396.127	2845
396.352	2835
396.576	2825
396.801	2765
397.025	2905
397.249	2916
397.474	2873
397.698	2893
397.922	2929
398.147	2954
398.371	2929
398.595	3002
398.82	3064
399.044	3180
399.268	3267
399.492	3546
399.717	3670
399.941	3645
400.165	3529
400.389	3376
400.613	3233
400.837	3170
401.062	3107
401.286	3026
401.51	3044
401.734	3021
401.958	3066
402.182	3090
402.406	2996
402.63	3067
402.854	3068
403.078	3083
403.302	3083
403.526	3157
403.75	3143
403.974	3180
404.198	3104
404.422	3155
404.645	3122
404.869	3126
405.093	3185
405.317	3165
405.541	3248
405.765	3259
405.988	3289
406.212	3296
406.436	3216
406.66	3288
406.883	3308
407.107	3361
407.331	3411
407.555	3458
407.778	3412
408.002	3424
408.226	3384
408.449	3354
408.673	3298
408.896	3266
409.12	3212
409.344	3227
409.567	3144
409.791	3161
410.014	3104
410.238	3096
410.461	3138
410.685	3116
410.908	3094
411.132	3124
411.355	3010
411.578	3050
411.802	3005
412.025	3039
412.249	3078
412.472	3034
412.695	2996
412.919	3020
413.142	2959
413.365	2983
413.589	3020
413.812	2970
414.035	2990
414.258	3010
414.482	3045
414.705	3037
414.928	2982
415.151	2991
415.374	2944
415.597	2949
415.821	2841
416.044	2848
416.267	2902
416.49	2874
416.713	2816
416.936	2899
417.159	2800
417.382	2851
417.605	2773
417.828	2843
418.051	2861
418.274	2883
418.497	2894
418.72	2949
418.943	2903
419.166	3030
419.389	3198
419.611	3138
419.834	3052
420.057	3008
420.28	2923
420.503	2836
420.726	2881
420.948	2804
421.171	2868
421.394	2867
421.617	2870
421.839	2869
422.062	2892
422.285	2826
422.507	2898
422.73	2908
422.953	2965
423.175	2979
423.398	2932
423.621	2856
423.843	2907
424.066	2831
424.288	2870
424.511	2868
424.733	2825
424.956	2813
425.178	2796
425.401	2795
425.623	2855
425.846	2770
426.068	2773
426.291	2806
426.513	2714
426.735	2765
426.958	2755
427.18	2683
427.402	2691
427.625	2706
427.847	2619
428.069	2655
428.292	2668
428.514	2662
428.736	2626
428.958	2688
429.181	2577
429.403	2612
429.625	2661
429.847	2667
430.069	2718
430.292	2778
430.514	2839
430.736	2848
430.958	2696
431.18	2714
431.402	2647
431.624	2646
431.846	2623
432.068	2612
432.29	2561
432.512	2549
432.734	2651
432.956	2602
433.178	2647
433.4	2556
433.622	2680
433.844	2640
434.066	2657
434.287	2640
434.509	2693
434.731	2648
434.953	2706
435.175	2766
435.397	2780
435.618	2670
435.84	2682
436.062	2566
436.284	2592
436.505	2600
436.727	2625
436.949	2573
437.17	2626
437.392	2551
437.614	2580
437.835	2487
438.057	2529
438.278	2602
438.5	2560
438.721	2577
438.943	2684
439.165	2697
439.386	2691
439.608	2710
439.829	2753
440.05	2830
440.272	2841
440.493	2744
440.715	2708
440.936	2706
441.158	2726
441.379	2774
441.6	2841
441.822	2993
442.043	3100
442.264	3181
442.486	2959
442.707	2837
442.928	2811
443.149	2872
443.371	2794
443.592	2820
443.813	2816
444.034	2834
444.255	2868
444.476	2949
444.698	2968
444.919	3011
445.14	3128
445.361	2919
445.582	2915
445.803	2828
446.024	2794
446.245	2795
446.466	2835
446.687	2756
446.908	2684
447.129	2701
447.35	2629
447.571	2610
447.792	2587
448.013	2565
448.234	2600
448.455	2626
448.675	2624
448.896	2684
449.117	2776
449.338	3040
449.559	3134
449.779	2841
450	2641
450.221	2602
450.442	2560
450.662	2490
450.883	2542
451.104	2559
451.324	2512
451.545	2500
451.766	2556
451.986	2586
452.207	2812
452.428	3576
452.648	5562
452.869	4584
453.089	3157
453.31	2958
453.53	2954
453.751	3035
453.971	3214
454.192	3121
454.412	2682
454.633	2583
454.853	2548
455.073	2498
455.294	2457
455.514	2400
455.734	2429
455.955	2398
456.175	2410
456.395	2426
456.616	2405
456.836	2470
457.056	2445
457.276	2498
457.497	2628
457.717	2674
457.937	2590
458.157	2587
458.377	2536
458.598	2580
458.818	2623
459.038	2592
459.258	2596
459.478	2665
459.698	2640
459.918	2690
460.138	2701
460.358	2808
460.578	2816
460.798	2850
461.018	2850
461.238	2809
461.458	2888
461.678	2877
461.898	3012
462.118	3004
462.338	3033
462.558	3100
462.777	3092
462.997	3271
463.217	3374
463.437	3538
463.657	3588
463.876	3556
464.096	3336
464.316	3220
464.536	3140
464.755	3072
464.975	3039
465.195	2905
465.414	2838
465.634	2726
465.854	2678
466.073	2689
466.293	2651
466.512	2630
466.732	2699
466.951	2794
467.171	3056
467.391	2973
467.61	2717
467.829	2619
468.049	2648
468.268	2549
468.488	2594
468.707	2551
468.927	2542
469.146	2546
469.365	2593
469.585	2628
469.804	2641
470.023	2734
470.243	2733
470.462	2820
470.681	2969
470.901	3282
471.12	3758
471.339	3741
471.558	3147
471.777	2840
471.997	2773
472.216	2742
472.435	2644
472.654	2666
472.873	2557
473.092	2558
473.311	2572
473.53	2637
473.749	2694
473.968	2809
474.187	2680
474.406	2617
474.625	2599
474.844	2613
475.063	2602
475.282	2594
475.501	2651
475.72	2637
475.939	2657
476.158	2733
476.377	2758
476.596	2694
476.814	2729
477.033	2746
477.252	2763
477.471	2803
477.69	2834
477.908	2936
478.127	2901
478.346	2969
478.564	2996
478.783	3021
479.002	3060
479.22	3062
479.439	3156
479.658	3086
479.876	3130
480.095	3085
480.313	3200
480.532	3238
480.751	3183
480.969	3160
481.188	3185
481.406	3112
481.624	3132
481.843	3159
482.061	3200
482.28	3139
482.498	3109
482.717	3148
482.935	3127
483.153	3195
483.372	3250
483.59	3296
483.808	3368
484.027	3422
484.245	3597
484.463	4098
484.681	4521
484.9	4110
485.118	3768
485.336	3754
485.554	3815
485.772	4058
485.99	4536
486.209	4889
486.427	4160
486.645	3660
486.863	3554
487.081	3426
487.299	3432
487.517	3370
487.735	3381
487.953	3378
488.171	3383
488.389	3248
488.607	3296
488.825	3221
489.043	3256
489.261	3236
489.479	3257
489.696	3284
489.914	3216
490.132	3261
490.35	3313
490.568	3304
490.786	3335
491.003	3360
491.221	3387
491.439	3319
491.657	3352
491.874	3385
492.092	3316
492.31	3447
492.527	3420
492.745	3404
492.963	3345
493.18	3357
493.398	3366
493.615	3339
493.833	3400
494.05	3395
494.268	3387
494.485	3435
494.703	3422
494.92	3410
495.138	3399
495.355	3400
495.573	3424
495.79	3411
496.008	3419
496.225	3519
496.442	3520
496.66	3618
496.877	3901
497.094	3860
497.312	3736
497.529	3705
497.746	3689
497.963	3820
498.181	3914
498.398	3931
498.615	4057
498.832	4262
499.049	4453
499.267	4789
499.484	5089
499.701	5075
499.918	5173
500.135	5340
500.352	5646
500.569	5757
500.786	5655
501.003	5581
501.22	5250
501.437	4981
501.654	4759
501.871	4506
502.088	4340
502.305	4200
502.522	4093
502.739	4045
502.956	3859
503.172	3785
503.389	3628
503.606	3582
503.823	3585
504.04	3585
504.256	3570
504.473	3550
504.69	3480
504.907	3535
505.123	3495
505.34	3380
505.557	3232
505.773	3236
505.99	3179
506.207	3118
506.423	3109
506.64	3092
506.856	2998
507.073	3037
507.289	3036
507.506	3010
507.722	3003
507.939	3036
508.155	2986
508.372	2924
508.588	2923
508.805	2939
509.021	2937
509.238	2978
509.454	3141
509.67	3351
509.887	3165
510.103	3033
510.319	2936
510.536	2945
510.752	2942
510.968	2846
511.184	2842
511.401	2838
511.617	2820
511.833	2869
512.049	2812
512.265	2817
512.481	2792
512.698	2834
512.914	2855
513.13	2837
513.346	2795
513.562	2879
513.778	2821
513.994	2883
514.21	2928
514.426	3125
514.642	3242
514.858	2989
515.074	2930
515.29	2909
515.506	2872
515.721	2910
515.937	2920
516.153	2906
516.369	2954
516.585	3064
516.801	3017
517.016	3075
517.232	3145
517.448	3159
517.664	3165
517.879	3233
518.095	3182
518.311	3168
518.527	3174
518.742	3142
518.958	3170
519.173	3258
519.389	3107
519.605	2987
519.82	2940
520.036	2922
520.251	2861
520.467	2878
520.682	2838
520.898	2770
521.113	2831
521.329	2783
521.544	2805
521.76	2789
521.975	2800
522.19	2769
522.406	2747
522.621	2772
522.836	2733
523.052	2706
523.267	2690
523.482	2733
523.698	2646
523.913	2675
524.128	2697
524.343	2703
524.559	2696
524.774	2673
524.989	2734
525.204	2701
525.419	2676
525.634	2652
525.849	2683
526.064	2682
526.28	2701
526.495	2656
526.71	2729
526.925	2712
527.14	2697
527.355	2729
527.57	2727
527.785	2757
527.999	2712
528.214	2747
528.429	2788
528.644	2793
528.859	2827
529.074	2872
529.289	2855
529.503	2934
529.718	2848
529.933	2872
530.148	2901
530.363	2903
530.577	2870
530.792	2893
531.007	2947
531.221	2958
531.436	2964
531.651	2953
531.865	3038
532.08	3035
532.295	3148
532.509	3427
532.724	3427
532.938	3419
533.153	3542
533.367	3805
533.582	4001
533.796	3937
534.011	3835
534.225	3673
534.44	3468
534.654	3403
534.868	3322
535.083	3290
535.297	3195
535.511	3165
535.726	3145
535.94	3081
536.154	3069
536.369	2980
536.583	2932
536.797	2915
537.011	2838
537.225	2872
537.44	2795
537.654	2829
537.868	2834
538.082	2730
538.296	2711
538.51	2723
538.724	2748
538.938	2700
539.153	2600
539.367	2658
539.581	2657
539.795	2550
540.009	2569
540.222	2618
540.436	2630
540.65	2616
540.864	2681
541.078	2688
541.292	2829
541.506	3364
541.72	3496
541.934	3028
542.147	2853
542.361	2712
542.575	2646
542.789	2629
543.002	2547
543.216	2542
543.43	2528
543.644	2545
543.857	2500
544.071	2492
544.285	2502
544.498	2552
544.712	2480
544.925	2549
545.139	2514
545.352	2564
545.566	2575
545.779	2482
545.993	2527
546.206	2577
546.42	2567
546.633	2515
546.847	2509
547.06	2546
547.274	2526
547.487	2570
547.7	2566
547.914	2567
548.127	2514
548.34	2548
548.554	2521
548.767	2554
548.98	2509
549.193	2563
549.407	2568
549.62	2564
549.833	2563
550.046	2581
550.259	2575
550.473	2509
550.686	2576
550.899	2515
551.112	2521
551.325	2554
551.538	2554
551.751	2495
551.964	2594
552.177	2589
552.39	2567
552.603	2669
552.816	2757
553.029	2730
553.242	2777
553.455	2840
553.667	2809
553.88	2827
554.093	2824
554.306	2883
554.519	2843
554.732	2935
554.944	3008
555.157	3109
555.37	3174
555.583	3238
555.795	3459
556.008	3753
556.221	4209
556.433	4530
556.646	4564
556.859	4256
557.071	4134
557.284	3991
557.496	3862
557.709	3802
557.921	3754
558.134	3733
558.346	3777
558.559	3932
558.771	4138
558.984	4542
559.196	4921
559.409	4684
559.621	4288
559.833	4022
560.046	3734
560.258	3545
560.47	3378
560.683	3254
560.895	3095
561.107	3018
561.32	2920
561.532	2831
561.744	2780
561.956	2725
562.168	2763
562.381	2688
562.593	2643
562.805	2673
563.017	2708
563.229	2778
563.441	3168
563.653	2677
563.865	2453
564.077	2451
564.289	2375
564.501	2406
564.713	2367
564.925	2384
565.137	2347
565.349	2354
565.561	2361
565.773	2381
565.985	2390
566.197	2426
566.408	2486
566.62	2499
566.832	2601
567.044	2627
567.255	2594
567.467	2644
567.679	2677
567.891	2891
568.102	3130
568.314	3632
568.526	3127
568.737	2710
568.949	2494
569.161	2390
569.372	2246
569.584	2186
569.795	2158
570.007	2155
570.218	2171
570.43	2269
570.641	2109
570.853	2016
571.064	1930
571.276	1950
571.487	1926
571.698	1896
571.91	1827
572.121	1849
572.333	1886
572.544	1852
572.755	2014
572.966	2289
573.178	2120
573.389	1914
573.6	1808
573.811	1746
574.023	1753
574.234	1681
574.445	1689
574.656	1760
574.867	1705
575.078	1701
575.289	1721
575.501	1750
575.712	1672
575.923	1712
576.134	1734
576.345	1734
576.556	1741
576.767	1704
576.978	1692
577.188	1740
577.399	1761
577.61	1741
577.821	1767
578.032	1778
578.243	1796
578.454	1853
578.665	1893
578.875	1913
579.086	1950
579.297	2102
579.508	2256
579.718	2459
579.929	2802
580.14	3324
580.35	3411
580.561	3060
580.772	2789
580.982	2522
581.193	2368
581.403	2208
581.614	2133
581.825	2012
582.035	1957
582.246	1883
582.456	1829
582.667	1812
582.877	1802
583.087	1691
583.298	1686
583.508	1593
583.719	1627
583.929	1563
584.139	1528
584.35	1517
584.56	1469
584.77	1447
584.981	1430
585.191	1416
585.401	1408
585.611	1371
585.821	1348
586.032	1341
586.242	1371
586.452	1316
586.662	1319
586.872	1298
587.082	1289
587.292	1264
587.502	1304
587.713	1250
587.923	1257
588.133	1233
588.343	1231
588.553	1188
588.762	1212
588.972	1244
589.182	1261
589.392	1226
589.602	1244
589.812	1171
590.022	1193
590.232	1184
590.441	1193
590.651	1162
590.861	1174
591.071	1196
591.281	1177
591.49	1165
591.7	1185
591.91	1186
592.119	1146
592.329	1189
592.539	1185
592.748	1227
592.958	1218
593.167	1192
593.377	1249
593.587	1207
593.796	1200
594.006	1206
594.215	1205
594.424	1221
594.634	1184
594.843	1174
595.053	1164
595.262	1157
595.472	1116
595.681	1076
595.89	1073
596.1	1088
596.309	1062
596.518	1053
596.727	1037
596.937	1025
597.146	1044
597.355	1030
597.564	1024
597.774	983
597.983	989
598.192	968
598.401	998
598.61	988
598.819	970
599.028	982
599.237	962
599.446	956
599.655	948
599.864	981
600.073	902
600.282	960
600.491	968
600.7	949
600.909	946
601.118	953
601.327	950
601.536	954
601.745	966
601.953	1093
602.162	1219
602.371	1069
602.58	995
602.789	970
602.997	972
603.206	927
603.415	900
603.623	939
603.832	918
604.041	901
604.249	905
604.458	916
604.666	876
604.875	850
605.084	858
605.292	851
605.501	884
605.709	882
605.918	919
606.126	911
606.334	895
606.543	914
606.751	1007
606.96	1125
607.168	1272
607.376	1020
607.585	955
607.793	965
608.001	950
608.21	902
608.418	891
608.626	858
608.834	851
609.043	880
609.251	868
609.459	845
609.667	844
609.875	853
610.083	840
610.291	844
610.499	815
610.707	852
610.916	829
611.124	828
611.332	776
611.54	822
611.748	817
611.955	819
612.163	803
612.371	786
612.579	816
612.787	805
612.995	803
613.203	789
613.411	791
613.618	790
613.826	807
614.034	788
614.242	782
614.449	808
614.657	788
614.865	792
615.072	779
615.28	816
615.488	796
615.695	795
615.903	762
616.111	802
616.318	810
616.526	806
616.733	768
616.941	778
617.148	792
617.356	774
617.563	784
617.771	760
617.978	748
618.185	753
618.393	724
618.6	778
618.807	737
619.015	732
619.222	711
619.429	718
619.637	713
619.844	729
620.051	693
620.258	725
620.466	698
620.673	697
620.88	667
621.087	682
621.294	701
621.501	694
621.708	693
621.915	705
622.122	696
622.329	706
622.536	689
622.743	713
622.95	677
623.157	680
623.364	687
623.571	690
623.778	664
623.985	683
624.192	684
624.399	671
624.606	651
624.812	654
625.019	677
625.226	657
625.433	674
625.639	670
625.846	674
626.053	630
626.259	650
626.466	657
626.673	616
626.879	630
627.086	636
627.293	631
627.499	640
627.706	624
627.912	650
628.119	631
628.325	608
628.532	612
628.738	645
628.945	628
629.151	621
629.357	609
629.564	616
629.77	594
629.976	620
630.183	599
630.389	620
630.595	602
630.802	607
631.008	602
631.214	594
631.42	602
631.627	589
631.833	600
632.039	554
632.245	586
632.451	593
632.657	585
632.863	569
633.069	590
633.275	576
633.481	579
633.688	561
633.893	597
634.099	583
634.305	572
634.511	593
634.717	592
634.923	616
635.129	681
635.335	755
635.541	677
635.747	622
635.952	614
636.158	589
636.364	592
636.57	596
636.775	597
636.981	597
637.187	582
637.392	584
637.598	587
637.804	579
638.009	582
638.215	583
638.421	626
638.626	585
638.832	566
639.037	615
639.243	616
639.448	601
639.654	582
639.859	592
640.065	616
640.27	605
640.475	618
640.681	622
640.886	619
641.091	601
641.297	615
641.502	632
641.707	647
641.913	628
642.118	663
642.323	696
642.528	667
642.733	703
642.939	708
643.144	741
643.349	731
643.554	780
643.759	818
643.964	874
644.169	914
644.374	946
644.579	1050
644.784	1184
644.989	1286
645.194	1567
645.399	1917
645.604	2053
645.809	1484
646.014	1157
646.219	938
646.423	873
646.628	752
646.833	729
647.038	660
647.243	649
647.447	636
647.652	610
647.857	589
648.062	570
648.266	573
648.471	573
648.676	573
648.88	550
649.085	530
649.289	531
649.494	532
649.698	501
649.903	487
650.107	496
650.312	493
650.516	474
650.721	456
650.925	462
651.13	467
651.334	436
651.539	428
651.743	425
651.947	425
652.152	422
652.356	427
652.56	467
652.764	519
652.969	469
653.173	425
653.377	418
653.581	390
653.785	373
653.99	359
654.194	371
654.398	363
654.602	364
654.806	335
655.01	348
655.214	360
655.418	330
655.622	346
655.826	342
656.03	360
656.234	355
656.438	364
656.642	379
656.846	382
657.049	357
657.253	346
657.457	319
657.661	279
657.865	276
658.068	279
658.272	261
658.476	246
658.68	235
658.883	220
659.087	217
659.291	198
659.494	196
659.698	183
659.901	168
660.105	180
660.309	171
660.512	155
660.716	162
660.919	144
661.123	161
661.326	136
661.53	124
661.733	128
661.936	134
662.14	124
662.343	109
662.546	118
662.75	120
662.953	121
663.156	97
663.36	106
663.563	115
663.766	112
663.969	96
664.173	88
664.376	100
664.579	101
664.782	90
664.985	70
665.188	98
665.391	78
665.594	95
665.797	82
666	94
666.203	91
666.406	96
666.609	79
666.812	81
667.015	93
667.218	85
667.421	82
667.624	76
667.827	105
668.03	100
668.232	92
668.435	102
668.638	86
668.841	88
669.043	84
669.246	77
669.449	90
669.651	90
669.854	83
670.057	96
670.259	71
670.462	70
670.665	79
670.867	69
671.07	89
671.272	92
671.475	78
671.677	84
671.88	93
672.082	83
672.284	83
672.487	86
672.689	98
672.892	79
