Data from SnStandardFlinnAPT0064_QswitchEnergy10_LIBS07252019.E.O._I.C._HRD10591_15-26-01-972.txt Node
Date: Thu Jul 25 15:26:01 EDT 2019
User: cochatt
Spectrometer: HR+D1059
Trigger mode: 1
Integration Time (sec): 1.000000E-1
Scans to average: 1
Electric dark correction enabled: true
Nonlinearity correction enabled: false
Boxcar width: 0
XAxis mode: Wavelengths
Number of Pixels in Spectrum: 2048
>>>>>Begin Spectral Data<<<<<
223.165	-11
223.4	-11
223.635	-11
223.869	-28
224.104	-26
224.338	-7
224.573	-11
224.808	-14
225.042	-14
225.277	1
225.511	-1
225.746	5
225.98	-5
226.215	8
226.449	13
226.683	21
226.918	26
227.152	43
227.387	38
227.621	34
227.856	41
228.09	43
228.324	46
228.559	55
228.793	77
229.027	70
229.262	79
229.496	76
229.73	71
229.964	74
230.199	76
230.433	77
230.667	77
230.901	76
231.136	80
231.37	98
231.604	89
231.838	92
232.072	123
232.306	121
232.541	97
232.775	84
233.009	91
233.243	81
233.477	87
233.711	91
233.945	112
234.179	80
234.413	75
234.647	73
234.881	71
235.115	74
235.349	93
235.583	91
235.817	116
236.051	114
236.285	90
236.519	85
236.753	77
236.987	90
237.221	68
237.455	90
237.689	77
237.922	71
238.156	87
238.39	81
238.624	83
238.858	83
239.091	77
239.325	90
239.559	83
239.793	87
240.027	83
240.26	87
240.494	72
240.728	94
240.961	86
241.195	90
241.429	100
241.662	88
241.896	76
242.13	108
242.363	110
242.597	151
242.83	141
243.064	122
243.298	171
243.531	133
243.765	81
243.998	86
244.232	89
244.465	91
244.699	77
244.932	84
245.166	82
245.399	84
245.633	90
245.866	80
246.099	85
246.333	80
246.566	72
246.8	86
247.033	86
247.266	88
247.5	96
247.733	87
247.966	85
248.2	95
248.433	105
248.666	116
248.899	111
249.133	100
249.366	92
249.599	95
249.832	106
250.066	125
250.299	98
250.532	95
250.765	82
250.998	90
251.231	75
251.465	88
251.698	79
251.931	77
252.164	84
252.397	89
252.63	101
252.863	109
253.096	84
253.329	93
253.562	94
253.795	98
254.028	83
254.261	87
254.494	77
254.727	111
254.96	126
255.193	133
255.426	90
255.659	81
255.892	101
256.124	112
256.357	93
256.59	103
256.823	93
257.056	95
257.289	128
257.521	160
257.754	118
257.987	95
258.22	87
258.452	89
258.685	70
258.918	75
259.151	87
259.383	120
259.616	143
259.849	147
260.081	115
260.314	100
260.547	83
260.779	75
261.012	85
261.244	81
261.477	80
261.71	76
261.942	79
262.175	79
262.407	62
262.64	88
262.872	91
263.105	80
263.337	85
263.57	96
263.802	94
264.035	88
264.267	79
264.499	96
264.732	81
264.964	81
265.197	92
265.429	87
265.661	89
265.894	109
266.126	120
266.358	137
266.591	144
266.823	90
267.055	89
267.287	92
267.52	82
267.752	82
267.984	93
268.216	85
268.448	91
268.681	75
268.913	99
269.145	86
269.377	92
269.609	86
269.841	76
270.073	88
270.306	117
270.538	183
270.77	275
271.002	319
271.234	185
271.466	94
271.698	83
271.93	87
272.162	92
272.394	84
272.626	87
272.858	89
273.09	81
273.322	87
273.553	77
273.785	92
274.017	95
274.249	89
274.481	79
274.713	82
274.945	95
275.176	92
275.408	92
275.64	89
275.872	91
276.104	94
276.335	95
276.567	103
276.799	83
277.031	93
277.262	88
277.494	88
277.726	131
277.957	179
278.189	215
278.421	187
278.652	171
278.884	159
279.115	133
279.347	100
279.579	100
279.81	111
280.042	90
280.273	109
280.505	104
280.736	120
280.968	127
281.199	147
281.431	220
281.662	208
281.894	142
282.125	100
282.356	111
282.588	98
282.819	108
283.051	120
283.282	128
283.513	163
283.745	254
283.976	459
284.207	691
284.439	496
284.67	240
284.901	214
285.132	294
285.364	329
285.595	215
285.826	148
286.057	207
286.288	344
286.52	507
286.751	407
286.982	178
287.213	98
287.444	102
287.675	113
287.906	108
288.138	103
288.369	96
288.6	82
288.831	89
289.062	98
289.293	92
289.524	106
289.755	100
289.986	92
290.217	91
290.448	87
290.679	100
290.91	112
291.141	153
291.371	219
291.602	240
291.833	177
292.064	109
292.295	107
292.526	99
292.757	91
292.987	95
293.218	98
293.449	99
293.68	102
293.91	97
294.141	96
294.372	91
294.603	99
294.833	87
295.064	90
295.295	97
295.525	87
295.756	86
295.987	89
296.217	92
296.448	94
296.679	92
296.909	91
297.14	92
297.37	92
297.601	110
297.831	101
298.062	89
298.292	96
298.523	93
298.753	114
298.984	92
299.214	100
299.445	114
299.675	106
299.905	108
300.136	116
300.366	139
300.597	234
300.827	375
301.057	569
301.288	513
301.518	209
301.748	134
301.979	125
302.209	123
302.439	137
302.669	153
302.9	228
303.13	395
303.36	713
303.59	978
303.82	693
304.051	234
304.281	135
304.511	111
304.741	104
304.971	102
305.201	106
305.431	112
305.661	111
305.891	97
306.121	98
306.352	94
306.582	101
306.812	112
307.042	101
307.272	97
307.502	109
307.731	102
307.961	96
308.191	97
308.421	106
308.651	94
308.881	95
309.111	99
309.341	92
309.571	97
309.8	99
310.03	96
310.26	106
310.49	95
310.72	101
310.949	105
311.179	103
311.409	111
311.639	99
311.868	106
312.098	88
312.328	85
312.557	122
312.787	117
313.017	107
313.246	103
313.476	106
313.706	103
313.935	124
314.165	159
314.394	191
314.624	156
314.853	114
315.083	113
315.312	116
315.542	120
315.771	128
316.001	140
316.23	121
316.46	126
316.689	157
316.919	230
317.148	401
317.377	744
317.607	1206
317.836	1137
318.065	428
318.295	197
318.524	138
318.753	137
318.983	111
319.212	122
319.441	106
319.67	112
319.9	114
320.129	111
320.358	103
320.587	117
320.816	95
321.046	108
321.275	125
321.504	123
321.733	128
321.962	135
322.191	141
322.42	131
322.649	119
322.878	125
323.108	122
323.337	112
323.566	124
323.795	126
324.024	125
324.253	140
324.482	162
324.71	181
324.939	260
325.168	208
325.397	170
325.626	220
325.855	405
326.084	796
326.313	1307
326.542	1311
326.77	515
326.999	225
327.228	186
327.457	203
327.686	197
327.914	144
328.143	128
328.372	131
328.6	115
328.829	106
329.058	112
329.287	111
329.515	129
329.744	116
329.972	115
330.201	96
330.43	106
330.658	107
330.887	111
331.115	104
331.344	109
331.572	120
331.801	109
332.03	119
332.258	124
332.486	136
332.715	274
332.943	410
333.172	624
333.4	554
333.629	221
333.857	139
334.085	119
334.314	122
334.542	109
334.771	103
334.999	104
335.227	118
335.455	111
335.684	128
335.912	108
336.14	106
336.369	114
336.597	90
336.825	95
337.053	97
337.281	113
337.51	109
337.738	112
337.966	108
338.194	117
338.422	116
338.65	112
338.878	108
339.106	122
339.334	112
339.562	105
339.79	102
340.018	116
340.246	117
340.474	100
340.702	108
340.93	93
341.158	101
341.386	119
341.614	117
341.842	113
342.07	110
342.298	114
342.526	112
342.754	107
342.981	103
343.209	109
343.437	105
343.665	100
343.893	115
344.12	117
344.348	124
344.576	115
344.804	103
345.031	117
345.259	109
345.487	105
345.714	113
345.942	108
346.17	104
346.397	100
346.625	102
346.853	86
347.08	91
347.308	114
347.535	102
347.763	104
347.99	101
348.218	110
348.445	108
348.673	110
348.9	116
349.128	114
349.355	109
349.583	104
349.81	100
350.037	112
350.265	111
350.492	103
350.72	95
350.947	105
351.174	110
351.402	111
351.629	108
351.856	98
352.083	109
352.311	92
352.538	118
352.765	114
352.992	120
353.22	97
353.447	112
353.674	92
353.901	110
354.128	107
354.355	95
354.583	100
354.81	100
355.037	92
355.264	108
355.491	100
355.718	98
355.945	98
356.172	101
356.399	104
356.626	100
356.853	88
357.08	109
357.307	116
357.534	113
357.761	92
357.988	92
358.215	117
358.441	111
358.668	95
358.895	106
359.122	119
359.349	115
359.576	109
359.802	95
360.029	101
360.256	98
360.483	97
360.709	114
360.936	104
361.163	111
361.39	101
361.616	96
361.843	111
362.07	103
362.296	105
362.523	113
362.749	102
362.976	101
363.203	114
363.429	100
363.656	99
363.882	121
364.109	107
364.335	112
364.562	100
364.788	87
365.015	120
365.241	121
365.468	162
365.694	204
365.92	187
366.147	121
366.373	84
366.599	89
366.826	76
367.052	100
367.278	99
367.505	105
367.731	103
367.957	101
368.184	113
368.41	111
368.636	100
368.862	98
369.089	86
369.315	106
369.541	103
369.767	103
369.993	106
370.219	100
370.445	112
370.672	111
370.898	110
371.124	101
371.35	99
371.576	117
371.802	101
372.028	111
372.254	110
372.48	102
372.706	115
372.932	92
373.158	112
373.384	103
373.61	102
373.835	120
374.061	113
374.287	111
374.513	116
374.739	88
374.965	95
375.191	113
375.416	117
375.642	115
375.868	101
376.094	94
376.319	100
376.545	98
376.771	95
376.997	93
377.222	91
377.448	99
377.674	114
377.899	99
378.125	97
378.35	119
378.576	108
378.802	117
379.027	122
379.253	116
379.478	171
379.704	279
379.929	616
380.155	1250
380.38	1367
380.606	457
380.831	164
381.057	133
381.282	122
381.507	97
381.733	123
381.958	115
382.184	113
382.409	97
382.634	92
382.86	101
383.085	100
383.31	104
383.535	103
383.761	97
383.986	97
384.211	88
384.436	87
384.662	97
384.887	102
385.112	95
385.337	105
385.562	105
385.787	106
386.013	113
386.238	96
386.463	105
386.688	100
386.913	104
387.138	107
387.363	95
387.588	96
387.813	96
388.038	98
388.263	93
388.488	104
388.713	99
388.938	105
389.163	96
389.387	97
389.612	95
389.837	108
390.062	101
390.287	102
390.512	95
390.736	80
390.961	101
391.186	104
391.411	102
391.636	91
391.86	102
392.085	103
392.31	96
392.534	111
392.759	108
392.984	89
393.208	106
393.433	141
393.658	141
393.882	103
394.107	101
394.331	99
394.556	97
394.78	88
395.005	95
395.229	97
395.454	98
395.678	103
395.903	110
396.127	108
396.352	108
396.576	108
396.801	108
397.025	116
397.249	111
397.474	88
397.698	99
397.922	92
398.147	95
398.371	83
398.595	100
398.82	97
399.044	90
399.268	82
399.492	96
399.717	93
399.941	99
400.165	93
400.389	95
400.613	83
400.837	91
401.062	98
401.286	100
401.51	108
401.734	99
401.958	97
402.182	93
402.406	98
402.63	98
402.854	88
403.078	81
403.302	93
403.526	79
403.75	98
403.974	100
404.198	91
404.422	99
404.645	115
404.869	94
405.093	81
405.317	84
405.541	100
405.765	125
405.988	135
406.212	104
406.436	85
406.66	100
406.883	96
407.107	96
407.331	95
407.555	106
407.778	100
408.002	91
408.226	120
408.449	107
408.673	107
408.896	99
409.12	98
409.344	92
409.567	102
409.791	89
410.014	102
410.238	106
410.461	99
410.685	104
410.908	90
411.132	101
411.355	98
411.578	105
411.802	86
412.025	87
412.249	101
412.472	96
412.695	91
412.919	100
413.142	94
413.365	86
413.589	100
413.812	91
414.035	105
414.258	92
414.482	75
414.705	103
414.928	106
415.151	103
415.374	97
415.597	104
415.821	103
416.044	96
416.267	99
416.49	86
416.713	102
416.936	102
417.159	95
417.382	95
417.605	109
417.828	92
418.051	96
418.274	89
418.497	88
418.72	101
418.943	104
419.166	104
419.389	107
419.611	101
419.834	88
420.057	105
420.28	80
420.503	104
420.726	95
420.948	92
421.171	97
421.394	102
421.617	83
421.839	89
422.062	92
422.285	98
422.507	109
422.73	115
422.953	127
423.175	104
423.398	106
423.621	98
423.843	91
424.066	89
424.288	86
424.511	84
424.733	100
424.956	97
425.178	101
425.401	96
425.623	100
425.846	89
426.068	89
426.291	90
426.513	101
426.735	96
426.958	89
427.18	93
427.402	102
427.625	100
427.847	89
428.069	91
428.292	111
428.514	101
428.736	84
428.958	86
429.181	93
429.403	117
429.625	100
429.847	87
430.069	107
430.292	98
430.514	101
430.736	105
430.958	102
431.18	97
431.402	98
431.624	109
431.846	97
432.068	86
432.29	106
432.512	83
432.734	96
432.956	93
433.178	88
433.4	99
433.622	94
433.844	76
434.066	101
434.287	92
434.509	86
434.731	107
434.953	95
435.175	78
435.397	96
435.618	88
435.84	108
436.062	95
436.284	99
436.505	84
436.727	92
436.949	92
437.17	87
437.392	102
437.614	91
437.835	80
438.057	93
438.278	102
438.5	100
438.721	92
438.943	107
439.165	120
439.386	109
439.608	94
439.829	94
440.05	100
440.272	123
440.493	100
440.715	92
440.936	80
441.158	90
441.379	98
441.6	103
441.822	97
442.043	95
442.264	131
442.486	119
442.707	105
442.928	93
443.149	92
443.371	91
443.592	103
443.813	91
444.034	91
444.255	96
444.476	106
444.698	106
444.919	94
445.14	208
445.361	155
445.582	96
445.803	95
446.024	99
446.245	101
446.466	112
446.687	113
446.908	98
447.129	107
447.35	91
447.571	77
447.792	97
448.013	89
448.234	92
448.455	95
448.675	100
448.896	92
449.117	98
449.338	125
449.559	159
449.779	120
450	109
450.221	107
450.442	109
450.662	131
450.883	86
451.104	109
451.324	110
451.545	115
451.766	116
451.986	130
452.207	196
452.428	474
452.648	1117
452.869	616
453.089	173
453.31	109
453.53	108
453.751	130
453.971	141
454.192	155
454.412	101
454.633	104
454.853	98
455.073	70
455.294	96
455.514	95
455.734	92
455.955	89
456.175	96
456.395	80
456.616	90
456.836	103
457.056	96
457.276	92
457.497	121
457.717	119
457.937	95
458.157	100
458.377	88
458.598	86
458.818	93
459.038	95
459.258	84
459.478	90
459.698	88
459.918	85
460.138	81
460.358	88
460.578	98
460.798	89
461.018	79
461.238	90
461.458	91
461.678	85
461.898	82
462.118	84
462.338	85
462.558	88
462.777	98
462.997	100
463.217	105
463.437	134
463.657	165
463.876	164
464.096	105
464.316	113
464.536	85
464.755	88
464.975	86
465.195	80
465.414	88
465.634	94
465.854	73
466.073	90
466.293	90
466.512	99
466.732	97
466.951	105
467.171	123
467.391	124
467.61	110
467.829	100
468.049	114
468.268	96
468.488	86
468.707	99
468.927	103
469.146	94
469.365	97
469.585	94
469.804	85
470.023	83
470.243	96
470.462	114
470.681	105
470.901	122
471.12	161
471.339	183
471.558	132
471.777	105
471.997	89
472.216	112
472.435	97
472.654	97
472.873	96
473.092	102
473.311	89
473.53	102
473.749	87
473.968	90
474.187	100
474.406	92
474.625	86
474.844	108
475.063	86
475.282	102
475.501	95
475.72	107
475.939	101
476.158	101
476.377	100
476.596	100
476.814	97
477.033	92
477.252	90
477.471	98
477.69	103
477.908	96
478.127	101
478.346	91
478.564	95
478.783	106
479.002	93
479.22	81
479.439	85
479.658	101
479.876	83
480.095	96
480.313	96
480.532	89
480.751	98
480.969	88
481.188	89
481.406	90
481.624	91
481.843	115
482.061	89
482.28	97
482.498	108
482.717	87
482.935	93
483.153	91
483.372	85
483.59	99
483.808	102
484.027	95
484.245	112
484.463	152
484.681	231
484.9	142
485.118	102
485.336	115
485.554	100
485.772	116
485.99	161
486.209	226
486.427	140
486.645	119
486.863	107
487.081	103
487.299	104
487.517	89
487.735	104
487.953	99
488.171	101
488.389	86
488.607	100
488.825	88
489.043	99
489.261	89
489.479	91
489.696	92
489.914	99
490.132	103
490.35	119
490.568	111
490.786	97
491.003	103
491.221	89
491.439	117
491.657	92
491.874	100
492.092	104
492.31	116
492.527	99
492.745	106
492.963	97
493.18	99
493.398	92
493.615	105
493.833	102
494.05	102
494.268	98
494.485	78
494.703	106
494.92	102
495.138	114
495.355	103
495.573	118
495.79	89
496.008	104
496.225	105
496.442	102
496.66	117
496.877	150
497.094	141
497.312	105
497.529	88
497.746	100
497.963	94
498.181	99
498.398	98
498.615	102
498.832	105
499.049	86
499.267	116
499.484	168
499.701	99
499.918	90
500.135	86
500.352	94
500.569	98
500.786	104
501.003	101
501.22	95
501.437	93
501.654	103
501.871	93
502.088	87
502.305	102
502.522	95
502.739	107
502.956	92
503.172	99
503.389	97
503.606	110
503.823	107
504.04	77
504.256	106
504.473	87
504.69	96
504.907	99
505.123	112
505.34	111
505.557	94
505.773	98
505.99	98
506.207	94
506.423	97
506.64	105
506.856	87
507.073	103
507.289	97
507.506	93
507.722	115
507.939	91
508.155	103
508.372	86
508.588	92
508.805	104
509.021	106
509.238	88
509.454	137
509.67	149
509.887	111
510.103	104
510.319	120
510.536	103
510.752	96
510.968	95
511.184	94
511.401	90
511.617	106
511.833	106
512.049	85
512.265	85
512.481	96
512.698	75
512.914	87
513.13	99
513.346	99
513.562	106
513.778	101
513.994	93
514.21	109
514.426	136
514.642	156
514.858	126
515.074	104
515.29	105
515.506	91
515.721	112
515.937	113
516.153	103
516.369	83
516.585	85
516.801	101
517.016	95
517.232	84
517.448	95
517.664	112
517.879	92
518.095	95
518.311	100
518.527	97
518.742	113
518.958	99
519.173	144
519.389	113
519.605	97
519.82	92
520.036	104
520.251	107
520.467	95
520.682	101
520.898	106
521.113	97
521.329	99
521.544	73
521.76	89
521.975	117
522.19	104
522.406	102
522.621	85
522.836	88
523.052	101
523.267	92
523.482	95
523.698	87
523.913	94
524.128	91
524.343	94
524.559	103
524.774	82
524.989	111
525.204	98
525.419	101
525.634	99
525.849	104
526.064	104
526.28	118
526.495	98
526.71	87
526.925	81
527.14	97
527.355	106
527.57	103
527.785	87
527.999	97
528.214	107
528.429	97
528.644	98
528.859	100
529.074	99
529.289	87
529.503	97
529.718	100
529.933	91
530.148	102
530.363	85
530.577	88
530.792	104
531.007	85
531.221	96
531.436	88
531.651	98
531.865	106
532.08	98
532.295	108
532.509	124
532.724	100
532.938	105
533.153	100
533.367	101
533.582	97
533.796	87
534.011	94
534.225	94
534.44	102
534.654	99
534.868	75
535.083	95
535.297	100
535.511	95
535.726	100
535.94	90
536.154	103
536.369	79
536.583	92
536.797	96
537.011	92
537.225	102
537.44	96
537.654	103
537.868	97
538.082	100
538.296	104
538.51	93
538.724	106
538.938	100
539.153	108
539.367	97
539.581	99
539.795	98
540.009	86
540.222	100
540.436	90
540.65	100
540.864	95
541.078	104
541.292	113
541.506	185
541.72	176
541.934	123
542.147	113
542.361	108
542.575	102
542.789	101
543.002	105
543.216	98
543.43	96
543.644	97
543.857	104
544.071	101
544.285	114
544.498	77
544.712	105
544.925	95
545.139	100
545.352	116
545.566	103
545.779	107
545.993	105
546.206	94
546.42	90
546.633	91
546.847	99
547.06	103
547.274	104
547.487	95
547.7	107
547.914	106
548.127	82
548.34	109
548.554	119
548.767	95
548.98	115
549.193	116
549.407	106
549.62	115
549.833	99
550.046	109
550.259	103
550.473	100
550.686	109
550.899	96
551.112	107
551.325	101
551.538	97
551.751	101
551.964	92
552.177	96
552.39	93
552.603	102
552.816	93
553.029	96
553.242	92
553.455	104
553.667	97
553.88	103
554.093	98
554.306	119
554.519	110
554.732	106
554.944	114
555.157	95
555.37	97
555.583	91
555.795	108
556.008	99
556.221	135
556.433	121
556.646	100
556.859	103
557.071	116
557.284	122
557.496	109
557.709	108
557.921	106
558.134	114
558.346	99
558.559	106
558.771	96
558.984	108
559.196	107
559.409	107
559.621	88
559.833	98
560.046	96
560.258	108
560.47	98
560.683	98
560.895	100
561.107	96
561.32	99
561.532	106
561.744	106
561.956	112
562.168	99
562.381	108
562.593	96
562.805	128
563.017	157
563.229	223
563.441	451
563.653	168
563.865	107
564.077	84
564.289	117
564.501	109
564.713	103
564.925	98
565.137	112
565.349	91
565.561	93
565.773	99
565.985	100
566.197	97
566.408	102
566.62	98
566.832	104
567.044	105
567.255	102
567.467	103
567.679	99
567.891	117
568.102	140
568.314	217
568.526	132
568.737	109
568.949	92
569.161	96
569.372	99
569.584	107
569.795	110
570.007	119
570.218	135
570.43	155
570.641	113
570.853	92
571.064	94
571.276	82
571.487	85
571.698	88
571.91	84
572.121	88
572.333	101
572.544	90
572.755	122
572.966	187
573.178	129
573.389	104
573.6	101
573.811	77
574.023	87
574.234	85
574.445	98
574.656	93
574.867	87
575.078	81
575.289	98
575.501	102
575.712	100
575.923	83
576.134	88
576.345	83
576.556	97
576.767	102
576.978	88
577.188	89
577.399	109
577.61	98
577.821	101
578.032	100
578.243	92
578.454	94
578.665	85
578.875	98
579.086	84
579.297	90
579.508	96
579.718	80
579.929	102
580.14	99
580.35	81
580.561	91
580.772	90
580.982	98
581.193	82
581.403	97
581.614	81
581.825	95
582.035	91
582.246	87
582.456	92
582.667	94
582.877	116
583.087	123
583.298	111
583.508	88
583.719	85
583.929	112
584.139	87
584.35	90
584.56	90
584.77	92
584.981	101
585.191	74
585.401	81
585.611	95
585.821	75
586.032	95
586.242	103
586.452	77
586.662	95
586.872	88
587.082	97
587.292	83
587.502	88
587.713	89
587.923	92
588.133	82
588.343	75
588.553	88
588.762	71
588.972	82
589.182	120
589.392	90
589.602	97
589.812	105
590.022	108
590.232	86
590.441	83
590.651	94
590.861	94
591.071	102
591.281	97
591.49	79
591.7	83
591.91	98
592.119	88
592.329	83
592.539	104
592.748	85
592.958	93
593.167	84
593.377	96
593.587	84
593.796	102
594.006	101
594.215	92
594.424	82
594.634	100
594.843	81
595.053	88
595.262	84
595.472	97
595.681	90
595.89	94
596.1	101
596.309	92
596.518	97
596.727	88
596.937	77
597.146	89
597.355	89
597.564	87
597.774	96
597.983	84
598.192	86
598.401	101
598.61	101
598.819	98
599.028	97
599.237	89
599.446	97
599.655	98
599.864	96
600.073	86
600.282	91
600.491	90
600.7	82
600.909	97
601.118	100
601.327	94
601.536	79
601.745	104
601.953	120
602.162	164
602.371	103
602.58	105
602.789	112
602.997	101
603.206	86
603.415	91
603.623	102
603.832	108
604.041	96
604.249	87
604.458	83
604.666	82
604.875	81
605.084	81
605.292	103
605.501	88
605.709	94
605.918	99
606.126	103
606.334	104
606.543	108
606.751	123
606.96	159
607.168	171
607.376	108
607.585	108
607.793	93
608.001	101
608.21	74
608.418	111
608.626	102
608.834	100
609.043	92
609.251	97
609.459	97
609.667	97
609.875	102
610.083	81
610.291	109
610.499	97
610.707	88
610.916	95
611.124	92
611.332	105
611.54	96
611.748	83
611.955	91
612.163	108
612.371	89
612.579	88
612.787	89
612.995	96
613.203	90
613.411	97
613.618	95
613.826	77
614.034	101
614.242	96
614.449	96
614.657	92
614.865	97
615.072	100
615.28	108
615.488	91
615.695	104
615.903	101
616.111	98
616.318	105
616.526	91
616.733	87
616.941	93
617.148	100
617.356	93
617.563	81
617.771	83
617.978	92
618.185	92
618.393	88
618.6	92
618.807	96
619.015	106
619.222	86
619.429	90
619.637	100
619.844	107
620.051	95
620.258	106
620.466	101
620.673	89
620.88	99
621.087	83
621.294	85
621.501	92
621.708	84
621.915	75
622.122	92
622.329	102
622.536	79
622.743	88
622.95	99
623.157	87
623.364	94
623.571	82
623.778	81
623.985	104
624.192	98
624.399	102
624.606	93
624.812	75
625.019	104
625.226	94
625.433	76
625.639	84
625.846	73
626.053	85
626.259	87
626.466	84
626.673	97
626.879	89
627.086	94
627.293	89
627.499	101
627.706	92
627.912	82
628.119	91
628.325	90
628.532	94
628.738	96
628.945	87
629.151	87
629.357	98
629.564	87
629.77	95
629.976	83
630.183	92
630.389	91
630.595	85
630.802	80
631.008	93
631.214	100
631.42	84
631.627	88
631.833	89
632.039	86
632.245	84
632.451	93
632.657	83
632.863	99
633.069	97
633.275	80
633.481	79
633.688	99
633.893	90
634.099	85
634.305	98
634.511	102
634.717	101
634.923	87
635.129	123
635.335	115
635.541	102
635.747	91
635.952	85
636.158	89
636.364	96
636.57	94
636.775	90
636.981	92
637.187	93
637.392	90
637.598	84
637.804	93
638.009	83
638.215	89
638.421	83
638.626	87
638.832	89
639.037	86
639.243	84
639.448	80
639.654	87
639.859	98
640.065	93
640.27	92
640.475	92
640.681	84
640.886	92
641.091	96
641.297	91
641.502	91
641.707	85
641.913	85
642.118	74
642.323	83
642.528	97
642.733	76
642.939	100
643.144	92
643.349	92
643.554	80
643.759	77
643.964	89
644.169	80
644.374	83
644.579	83
644.784	96
644.989	79
645.194	82
645.399	91
645.604	104
645.809	88
646.014	85
646.219	93
646.423	96
646.628	98
646.833	75
647.038	78
647.243	87
647.447	93
647.652	80
647.857	80
648.062	79
648.266	85
648.471	89
648.676	84
648.88	85
649.085	85
649.289	96
649.494	82
649.698	90
649.903	91
650.107	75
650.312	98
650.516	81
650.721	84
650.925	97
651.13	81
651.334	92
651.539	96
651.743	81
651.947	77
652.152	80
652.356	72
652.56	92
652.764	129
652.969	83
653.173	100
653.377	99
653.581	80
653.785	96
653.99	77
654.194	83
654.398	81
654.602	77
654.806	81
655.01	73
655.214	91
655.418	76
655.622	81
655.826	88
656.03	88
656.234	93
656.438	76
656.642	71
656.846	81
657.049	86
657.253	76
657.457	71
657.661	87
657.865	71
658.068	79
658.272	97
658.476	85
658.68	83
658.883	89
659.087	77
659.291	81
659.494	71
659.698	83
659.901	105
660.105	91
660.309	72
660.512	70
660.716	80
660.919	79
661.123	83
661.326	63
661.53	83
661.733	95
661.936	84
662.14	77
662.343	87
662.546	96
662.75	81
662.953	102
663.156	82
663.36	88
663.563	90
663.766	73
663.969	86
664.173	85
664.376	85
664.579	83
664.782	81
664.985	84
665.188	79
665.391	87
665.594	77
665.797	85
666	84
666.203	77
666.406	76
666.609	72
666.812	92
667.015	81
667.218	86
667.421	81
667.624	82
667.827	78
668.03	91
668.232	78
668.435	86
668.638	77
668.841	72
669.043	64
669.246	85
669.449	85
669.651	78
669.854	78
670.057	86
670.259	93
670.462	91
670.665	94
670.867	96
671.07	76
671.272	83
671.475	83
671.677	77
671.88	80
672.082	84
672.284	89
672.487	83
672.689	68
672.892	89
