Data from SnStandardFlinnAPT0064_QswitchEnergy10_LIBS07252019.E.O._I.C._HRD10591_15-25-55-972.txt Node
Date: Thu Jul 25 15:25:55 EDT 2019
User: cochatt
Spectrometer: HR+D1059
Trigger mode: 1
Integration Time (sec): 1.000000E-1
Scans to average: 1
Electric dark correction enabled: true
Nonlinearity correction enabled: false
Boxcar width: 0
XAxis mode: Wavelengths
Number of Pixels in Spectrum: 2048
>>>>>Begin Spectral Data<<<<<
223.165	-27
223.4	-27
223.635	-27
223.869	-22
224.104	-9
224.338	-18
224.573	-9
224.808	-26
225.042	0
225.277	-6
225.511	8
225.746	7
225.98	7
226.215	20
226.449	10
226.683	7
226.918	25
227.152	33
227.387	39
227.621	40
227.856	48
228.09	23
228.324	62
228.559	41
228.793	63
229.027	60
229.262	84
229.496	62
229.73	69
229.964	75
230.199	63
230.433	80
230.667	71
230.901	84
231.136	87
231.37	70
231.604	90
231.838	107
232.072	111
232.306	128
232.541	78
232.775	64
233.009	82
233.243	68
233.477	88
233.711	97
233.945	94
234.179	83
234.413	78
234.647	75
234.881	83
235.115	80
235.349	93
235.583	89
235.817	114
236.051	118
236.285	90
236.519	86
236.753	84
236.987	73
237.221	96
237.455	86
237.689	74
237.922	72
238.156	79
238.39	88
238.624	83
238.858	79
239.091	67
239.325	91
239.559	67
239.793	74
240.027	73
240.26	85
240.494	84
240.728	83
240.961	84
241.195	88
241.429	85
241.662	76
241.896	84
242.13	111
242.363	112
242.597	135
242.83	130
243.064	116
243.298	154
243.531	155
243.765	104
243.998	76
244.232	80
244.465	79
244.699	76
244.932	87
245.166	91
245.399	71
245.633	90
245.866	83
246.099	79
246.333	67
246.566	84
246.8	79
247.033	84
247.266	73
247.5	77
247.733	86
247.966	97
248.2	90
248.433	110
248.666	118
248.899	121
249.133	75
249.366	78
249.599	85
249.832	107
250.066	128
250.299	94
250.532	84
250.765	86
250.998	69
251.231	88
251.465	90
251.698	76
251.931	80
252.164	85
252.397	87
252.63	104
252.863	105
253.096	100
253.329	89
253.562	89
253.795	90
254.028	90
254.261	90
254.494	94
254.727	109
254.96	128
255.193	117
255.426	87
255.659	75
255.892	88
256.124	95
256.357	82
256.59	83
256.823	98
257.056	107
257.289	138
257.521	143
257.754	119
257.987	94
258.22	89
258.452	81
258.685	84
258.918	86
259.151	105
259.383	96
259.616	122
259.849	146
260.081	101
260.314	94
260.547	77
260.779	98
261.012	90
261.244	94
261.477	83
261.71	82
261.942	89
262.175	106
262.407	80
262.64	83
262.872	80
263.105	91
263.337	71
263.57	69
263.802	86
264.035	86
264.267	70
264.499	79
264.732	89
264.964	80
265.197	92
265.429	89
265.661	88
265.894	83
266.126	112
266.358	142
266.591	123
266.823	93
267.055	86
267.287	95
267.52	86
267.752	78
267.984	91
268.216	99
268.448	87
268.681	99
268.913	99
269.145	90
269.377	82
269.609	90
269.841	92
270.073	98
270.306	111
270.538	181
270.77	287
271.002	341
271.234	182
271.466	121
271.698	92
271.93	98
272.162	76
272.394	99
272.626	86
272.858	86
273.09	82
273.322	98
273.553	92
273.785	84
274.017	82
274.249	74
274.481	82
274.713	93
274.945	87
275.176	97
275.408	107
275.64	95
275.872	104
276.104	103
276.335	85
276.567	96
276.799	102
277.031	80
277.262	89
277.494	98
277.726	116
277.957	159
278.189	234
278.421	230
278.652	194
278.884	168
279.115	127
279.347	108
279.579	110
279.81	78
280.042	97
280.273	102
280.505	90
280.736	101
280.968	117
281.199	154
281.431	226
281.662	247
281.894	154
282.125	123
282.356	116
282.588	105
282.819	115
283.051	112
283.282	131
283.513	172
283.745	265
283.976	489
284.207	706
284.439	539
284.67	238
284.901	231
285.132	321
285.364	341
285.595	210
285.826	148
286.057	213
286.288	386
286.52	532
286.751	427
286.982	182
287.213	112
287.444	104
287.675	97
287.906	91
288.138	92
288.369	77
288.6	88
288.831	92
289.062	91
289.293	88
289.524	98
289.755	95
289.986	89
290.217	84
290.448	84
290.679	101
290.91	119
291.141	159
291.371	229
291.602	274
291.833	187
292.064	111
292.295	89
292.526	88
292.757	89
292.987	99
293.218	93
293.449	102
293.68	99
293.91	96
294.141	96
294.372	83
294.603	88
294.833	94
295.064	90
295.295	87
295.525	99
295.756	87
295.987	82
296.217	98
296.448	112
296.679	98
296.909	94
297.14	100
297.37	86
297.601	83
297.831	82
298.062	107
298.292	111
298.523	99
298.753	87
298.984	97
299.214	113
299.445	103
299.675	109
299.905	111
300.136	123
300.366	158
300.597	256
300.827	402
301.057	604
301.288	564
301.518	223
301.748	158
301.979	134
302.209	129
302.439	128
302.669	148
302.9	233
303.13	442
303.36	786
303.59	1078
303.82	752
304.051	266
304.281	138
304.511	127
304.741	112
304.971	96
305.201	103
305.431	106
305.661	90
305.891	111
306.121	101
306.352	103
306.582	101
306.812	115
307.042	90
307.272	102
307.502	104
307.731	117
307.961	96
308.191	114
308.421	104
308.651	107
308.881	114
309.111	94
309.341	103
309.571	116
309.8	100
310.03	122
310.26	102
310.49	94
310.72	98
310.949	100
311.179	118
311.409	107
311.639	95
311.868	107
312.098	107
312.328	111
312.557	110
312.787	109
313.017	118
313.246	117
313.476	99
313.706	113
313.935	148
314.165	170
314.394	210
314.624	188
314.853	124
315.083	115
315.312	102
315.542	121
315.771	123
316.001	126
316.23	137
316.46	132
316.689	149
316.919	225
317.148	446
317.377	807
317.607	1299
317.836	1219
318.065	468
318.295	196
318.524	144
318.753	117
318.983	136
319.212	129
319.441	107
319.67	118
319.9	110
320.129	107
320.358	113
320.587	113
320.816	100
321.046	120
321.275	133
321.504	118
321.733	130
321.962	146
322.191	157
322.42	126
322.649	118
322.878	127
323.108	97
323.337	113
323.566	121
323.795	130
324.024	139
324.253	138
324.482	149
324.71	221
324.939	268
325.168	224
325.397	164
325.626	213
325.855	424
326.084	799
326.313	1400
326.542	1374
326.77	572
326.999	216
327.228	208
327.457	215
327.686	218
327.914	162
328.143	135
328.372	114
328.6	126
328.829	124
329.058	122
329.287	122
329.515	129
329.744	102
329.972	115
330.201	124
330.43	101
330.658	110
330.887	110
331.115	114
331.344	120
331.572	111
331.801	123
332.03	123
332.258	143
332.486	168
332.715	261
332.943	425
333.172	705
333.4	578
333.629	239
333.857	137
334.085	121
334.314	122
334.542	108
334.771	113
334.999	121
335.227	118
335.455	111
335.684	118
335.912	116
336.14	113
336.369	123
336.597	115
336.825	109
337.053	116
337.281	116
337.51	79
337.738	110
337.966	103
338.194	102
338.422	94
338.65	118
338.878	115
339.106	113
339.334	110
339.562	116
339.79	112
340.018	120
340.246	106
340.474	104
340.702	117
340.93	102
341.158	96
341.386	110
341.614	107
341.842	110
342.07	113
342.298	106
342.526	119
342.754	110
342.981	105
343.209	119
343.437	112
343.665	102
343.893	105
344.12	94
344.348	96
344.576	105
344.804	112
345.031	107
345.259	112
345.487	107
345.714	100
345.942	118
346.17	127
346.397	116
346.625	108
346.853	106
347.08	107
347.308	95
347.535	110
347.763	101
347.99	94
348.218	108
348.445	99
348.673	111
348.9	112
349.128	118
349.355	112
349.583	116
349.81	117
350.037	107
350.265	105
350.492	128
350.72	108
350.947	107
351.174	91
351.402	97
351.629	110
351.856	96
352.083	106
352.311	97
352.538	112
352.765	107
352.992	106
353.22	114
353.447	110
353.674	98
353.901	118
354.128	90
354.355	107
354.583	106
354.81	90
355.037	104
355.264	103
355.491	116
355.718	108
355.945	105
356.172	96
356.399	122
356.626	106
356.853	106
357.08	106
357.307	105
357.534	106
357.761	113
357.988	102
358.215	110
358.441	114
358.668	114
358.895	119
359.122	116
359.349	107
359.576	117
359.802	130
360.029	106
360.256	120
360.483	97
360.709	101
360.936	124
361.163	113
361.39	118
361.616	100
361.843	107
362.07	97
362.296	104
362.523	110
362.749	101
362.976	108
363.203	106
363.429	105
363.656	93
363.882	96
364.109	105
364.335	102
364.562	98
364.788	101
365.015	104
365.241	136
365.468	190
365.694	233
365.92	198
366.147	126
366.373	105
366.599	98
366.826	96
367.052	107
367.278	91
367.505	102
367.731	99
367.957	99
368.184	104
368.41	114
368.636	112
368.862	105
369.089	85
369.315	97
369.541	108
369.767	106
369.993	115
370.219	105
370.445	101
370.672	114
370.898	105
371.124	113
371.35	101
371.576	110
371.802	90
372.028	101
372.254	105
372.48	105
372.706	110
372.932	118
373.158	105
373.384	120
373.61	136
373.835	123
374.061	107
374.287	116
374.513	110
374.739	104
374.965	98
375.191	111
375.416	117
375.642	111
375.868	91
376.094	110
376.319	103
376.545	100
376.771	107
376.997	105
377.222	92
377.448	104
377.674	97
377.899	86
378.125	113
378.35	103
378.576	100
378.802	119
379.027	114
379.253	127
379.478	159
379.704	279
379.929	678
380.155	1375
380.38	1406
380.606	487
380.831	170
381.057	141
381.282	106
381.507	105
381.733	107
381.958	117
382.184	80
382.409	102
382.634	115
382.86	90
383.085	107
383.31	100
383.535	99
383.761	101
383.986	121
384.211	113
384.436	94
384.662	99
384.887	83
385.112	104
385.337	98
385.562	93
385.787	102
386.013	112
386.238	111
386.463	106
386.688	95
386.913	96
387.138	103
387.363	101
387.588	104
387.813	114
388.038	95
388.263	104
388.488	86
388.713	110
388.938	99
389.163	96
389.387	91
389.612	99
389.837	97
390.062	91
390.287	104
390.512	105
390.736	99
390.961	98
391.186	99
391.411	96
391.636	97
391.86	102
392.085	113
392.31	95
392.534	96
392.759	102
392.984	115
393.208	106
393.433	131
393.658	122
393.882	101
394.107	85
394.331	111
394.556	98
394.78	84
395.005	100
395.229	98
395.454	100
395.678	103
395.903	106
396.127	103
396.352	87
396.576	98
396.801	111
397.025	108
397.249	106
397.474	101
397.698	103
397.922	99
398.147	88
398.371	111
398.595	87
398.82	98
399.044	101
399.268	104
399.492	86
399.717	101
399.941	80
400.165	78
400.389	99
400.613	115
400.837	91
401.062	103
401.286	103
401.51	99
401.734	92
401.958	107
402.182	105
402.406	95
402.63	92
402.854	92
403.078	88
403.302	92
403.526	100
403.75	97
403.974	90
404.198	95
404.422	88
404.645	105
404.869	102
405.093	107
405.317	95
405.541	97
405.765	120
405.988	126
406.212	112
406.436	91
406.66	95
406.883	96
407.107	86
407.331	103
407.555	98
407.778	90
408.002	102
408.226	99
408.449	89
408.673	90
408.896	106
409.12	105
409.344	108
409.567	92
409.791	99
410.014	97
410.238	98
410.461	101
410.685	102
410.908	107
411.132	90
411.355	112
411.578	100
411.802	92
412.025	119
412.249	99
412.472	103
412.695	102
412.919	115
413.142	99
413.365	84
413.589	98
413.812	91
414.035	118
414.258	95
414.482	94
414.705	104
414.928	112
415.151	96
415.374	94
415.597	102
415.821	86
416.044	100
416.267	93
416.49	104
416.713	84
416.936	94
417.159	102
417.382	90
417.605	96
417.828	74
418.051	104
418.274	94
418.497	106
418.72	105
418.943	103
419.166	111
419.389	113
419.611	114
419.834	100
420.057	96
420.28	96
420.503	122
420.726	98
420.948	96
421.171	92
421.394	90
421.617	103
421.839	105
422.062	99
422.285	95
422.507	106
422.73	121
422.953	130
423.175	108
423.398	101
423.621	89
423.843	75
424.066	94
424.288	92
424.511	87
424.733	101
424.956	110
425.178	94
425.401	90
425.623	104
425.846	92
426.068	105
426.291	90
426.513	112
426.735	97
426.958	95
427.18	87
427.402	96
427.625	99
427.847	94
428.069	109
428.292	90
428.514	86
428.736	96
428.958	103
429.181	99
429.403	94
429.625	100
429.847	88
430.069	110
430.292	114
430.514	106
430.736	100
430.958	91
431.18	100
431.402	110
431.624	101
431.846	87
432.068	90
432.29	100
432.512	98
432.734	89
432.956	102
433.178	98
433.4	85
433.622	95
433.844	105
434.066	86
434.287	97
434.509	96
434.731	103
434.953	86
435.175	79
435.397	81
435.618	76
435.84	97
436.062	84
436.284	80
436.505	87
436.727	79
436.949	96
437.17	92
437.392	97
437.614	100
437.835	89
438.057	86
438.278	88
438.5	95
438.721	87
438.943	115
439.165	95
439.386	99
439.608	96
439.829	96
440.05	92
440.272	103
440.493	104
440.715	102
440.936	99
441.158	95
441.379	92
441.6	91
441.822	87
442.043	105
442.264	116
442.486	119
442.707	98
442.928	102
443.149	99
443.371	93
443.592	99
443.813	91
444.034	84
444.255	108
444.476	91
444.698	91
444.919	99
445.14	224
445.361	162
445.582	100
445.803	92
446.024	124
446.245	100
446.466	114
446.687	101
446.908	92
447.129	91
447.35	86
447.571	90
447.792	106
448.013	100
448.234	97
448.455	94
448.675	100
448.896	98
449.117	106
449.338	129
449.559	134
449.779	117
450	79
450.221	104
450.442	105
450.662	101
450.883	89
451.104	81
451.324	104
451.545	106
451.766	113
451.986	152
452.207	216
452.428	481
452.648	1238
452.869	688
453.089	190
453.31	123
453.53	130
453.751	119
453.971	161
454.192	139
454.412	108
454.633	117
454.853	99
455.073	90
455.294	87
455.514	100
455.734	83
455.955	105
456.175	83
456.395	90
456.616	87
456.836	96
457.056	101
457.276	101
457.497	104
457.717	101
457.937	88
458.157	91
458.377	110
458.598	82
458.818	83
459.038	93
459.258	82
459.478	89
459.698	81
459.918	104
460.138	66
460.358	97
460.578	85
460.798	89
461.018	97
461.238	80
461.458	92
461.678	90
461.898	87
462.118	104
462.338	98
462.558	105
462.777	93
462.997	98
463.217	102
463.437	135
463.657	159
463.876	162
464.096	125
464.316	120
464.536	89
464.755	87
464.975	91
465.195	89
465.414	96
465.634	98
465.854	101
466.073	89
466.293	88
466.512	98
466.732	89
466.951	123
467.171	127
467.391	133
467.61	111
467.829	111
468.049	96
468.268	84
468.488	91
468.707	80
468.927	103
469.146	111
469.365	95
469.585	102
469.804	96
470.023	89
470.243	101
470.462	104
470.681	117
470.901	122
471.12	175
471.339	195
471.558	134
471.777	96
471.997	99
472.216	90
472.435	97
472.654	97
472.873	91
473.092	95
473.311	102
473.53	95
473.749	99
473.968	96
474.187	98
474.406	96
474.625	88
474.844	102
475.063	90
475.282	84
475.501	95
475.72	79
475.939	108
476.158	115
476.377	112
476.596	113
476.814	96
477.033	82
477.252	106
477.471	98
477.69	95
477.908	90
478.127	85
478.346	88
478.564	91
478.783	86
479.002	86
479.22	98
479.439	84
479.658	86
479.876	92
480.095	98
480.313	98
480.532	103
480.751	100
480.969	100
481.188	91
481.406	87
481.624	111
481.843	103
482.061	108
482.28	106
482.498	92
482.717	96
482.935	91
483.153	101
483.372	107
483.59	108
483.808	108
484.027	100
484.245	120
484.463	172
484.681	213
484.9	136
485.118	117
485.336	103
485.554	105
485.772	100
485.99	157
486.209	231
486.427	156
486.645	114
486.863	114
487.081	86
487.299	98
487.517	97
487.735	95
487.953	93
488.171	105
488.389	89
488.607	88
488.825	98
489.043	103
489.261	86
489.479	83
489.696	103
489.914	94
490.132	95
490.35	109
490.568	115
490.786	102
491.003	116
491.221	104
491.439	111
491.657	100
491.874	104
492.092	117
492.31	122
492.527	128
492.745	120
492.963	95
493.18	99
493.398	101
493.615	125
493.833	97
494.05	105
494.268	110
494.485	103
494.703	114
494.92	108
495.138	99
495.355	100
495.573	121
495.79	97
496.008	97
496.225	107
496.442	107
496.66	127
496.877	150
497.094	143
497.312	102
497.529	106
497.746	86
497.963	94
498.181	98
498.398	108
498.615	102
498.832	101
499.049	100
499.267	126
499.484	154
499.701	118
499.918	96
500.135	100
500.352	103
500.569	88
500.786	89
501.003	91
501.22	87
501.437	95
501.654	89
501.871	89
502.088	98
502.305	92
502.522	84
502.739	101
502.956	94
503.172	91
503.389	105
503.606	90
503.823	100
504.04	97
504.256	110
504.473	94
504.69	110
504.907	110
505.123	123
505.34	90
505.557	99
505.773	106
505.99	96
506.207	123
506.423	105
506.64	99
506.856	93
507.073	102
507.289	93
507.506	98
507.722	96
507.939	111
508.155	98
508.372	98
508.588	93
508.805	96
509.021	89
509.238	102
509.454	134
509.67	151
509.887	105
510.103	90
510.319	91
510.536	106
510.752	103
510.968	91
511.184	95
511.401	81
511.617	89
511.833	91
512.049	92
512.265	89
512.481	86
512.698	94
512.914	96
513.13	100
513.346	94
513.562	104
513.778	96
513.994	100
514.21	95
514.426	143
514.642	167
514.858	118
515.074	96
515.29	105
515.506	107
515.721	103
515.937	84
516.153	104
516.369	110
516.585	82
516.801	87
517.016	95
517.232	91
517.448	95
517.664	114
517.879	101
518.095	100
518.311	100
518.527	94
518.742	99
518.958	114
519.173	134
519.389	105
519.605	103
519.82	106
520.036	98
520.251	89
520.467	91
520.682	97
520.898	100
521.113	95
521.329	86
521.544	89
521.76	97
521.975	100
522.19	117
522.406	94
522.621	86
522.836	92
523.052	102
523.267	102
523.482	96
523.698	95
523.913	100
524.128	90
524.343	95
524.559	105
524.774	103
524.989	92
525.204	80
525.419	96
525.634	84
525.849	82
526.064	89
526.28	95
526.495	84
526.71	97
526.925	90
527.14	91
527.355	101
527.57	95
527.785	89
527.999	95
528.214	89
528.429	101
528.644	96
528.859	114
529.074	91
529.289	94
529.503	96
529.718	95
529.933	84
530.148	93
530.363	112
530.577	84
530.792	100
531.007	95
531.221	89
531.436	99
531.651	101
531.865	95
532.08	103
532.295	108
532.509	133
532.724	122
532.938	98
533.153	90
533.367	112
533.582	108
533.796	101
534.011	90
534.225	94
534.44	87
534.654	89
534.868	98
535.083	88
535.297	108
535.511	107
535.726	94
535.94	97
536.154	95
536.369	78
536.583	102
536.797	86
537.011	86
537.225	86
537.44	92
537.654	101
537.868	100
538.082	95
538.296	89
538.51	99
538.724	88
538.938	89
539.153	100
539.367	100
539.581	106
539.795	98
540.009	95
540.222	101
540.436	93
540.65	101
540.864	99
541.078	126
541.292	126
541.506	200
541.72	186
541.934	129
542.147	107
542.361	95
542.575	101
542.789	107
543.002	110
543.216	100
543.43	98
543.644	99
543.857	101
544.071	104
544.285	100
544.498	94
544.712	98
544.925	86
545.139	91
545.352	93
545.566	92
545.779	93
545.993	86
546.206	112
546.42	98
546.633	96
546.847	103
547.06	93
547.274	91
547.487	115
547.7	84
547.914	104
548.127	94
548.34	97
548.554	108
548.767	104
548.98	107
549.193	93
549.407	107
549.62	95
549.833	109
550.046	98
550.259	96
550.473	116
550.686	96
550.899	94
551.112	100
551.325	99
551.538	88
551.751	100
551.964	93
552.177	103
552.39	95
552.603	96
552.816	94
553.029	90
553.242	111
553.455	103
553.667	101
553.88	84
554.093	103
554.306	83
554.519	89
554.732	107
554.944	78
555.157	98
555.37	107
555.583	107
555.795	98
556.008	118
556.221	142
556.433	110
556.646	117
556.859	100
557.071	98
557.284	129
557.496	121
557.709	100
557.921	114
558.134	104
558.346	102
558.559	107
558.771	74
558.984	96
559.196	99
559.409	97
559.621	103
559.833	89
560.046	112
560.258	102
560.47	88
560.683	105
560.895	99
561.107	99
561.32	102
561.532	112
561.744	93
561.956	104
562.168	104
562.381	99
562.593	110
562.805	122
563.017	171
563.229	235
563.441	551
563.653	192
563.865	106
564.077	91
564.289	86
564.501	111
564.713	99
564.925	95
565.137	99
565.349	100
565.561	100
565.773	101
565.985	99
566.197	88
566.408	97
566.62	103
566.832	123
567.044	116
567.255	98
567.467	99
567.679	106
567.891	117
568.102	166
568.314	233
568.526	151
568.737	107
568.949	106
569.161	95
569.372	97
569.584	94
569.795	95
570.007	102
570.218	122
570.43	152
570.641	115
570.853	104
571.064	97
571.276	86
571.487	95
571.698	92
571.91	106
572.121	97
572.333	94
572.544	104
572.755	141
572.966	180
573.178	131
573.389	102
573.6	86
573.811	100
574.023	94
574.234	97
574.445	82
574.656	88
574.867	101
575.078	88
575.289	98
575.501	80
575.712	85
575.923	100
576.134	94
576.345	100
576.556	108
576.767	97
576.978	109
577.188	106
577.399	92
577.61	101
577.821	94
578.032	94
578.243	97
578.454	101
578.665	99
578.875	111
579.086	97
579.297	82
579.508	91
579.718	102
579.929	95
580.14	112
580.35	111
580.561	102
580.772	91
580.982	89
581.193	107
581.403	90
581.614	94
581.825	87
582.035	94
582.246	94
582.456	103
582.667	80
582.877	111
583.087	106
583.298	100
583.508	89
583.719	96
583.929	81
584.139	88
584.35	91
584.56	102
584.77	85
584.981	97
585.191	98
585.401	95
585.611	82
585.821	90
586.032	88
586.242	69
586.452	91
586.662	92
586.872	93
587.082	78
587.292	93
587.502	87
587.713	90
587.923	94
588.133	94
588.343	99
588.553	79
588.762	97
588.972	98
589.182	114
589.392	112
589.602	98
589.812	103
590.022	102
590.232	101
590.441	101
590.651	98
590.861	108
591.071	89
591.281	101
591.49	76
591.7	87
591.91	90
592.119	78
592.329	88
592.539	86
592.748	117
592.958	94
593.167	85
593.377	97
593.587	90
593.796	93
594.006	80
594.215	90
594.424	94
594.634	84
594.843	92
595.053	99
595.262	95
595.472	96
595.681	84
595.89	78
596.1	88
596.309	101
596.518	87
596.727	87
596.937	88
597.146	95
597.355	81
597.564	86
597.774	90
597.983	97
598.192	102
598.401	90
598.61	86
598.819	100
599.028	74
599.237	91
599.446	89
599.655	89
599.864	82
600.073	94
600.282	101
600.491	88
600.7	85
600.909	90
601.118	88
601.327	88
601.536	100
601.745	113
601.953	128
602.162	142
602.371	103
602.58	83
602.789	90
602.997	95
603.206	80
603.415	95
603.623	95
603.832	100
604.041	95
604.249	99
604.458	90
604.666	93
604.875	97
605.084	90
605.292	80
605.501	94
605.709	98
605.918	104
606.126	105
606.334	95
606.543	104
606.751	129
606.96	161
607.168	156
607.376	108
607.585	107
607.793	89
608.001	98
608.21	97
608.418	99
608.626	93
608.834	95
609.043	85
609.251	92
609.459	83
609.667	81
609.875	81
610.083	97
610.291	91
610.499	87
610.707	99
610.916	91
611.124	91
611.332	100
611.54	92
611.748	90
611.955	80
612.163	82
612.371	92
612.579	100
612.787	84
612.995	91
613.203	104
613.411	90
613.618	86
613.826	90
614.034	111
614.242	90
614.449	83
614.657	89
614.865	97
615.072	97
615.28	116
615.488	110
615.695	104
615.903	95
616.111	110
616.318	106
616.526	93
616.733	96
616.941	103
617.148	101
617.356	98
617.563	105
617.771	98
617.978	97
618.185	98
618.393	88
618.6	78
618.807	81
619.015	88
619.222	84
619.429	103
619.637	99
619.844	98
620.051	94
620.258	92
620.466	86
620.673	101
620.88	90
621.087	93
621.294	89
621.501	106
621.708	96
621.915	93
622.122	87
622.329	94
622.536	85
622.743	106
622.95	93
623.157	93
623.364	97
623.571	95
623.778	84
623.985	91
624.192	92
624.399	91
624.606	94
624.812	84
625.019	86
625.226	78
625.433	89
625.639	94
625.846	88
626.053	86
626.259	79
626.466	98
626.673	91
626.879	87
627.086	87
627.293	90
627.499	79
627.706	76
627.912	79
628.119	76
628.325	90
628.532	98
628.738	96
628.945	78
629.151	92
629.357	100
629.564	98
629.77	97
629.976	81
630.183	99
630.389	91
630.595	87
630.802	95
631.008	76
631.214	88
631.42	98
631.627	82
631.833	102
632.039	87
632.245	82
632.451	91
632.657	92
632.863	79
633.069	87
633.275	94
633.481	73
633.688	80
633.893	96
634.099	98
634.305	99
634.511	82
634.717	89
634.923	99
635.129	114
635.335	115
635.541	100
635.747	90
635.952	84
636.158	87
636.364	107
636.57	95
636.775	97
636.981	96
637.187	104
637.392	103
637.598	86
637.804	101
638.009	86
638.215	87
638.421	83
638.626	88
638.832	88
639.037	94
639.243	85
639.448	84
639.654	95
639.859	82
640.065	92
640.27	89
640.475	85
640.681	92
640.886	88
641.091	81
641.297	95
641.502	105
641.707	92
641.913	93
642.118	78
642.323	87
642.528	87
642.733	99
642.939	91
643.144	87
643.349	80
643.554	91
643.759	82
643.964	84
644.169	94
644.374	83
644.579	90
644.784	74
644.989	100
645.194	88
645.399	105
645.604	110
645.809	82
646.014	96
646.219	89
646.423	105
646.628	104
646.833	100
647.038	75
647.243	76
647.447	99
647.652	93
647.857	85
648.062	79
648.266	94
648.471	95
648.676	100
648.88	88
649.085	81
649.289	82
649.494	86
649.698	91
649.903	98
650.107	82
650.312	92
650.516	87
650.721	87
650.925	82
651.13	90
651.334	90
651.539	88
651.743	92
651.947	79
652.152	96
652.356	92
652.56	97
652.764	107
652.969	93
653.173	96
653.377	81
653.581	80
653.785	85
653.99	87
654.194	82
654.398	90
654.602	72
654.806	76
655.01	78
655.214	82
655.418	82
655.622	86
655.826	78
656.03	96
656.234	95
656.438	88
656.642	77
656.846	83
657.049	82
657.253	86
657.457	69
657.661	74
657.865	86
658.068	85
658.272	87
658.476	86
658.68	82
658.883	91
659.087	90
659.291	87
659.494	72
659.698	91
659.901	74
660.105	74
660.309	66
660.512	67
660.716	94
660.919	96
661.123	91
661.326	80
661.53	84
661.733	88
661.936	77
662.14	77
662.343	76
662.546	78
662.75	103
662.953	78
663.156	81
663.36	79
663.563	74
663.766	81
663.969	75
664.173	93
664.376	70
664.579	81
664.782	88
664.985	80
665.188	74
665.391	70
665.594	84
665.797	86
666	91
666.203	71
666.406	67
666.609	85
666.812	88
667.015	89
667.218	86
667.421	82
667.624	88
667.827	66
668.03	74
668.232	79
668.435	78
668.638	86
668.841	72
669.043	85
669.246	84
669.449	87
669.651	81
669.854	75
670.057	91
670.259	85
670.462	80
670.665	83
670.867	94
671.07	91
671.272	82
671.475	89
671.677	71
671.88	86
672.082	84
672.284	89
672.487	87
672.689	88
672.892	75
