Data from SnStandardFlinnAPT0064_QswitchEnergy10_LIBS07252019.E.O._I.C._HRD10591_15-26-30-973.txt Node
Date: Thu Jul 25 15:26:30 EDT 2019
User: cochatt
Spectrometer: HR+D1059
Trigger mode: 1
Integration Time (sec): 1.000000E-1
Scans to average: 1
Electric dark correction enabled: true
Nonlinearity correction enabled: false
Boxcar width: 0
XAxis mode: Wavelengths
Number of Pixels in Spectrum: 2048
>>>>>Begin Spectral Data<<<<<
223.165	2
223.4	2
223.635	2
223.869	-19
224.104	-30
224.338	-9
224.573	-25
224.808	-10
225.042	-8
225.277	4
225.511	-7
225.746	-10
225.98	0
226.215	20
226.449	13
226.683	30
226.918	18
227.152	31
227.387	35
227.621	40
227.856	53
228.09	52
228.324	51
228.559	69
228.793	63
229.027	69
229.262	75
229.496	75
229.73	59
229.964	84
230.199	91
230.433	80
230.667	75
230.901	76
231.136	77
231.37	84
231.604	102
231.838	87
232.072	115
232.306	120
232.541	94
232.775	88
233.009	93
233.243	91
233.477	94
233.711	106
233.945	105
234.179	94
234.413	90
234.647	94
234.881	95
235.115	95
235.349	97
235.583	93
235.817	131
236.051	127
236.285	98
236.519	75
236.753	86
236.987	80
237.221	87
237.455	65
237.689	74
237.922	88
238.156	87
238.39	87
238.624	92
238.858	97
239.091	81
239.325	89
239.559	71
239.793	85
240.027	95
240.26	79
240.494	86
240.728	93
240.961	80
241.195	111
241.429	95
241.662	81
241.896	89
242.13	97
242.363	125
242.597	173
242.83	143
243.064	140
243.298	163
243.531	151
243.765	100
243.998	93
244.232	77
244.465	74
244.699	90
244.932	76
245.166	75
245.399	84
245.633	81
245.866	91
246.099	90
246.333	82
246.566	77
246.8	83
247.033	89
247.266	92
247.5	86
247.733	93
247.966	85
248.2	101
248.433	118
248.666	135
248.899	121
249.133	100
249.366	103
249.599	123
249.832	117
250.066	117
250.299	86
250.532	83
250.765	83
250.998	82
251.231	80
251.465	86
251.698	93
251.931	89
252.164	91
252.397	95
252.63	106
252.863	93
253.096	99
253.329	92
253.562	115
253.795	106
254.028	108
254.261	90
254.494	93
254.727	143
254.96	154
255.193	138
255.426	95
255.659	87
255.892	83
256.124	96
256.357	91
256.59	87
256.823	103
257.056	126
257.289	149
257.521	181
257.754	115
257.987	103
258.22	91
258.452	91
258.685	100
258.918	106
259.151	106
259.383	107
259.616	145
259.849	143
260.081	101
260.314	88
260.547	103
260.779	100
261.012	85
261.244	70
261.477	93
261.71	102
261.942	108
262.175	79
262.407	80
262.64	85
262.872	96
263.105	81
263.337	92
263.57	98
263.802	92
264.035	86
264.267	86
264.499	82
264.732	82
264.964	76
265.197	80
265.429	100
265.661	112
265.894	91
266.126	118
266.358	157
266.591	147
266.823	99
267.055	92
267.287	93
267.52	81
267.752	88
267.984	103
268.216	74
268.448	93
268.681	83
268.913	88
269.145	89
269.377	95
269.609	76
269.841	91
270.073	101
270.306	124
270.538	187
270.77	297
271.002	358
271.234	189
271.466	124
271.698	98
271.93	85
272.162	84
272.394	93
272.626	96
272.858	99
273.09	101
273.322	100
273.553	91
273.785	100
274.017	94
274.249	90
274.481	98
274.713	74
274.945	95
275.176	71
275.408	90
275.64	89
275.872	93
276.104	88
276.335	104
276.567	110
276.799	91
277.031	92
277.262	111
277.494	113
277.726	142
277.957	183
278.189	239
278.421	229
278.652	186
278.884	186
279.115	140
279.347	123
279.579	103
279.81	99
280.042	99
280.273	97
280.505	109
280.736	122
280.968	120
281.199	153
281.431	241
281.662	263
281.894	151
282.125	106
282.356	96
282.588	108
282.819	116
283.051	121
283.282	141
283.513	188
283.745	286
283.976	515
284.207	719
284.439	560
284.67	244
284.901	264
285.132	333
285.364	369
285.595	211
285.826	182
286.057	238
286.288	384
286.52	591
286.751	459
286.982	206
287.213	120
287.444	117
287.675	102
287.906	113
288.138	89
288.369	96
288.6	94
288.831	88
289.062	97
289.293	105
289.524	91
289.755	87
289.986	83
290.217	98
290.448	91
290.679	100
290.91	113
291.141	161
291.371	230
291.602	258
291.833	181
292.064	121
292.295	96
292.526	109
292.757	95
292.987	106
293.218	109
293.449	90
293.68	89
293.91	94
294.141	97
294.372	99
294.603	94
294.833	105
295.064	94
295.295	103
295.525	85
295.756	84
295.987	104
296.217	92
296.448	94
296.679	85
296.909	87
297.14	107
297.37	98
297.601	89
297.831	95
298.062	101
298.292	118
298.523	100
298.753	109
298.984	102
299.214	99
299.445	99
299.675	117
299.905	119
300.136	108
300.366	159
300.597	259
300.827	437
301.057	671
301.288	590
301.518	250
301.748	130
301.979	127
302.209	127
302.439	127
302.669	165
302.9	259
303.13	488
303.36	821
303.59	1151
303.82	817
304.051	283
304.281	166
304.511	127
304.741	93
304.971	115
305.201	107
305.431	111
305.661	107
305.891	101
306.121	100
306.352	106
306.582	107
306.812	103
307.042	107
307.272	99
307.502	108
307.731	111
307.961	105
308.191	106
308.421	115
308.651	106
308.881	109
309.111	109
309.341	87
309.571	105
309.8	105
310.03	110
310.26	117
310.49	107
310.72	107
310.949	102
311.179	113
311.409	113
311.639	102
311.868	117
312.098	122
312.328	106
312.557	99
312.787	104
313.017	110
313.246	121
313.476	117
313.706	122
313.935	142
314.165	190
314.394	219
314.624	181
314.853	131
315.083	123
315.312	118
315.542	130
315.771	124
316.001	121
316.23	140
316.46	154
316.689	174
316.919	245
317.148	441
317.377	847
317.607	1380
317.836	1308
318.065	490
318.295	223
318.524	157
318.753	133
318.983	123
319.212	123
319.441	102
319.67	103
319.9	121
320.129	98
320.358	131
320.587	117
320.816	120
321.046	128
321.275	125
321.504	132
321.733	158
321.962	153
322.191	150
322.42	133
322.649	122
322.878	130
323.108	113
323.337	120
323.566	121
323.795	137
324.024	127
324.253	135
324.482	159
324.71	222
324.939	262
325.168	218
325.397	179
325.626	257
325.855	472
326.084	885
326.313	1472
326.542	1494
326.77	607
326.999	235
327.228	195
327.457	219
327.686	212
327.914	152
328.143	150
328.372	115
328.6	138
328.829	135
329.058	111
329.287	110
329.515	138
329.744	139
329.972	126
330.201	122
330.43	107
330.658	106
330.887	99
331.115	115
331.344	124
331.572	117
331.801	109
332.03	121
332.258	125
332.486	167
332.715	288
332.943	454
333.172	709
333.4	627
333.629	233
333.857	140
334.085	129
334.314	120
334.542	125
334.771	123
334.999	113
335.227	122
335.455	117
335.684	113
335.912	116
336.14	122
336.369	120
336.597	99
336.825	123
337.053	104
337.281	110
337.51	113
337.738	120
337.966	117
338.194	119
338.422	117
338.65	109
338.878	113
339.106	109
339.334	135
339.562	128
339.79	130
340.018	115
340.246	109
340.474	113
340.702	123
340.93	116
341.158	124
341.386	123
341.614	114
341.842	129
342.07	106
342.298	122
342.526	121
342.754	94
342.981	118
343.209	113
343.437	103
343.665	101
343.893	99
344.12	105
344.348	101
344.576	115
344.804	119
345.031	113
345.259	109
345.487	116
345.714	108
345.942	121
346.17	106
346.397	117
346.625	113
346.853	109
347.08	109
347.308	99
347.535	96
347.763	87
347.99	107
348.218	91
348.445	103
348.673	108
348.9	122
349.128	125
349.355	121
349.583	115
349.81	127
350.037	97
350.265	117
350.492	115
350.72	106
350.947	109
351.174	100
351.402	102
351.629	113
351.856	119
352.083	108
352.311	117
352.538	109
352.765	103
352.992	108
353.22	118
353.447	108
353.674	99
353.901	107
354.128	103
354.355	103
354.583	93
354.81	101
355.037	98
355.264	106
355.491	113
355.718	97
355.945	86
356.172	103
356.399	107
356.626	100
356.853	121
357.08	110
357.307	119
357.534	106
357.761	107
357.988	108
358.215	105
358.441	107
358.668	107
358.895	115
359.122	125
359.349	101
359.576	110
359.802	123
360.029	102
360.256	108
360.483	110
360.709	90
360.936	118
361.163	98
361.39	109
361.616	114
361.843	120
362.07	113
362.296	105
362.523	107
362.749	114
362.976	98
363.203	118
363.429	114
363.656	101
363.882	101
364.109	121
364.335	119
364.562	110
364.788	104
365.015	119
365.241	137
365.468	183
365.694	245
365.92	209
366.147	117
366.373	115
366.599	93
366.826	103
367.052	98
367.278	110
367.505	98
367.731	97
367.957	102
368.184	97
368.41	119
368.636	112
368.862	103
369.089	100
369.315	100
369.541	114
369.767	112
369.993	95
370.219	104
370.445	111
370.672	107
370.898	106
371.124	108
371.35	114
371.576	117
371.802	122
372.028	118
372.254	111
372.48	113
372.706	117
372.932	94
373.158	104
373.384	106
373.61	123
373.835	119
374.061	104
374.287	117
374.513	101
374.739	114
374.965	104
375.191	109
375.416	105
375.642	105
375.868	117
376.094	121
376.319	120
376.545	106
376.771	110
376.997	108
377.222	107
377.448	100
377.674	114
377.899	106
378.125	113
378.35	131
378.576	115
378.802	117
379.027	123
379.253	130
379.478	179
379.704	289
379.929	708
380.155	1477
380.38	1556
380.606	504
380.831	189
381.057	123
381.282	114
381.507	112
381.733	116
381.958	119
382.184	116
382.409	97
382.634	94
382.86	108
383.085	83
383.31	94
383.535	103
383.761	115
383.986	106
384.211	106
384.436	109
384.662	101
384.887	109
385.112	108
385.337	109
385.562	102
385.787	91
386.013	114
386.238	103
386.463	105
386.688	101
386.913	113
387.138	117
387.363	105
387.588	102
387.813	94
388.038	105
388.263	111
388.488	96
388.713	117
388.938	103
389.163	102
389.387	112
389.612	96
389.837	88
390.062	107
390.287	103
390.512	101
390.736	78
390.961	86
391.186	104
391.411	105
391.636	100
391.86	103
392.085	89
392.31	109
392.534	105
392.759	99
392.984	111
393.208	117
393.433	141
393.658	130
393.882	104
394.107	113
394.331	108
394.556	100
394.78	97
395.005	100
395.229	102
395.454	105
395.678	101
395.903	105
396.127	97
396.352	101
396.576	98
396.801	116
397.025	123
397.249	113
397.474	100
397.698	96
397.922	113
398.147	106
398.371	104
398.595	99
398.82	112
399.044	92
399.268	102
399.492	93
399.717	92
399.941	103
400.165	101
400.389	103
400.613	110
400.837	93
401.062	101
401.286	98
401.51	100
401.734	103
401.958	105
402.182	93
402.406	92
402.63	93
402.854	88
403.078	102
403.302	100
403.526	110
403.75	111
403.974	96
404.198	89
404.422	106
404.645	95
404.869	93
405.093	100
405.317	107
405.541	99
405.765	123
405.988	139
406.212	114
406.436	108
406.66	105
406.883	90
407.107	101
407.331	98
407.555	107
407.778	117
408.002	95
408.226	98
408.449	109
408.673	113
408.896	98
409.12	98
409.344	105
409.567	115
409.791	110
410.014	99
410.238	93
410.461	114
410.685	107
410.908	88
411.132	93
411.355	99
411.578	107
411.802	99
412.025	100
412.249	92
412.472	81
412.695	105
412.919	94
413.142	94
413.365	106
413.589	99
413.812	103
414.035	112
414.258	114
414.482	98
414.705	108
414.928	124
415.151	102
415.374	117
415.597	90
415.821	103
416.044	99
416.267	92
416.49	98
416.713	101
416.936	98
417.159	115
417.382	100
417.605	101
417.828	104
418.051	99
418.274	114
418.497	98
418.72	95
418.943	109
419.166	99
419.389	101
419.611	109
419.834	114
420.057	107
420.28	97
420.503	100
420.726	103
420.948	100
421.171	73
421.394	94
421.617	106
421.839	95
422.062	94
422.285	105
422.507	100
422.73	130
422.953	133
423.175	134
423.398	115
423.621	113
423.843	89
424.066	102
424.288	110
424.511	95
424.733	106
424.956	113
425.178	110
425.401	107
425.623	86
425.846	93
426.068	85
426.291	97
426.513	108
426.735	99
426.958	99
427.18	106
427.402	81
427.625	108
427.847	93
428.069	97
428.292	88
428.514	108
428.736	99
428.958	91
429.181	98
429.403	117
429.625	99
429.847	92
430.069	93
430.292	101
430.514	110
430.736	108
430.958	104
431.18	106
431.402	103
431.624	102
431.846	92
432.068	84
432.29	107
432.512	86
432.734	82
432.956	104
433.178	102
433.4	110
433.622	106
433.844	88
434.066	82
434.287	97
434.509	97
434.731	96
434.953	99
435.175	83
435.397	108
435.618	90
435.84	90
436.062	88
436.284	91
436.505	93
436.727	99
436.949	85
437.17	95
437.392	95
437.614	107
437.835	88
438.057	99
438.278	88
438.5	99
438.721	103
438.943	98
439.165	121
439.386	94
439.608	98
439.829	101
440.05	134
440.272	121
440.493	97
440.715	98
440.936	94
441.158	102
441.379	90
441.6	115
441.822	101
442.043	106
442.264	143
442.486	126
442.707	117
442.928	98
443.149	109
443.371	100
443.592	106
443.813	107
444.034	101
444.255	110
444.476	95
444.698	106
444.919	93
445.14	217
445.361	153
445.582	114
445.803	101
446.024	97
446.245	93
446.466	106
446.687	118
446.908	94
447.129	100
447.35	99
447.571	127
447.792	93
448.013	105
448.234	91
448.455	102
448.675	106
448.896	110
449.117	125
449.338	131
449.559	166
449.779	109
450	94
450.221	109
450.442	119
450.662	122
450.883	108
451.104	96
451.324	127
451.545	89
451.766	117
451.986	123
452.207	221
452.428	552
452.648	1249
452.869	698
453.089	197
453.31	120
453.53	129
453.751	145
453.971	157
454.192	137
454.412	119
454.633	109
454.853	100
455.073	91
455.294	84
455.514	93
455.734	110
455.955	96
456.175	96
456.395	95
456.616	101
456.836	100
457.056	93
457.276	103
457.497	126
457.717	122
457.937	81
458.157	89
458.377	99
458.598	81
458.818	94
459.038	98
459.258	102
459.478	85
459.698	95
459.918	94
460.138	95
460.358	101
460.578	93
460.798	91
461.018	110
461.238	98
461.458	110
461.678	95
461.898	105
462.118	98
462.338	87
462.558	95
462.777	101
462.997	95
463.217	108
463.437	129
463.657	180
463.876	197
464.096	133
464.316	104
464.536	103
464.755	81
464.975	102
465.195	106
465.414	105
465.634	121
465.854	99
466.073	83
466.293	103
466.512	101
466.732	111
466.951	114
467.171	137
467.391	135
467.61	103
467.829	101
468.049	109
468.268	101
468.488	94
468.707	95
468.927	115
469.146	93
469.365	90
469.585	89
469.804	92
470.023	90
470.243	87
470.462	107
470.681	111
470.901	133
471.12	184
471.339	211
471.558	138
471.777	101
471.997	108
472.216	102
472.435	90
472.654	87
472.873	96
473.092	93
473.311	94
473.53	92
473.749	90
473.968	105
474.187	98
474.406	99
474.625	90
474.844	103
475.063	95
475.282	106
475.501	101
475.72	102
475.939	113
476.158	92
476.377	98
476.596	121
476.814	99
477.033	94
477.252	84
477.471	98
477.69	117
477.908	100
478.127	116
478.346	114
478.564	95
478.783	92
479.002	99
479.22	98
479.439	104
479.658	108
479.876	102
480.095	102
480.313	97
480.532	94
480.751	103
480.969	113
481.188	97
481.406	98
481.624	117
481.843	116
482.061	125
482.28	97
482.498	106
482.717	109
482.935	106
483.153	98
483.372	106
483.59	97
483.808	121
484.027	114
484.245	125
484.463	154
484.681	223
484.9	146
485.118	113
485.336	105
485.554	118
485.772	133
485.99	183
486.209	240
486.427	163
486.645	110
486.863	105
487.081	107
487.299	103
487.517	99
487.735	97
487.953	112
488.171	109
488.389	100
488.607	95
488.825	94
489.043	91
489.261	95
489.479	90
489.696	94
489.914	100
490.132	113
490.35	113
490.568	95
490.786	107
491.003	104
491.221	107
491.439	123
491.657	105
491.874	107
492.092	96
492.31	114
492.527	105
492.745	102
492.963	99
493.18	98
493.398	90
493.615	103
493.833	114
494.05	105
494.268	115
494.485	99
494.703	100
494.92	92
495.138	106
495.355	118
495.573	115
495.79	112
496.008	118
496.225	113
496.442	104
496.66	105
496.877	160
497.094	172
497.312	104
497.529	88
497.746	93
497.963	104
498.181	115
498.398	109
498.615	105
498.832	108
499.049	101
499.267	137
499.484	154
499.701	123
499.918	105
500.135	105
500.352	106
500.569	99
500.786	100
501.003	106
501.22	100
501.437	105
501.654	106
501.871	100
502.088	111
502.305	95
502.522	96
502.739	109
502.956	99
503.172	108
503.389	95
503.606	107
503.823	92
504.04	101
504.256	92
504.473	86
504.69	87
504.907	115
505.123	121
505.34	99
505.557	94
505.773	108
505.99	110
506.207	106
506.423	98
506.64	102
506.856	94
507.073	100
507.289	107
507.506	92
507.722	117
507.939	96
508.155	93
508.372	101
508.588	99
508.805	105
509.021	94
509.238	102
509.454	142
509.67	162
509.887	120
510.103	106
510.319	103
510.536	104
510.752	109
510.968	116
511.184	107
511.401	115
511.617	115
511.833	97
512.049	103
512.265	115
512.481	109
512.698	89
512.914	102
513.13	97
513.346	99
513.562	100
513.778	105
513.994	95
514.21	129
514.426	143
514.642	193
514.858	108
515.074	114
515.29	99
515.506	110
515.721	94
515.937	88
516.153	88
516.369	97
516.585	99
516.801	100
517.016	92
517.232	99
517.448	96
517.664	100
517.879	103
518.095	90
518.311	93
518.527	104
518.742	107
518.958	124
519.173	155
519.389	117
519.605	94
519.82	100
520.036	87
520.251	101
520.467	100
520.682	100
520.898	91
521.113	106
521.329	108
521.544	92
521.76	108
521.975	113
522.19	110
522.406	89
522.621	109
522.836	87
523.052	114
523.267	101
523.482	101
523.698	98
523.913	102
524.128	100
524.343	110
524.559	108
524.774	95
524.989	93
525.204	87
525.419	102
525.634	90
525.849	98
526.064	98
526.28	94
526.495	99
526.71	110
526.925	95
527.14	100
527.355	91
527.57	107
527.785	93
527.999	104
528.214	100
528.429	107
528.644	105
528.859	82
529.074	97
529.289	93
529.503	110
529.718	106
529.933	103
530.148	110
530.363	87
530.577	101
530.792	89
531.007	92
531.221	98
531.436	116
531.651	85
531.865	93
532.08	101
532.295	116
532.509	138
532.724	120
532.938	89
533.153	105
533.367	94
533.582	106
533.796	110
534.011	101
534.225	99
534.44	104
534.654	102
534.868	102
535.083	91
535.297	101
535.511	103
535.726	92
535.94	100
536.154	103
536.369	94
536.583	89
536.797	110
537.011	105
537.225	95
537.44	98
537.654	101
537.868	101
538.082	104
538.296	101
538.51	104
538.724	94
538.938	95
539.153	107
539.367	99
539.581	99
539.795	105
540.009	103
540.222	104
540.436	107
540.65	87
540.864	120
541.078	113
541.292	131
541.506	221
541.72	206
541.934	121
542.147	120
542.361	101
542.575	102
542.789	98
543.002	101
543.216	114
543.43	111
543.644	100
543.857	112
544.071	99
544.285	99
544.498	97
544.712	105
544.925	93
545.139	108
545.352	117
545.566	114
545.779	108
545.993	107
546.206	107
546.42	101
546.633	97
546.847	105
547.06	101
547.274	110
547.487	113
547.7	108
547.914	106
548.127	100
548.34	94
548.554	106
548.767	99
548.98	100
549.193	115
549.407	125
549.62	104
549.833	110
550.046	101
550.259	104
550.473	95
550.686	103
550.899	101
551.112	97
551.325	108
551.538	99
551.751	97
551.964	101
552.177	105
552.39	116
552.603	115
552.816	107
553.029	106
553.242	97
553.455	97
553.667	98
553.88	122
554.093	99
554.306	97
554.519	101
554.732	107
554.944	92
555.157	109
555.37	105
555.583	89
555.795	100
556.008	114
556.221	159
556.433	125
556.646	101
556.859	105
557.071	108
557.284	122
557.496	105
557.709	99
557.921	115
558.134	113
558.346	99
558.559	111
558.771	108
558.984	97
559.196	117
559.409	99
559.621	103
559.833	105
560.046	117
560.258	101
560.47	91
560.683	102
560.895	98
561.107	111
561.32	119
561.532	99
561.744	106
561.956	114
562.168	89
562.381	117
562.593	110
562.805	137
563.017	155
563.229	249
563.441	570
563.653	183
563.865	113
564.077	93
564.289	103
564.501	87
564.713	106
564.925	99
565.137	90
565.349	102
565.561	112
565.773	107
565.985	115
566.197	99
566.408	111
566.62	100
566.832	110
567.044	106
567.255	106
567.467	99
567.679	113
567.891	112
568.102	177
568.314	235
568.526	147
568.737	114
568.949	91
569.161	88
569.372	95
569.584	91
569.795	90
570.007	106
570.218	125
570.43	169
570.641	111
570.853	101
571.064	86
571.276	103
571.487	114
571.698	93
571.91	104
572.121	89
572.333	104
572.544	110
572.755	126
572.966	186
573.178	125
573.389	99
573.6	97
573.811	94
574.023	102
574.234	111
574.445	102
574.656	101
574.867	84
575.078	98
575.289	102
575.501	103
575.712	86
575.923	98
576.134	105
576.345	107
576.556	92
576.767	103
576.978	90
577.188	107
577.399	107
577.61	119
577.821	97
578.032	100
578.243	90
578.454	86
578.665	85
578.875	91
579.086	101
579.297	100
579.508	99
579.718	99
579.929	95
580.14	106
580.35	95
580.561	104
580.772	94
580.982	104
581.193	99
581.403	89
581.614	85
581.825	83
582.035	91
582.246	100
582.456	112
582.667	99
582.877	109
583.087	118
583.298	103
583.508	103
583.719	97
583.929	107
584.139	102
584.35	87
584.56	93
584.77	100
584.981	91
585.191	106
585.401	89
585.611	78
585.821	93
586.032	89
586.242	91
586.452	107
586.662	93
586.872	87
587.082	94
587.292	102
587.502	108
587.713	94
587.923	89
588.133	96
588.343	86
588.553	89
588.762	105
588.972	111
589.182	122
589.392	110
589.602	112
589.812	107
590.022	81
590.232	102
590.441	83
590.651	99
590.861	95
591.071	91
591.281	94
591.49	91
591.7	92
591.91	97
592.119	90
592.329	80
592.539	104
592.748	100
592.958	90
593.167	80
593.377	98
593.587	93
593.796	99
594.006	103
594.215	81
594.424	98
594.634	114
594.843	92
595.053	97
595.262	90
595.472	102
595.681	80
595.89	90
596.1	100
596.309	86
596.518	95
596.727	95
596.937	98
597.146	94
597.355	89
597.564	107
597.774	95
597.983	91
598.192	89
598.401	91
598.61	94
598.819	86
599.028	92
599.237	91
599.446	96
599.655	97
599.864	87
600.073	94
600.282	111
600.491	87
600.7	77
600.909	93
601.118	105
601.327	91
601.536	102
601.745	95
601.953	123
602.162	165
602.371	110
602.58	93
602.789	107
602.997	99
603.206	101
603.415	92
603.623	91
603.832	110
604.041	114
604.249	91
604.458	86
604.666	100
604.875	82
605.084	92
605.292	104
605.501	90
605.709	94
605.918	115
606.126	105
606.334	96
606.543	104
606.751	138
606.96	159
607.168	171
607.376	130
607.585	110
607.793	103
608.001	110
608.21	104
608.418	86
608.626	92
608.834	101
609.043	103
609.251	109
609.459	98
609.667	94
609.875	97
610.083	78
610.291	94
610.499	107
610.707	104
610.916	94
611.124	94
611.332	97
611.54	99
611.748	105
611.955	88
612.163	92
612.371	94
612.579	102
612.787	95
612.995	95
613.203	110
613.411	103
613.618	95
613.826	98
614.034	104
614.242	93
614.449	89
614.657	93
614.865	109
615.072	112
615.28	102
615.488	96
615.695	105
615.903	108
616.111	100
616.318	105
616.526	104
616.733	108
616.941	91
617.148	94
617.356	116
617.563	87
617.771	103
617.978	89
618.185	98
618.393	91
618.6	85
618.807	97
619.015	92
619.222	89
619.429	97
619.637	90
619.844	77
620.051	97
620.258	86
620.466	81
620.673	98
620.88	86
621.087	110
621.294	97
621.501	106
621.708	98
621.915	118
622.122	80
622.329	96
622.536	90
622.743	90
622.95	92
623.157	86
623.364	76
623.571	84
623.778	97
623.985	102
624.192	114
624.399	90
624.606	83
624.812	97
625.019	86
625.226	103
625.433	88
625.639	93
625.846	97
626.053	98
626.259	88
626.466	87
626.673	86
626.879	110
627.086	101
627.293	103
627.499	82
627.706	82
627.912	97
628.119	93
628.325	82
628.532	92
628.738	100
628.945	115
629.151	99
629.357	88
629.564	94
629.77	90
629.976	82
630.183	86
630.389	83
630.595	93
630.802	87
631.008	91
631.214	86
631.42	101
631.627	95
631.833	102
632.039	80
632.245	103
632.451	96
632.657	69
632.863	85
633.069	91
633.275	97
633.481	93
633.688	94
633.893	96
634.099	101
634.305	87
634.511	89
634.717	98
634.923	104
635.129	120
635.335	120
635.541	104
635.747	94
635.952	85
636.158	98
636.364	87
636.57	82
636.775	99
636.981	86
637.187	84
637.392	82
637.598	98
637.804	80
638.009	94
638.215	81
638.421	81
638.626	87
638.832	93
639.037	91
639.243	75
639.448	91
639.654	104
639.859	109
640.065	110
640.27	105
640.475	90
640.681	80
640.886	83
641.091	89
641.297	86
641.502	90
641.707	95
641.913	86
642.118	82
642.323	100
642.528	97
642.733	94
642.939	98
643.144	103
643.349	83
643.554	85
643.759	86
643.964	95
644.169	101
644.374	98
644.579	88
644.784	93
644.989	89
645.194	87
645.399	104
645.604	99
645.809	85
646.014	98
646.219	87
646.423	77
646.628	87
646.833	98
647.038	87
647.243	89
647.447	104
647.652	91
647.857	89
648.062	75
648.266	85
648.471	86
648.676	77
648.88	101
649.085	106
649.289	93
649.494	89
649.698	100
649.903	92
650.107	93
650.312	77
650.516	87
650.721	88
650.925	100
651.13	97
651.334	97
651.539	100
651.743	93
651.947	99
652.152	94
652.356	83
652.56	110
652.764	112
652.969	105
653.173	85
653.377	83
653.581	84
653.785	90
653.99	87
654.194	106
654.398	88
654.602	89
654.806	84
655.01	98
655.214	93
655.418	87
655.622	72
655.826	86
656.03	67
656.234	92
656.438	103
656.642	89
656.846	102
657.049	81
657.253	90
657.457	87
657.661	88
657.865	90
658.068	88
658.272	76
658.476	90
658.68	79
658.883	78
659.087	102
659.291	85
659.494	74
659.698	82
659.901	93
660.105	86
660.309	88
660.512	82
660.716	83
660.919	83
661.123	87
661.326	97
661.53	87
661.733	90
661.936	91
662.14	82
662.343	94
662.546	88
662.75	86
662.953	82
663.156	74
663.36	96
663.563	82
663.766	74
663.969	99
664.173	104
664.376	92
664.579	86
664.782	92
664.985	91
665.188	80
665.391	79
665.594	79
665.797	80
666	92
666.203	88
666.406	90
666.609	74
666.812	94
667.015	102
667.218	88
667.421	79
667.624	97
667.827	79
668.03	87
668.232	79
668.435	83
668.638	90
668.841	93
669.043	84
669.246	85
669.449	92
669.651	90
669.854	83
670.057	79
670.259	78
670.462	92
670.665	80
670.867	73
671.07	99
671.272	89
671.475	81
671.677	82
671.88	90
672.082	77
672.284	82
672.487	85
672.689	91
672.892	78
