Data from SnStandardFlinnAPT0064_QswitchEnergy10_LIBS07252019.E.O._I.C._HRD10591_15-26-38-972.txt Node
Date: Thu Jul 25 15:26:38 EDT 2019
User: cochatt
Spectrometer: HR+D1059
Trigger mode: 1
Integration Time (sec): 1.000000E-1
Scans to average: 1
Electric dark correction enabled: true
Nonlinearity correction enabled: false
Boxcar width: 0
XAxis mode: Wavelengths
Number of Pixels in Spectrum: 2048
>>>>>Begin Spectral Data<<<<<
223.165	-22
223.4	-22
223.635	-22
223.869	-26
224.104	-20
224.338	-26
224.573	-9
224.808	-3
225.042	3
225.277	-7
225.511	5
225.746	-9
225.98	11
226.215	18
226.449	18
226.683	15
226.918	21
227.152	31
227.387	37
227.621	36
227.856	51
228.09	29
228.324	42
228.559	45
228.793	65
229.027	70
229.262	70
229.496	63
229.73	69
229.964	66
230.199	80
230.433	72
230.667	80
230.901	65
231.136	76
231.37	99
231.604	89
231.838	105
232.072	117
232.306	117
232.541	89
232.775	77
233.009	89
233.243	89
233.477	80
233.711	87
233.945	96
234.179	91
234.413	79
234.647	91
234.881	96
235.115	85
235.349	95
235.583	115
235.817	129
236.051	128
236.285	90
236.519	80
236.753	74
236.987	80
237.221	87
237.455	82
237.689	83
237.922	81
238.156	97
238.39	88
238.624	85
238.858	81
239.091	73
239.325	87
239.559	74
239.793	82
240.027	75
240.26	79
240.494	72
240.728	74
240.961	94
241.195	99
241.429	99
241.662	74
241.896	113
242.13	93
242.363	133
242.597	165
242.83	146
243.064	135
243.298	182
243.531	155
243.765	95
243.998	93
244.232	84
244.465	83
244.699	73
244.932	74
245.166	83
245.399	79
245.633	82
245.866	86
246.099	90
246.333	78
246.566	59
246.8	75
247.033	82
247.266	89
247.5	83
247.733	74
247.966	86
248.2	83
248.433	111
248.666	134
248.899	124
249.133	89
249.366	98
249.599	114
249.832	126
250.066	136
250.299	94
250.532	67
250.765	83
250.998	83
251.231	79
251.465	78
251.698	73
251.931	81
252.164	65
252.397	84
252.63	85
252.863	106
253.096	104
253.329	98
253.562	90
253.795	96
254.028	80
254.261	84
254.494	91
254.727	109
254.96	167
255.193	129
255.426	104
255.659	98
255.892	76
256.124	85
256.357	82
256.59	86
256.823	96
257.056	116
257.289	151
257.521	197
257.754	134
257.987	95
258.22	84
258.452	83
258.685	85
258.918	89
259.151	89
259.383	106
259.616	131
259.849	145
260.081	113
260.314	83
260.547	74
260.779	78
261.012	82
261.244	80
261.477	90
261.71	94
261.942	89
262.175	101
262.407	93
262.64	65
262.872	81
263.105	79
263.337	101
263.57	81
263.802	78
264.035	76
264.267	77
264.499	74
264.732	70
264.964	82
265.197	86
265.429	66
265.661	100
265.894	112
266.126	115
266.358	158
266.591	149
266.823	104
267.055	71
267.287	99
267.52	91
267.752	85
267.984	82
268.216	82
268.448	80
268.681	101
268.913	92
269.145	87
269.377	84
269.609	83
269.841	95
270.073	89
270.306	105
270.538	200
270.77	330
271.002	376
271.234	197
271.466	118
271.698	103
271.93	96
272.162	86
272.394	92
272.626	89
272.858	89
273.09	83
273.322	83
273.553	78
273.785	84
274.017	89
274.249	81
274.481	89
274.713	84
274.945	88
275.176	73
275.408	85
275.64	94
275.872	96
276.104	89
276.335	97
276.567	102
276.799	106
277.031	94
277.262	103
277.494	105
277.726	109
277.957	205
278.189	270
278.421	238
278.652	184
278.884	208
279.115	131
279.347	117
279.579	106
279.81	99
280.042	86
280.273	114
280.505	89
280.736	105
280.968	121
281.199	161
281.431	238
281.662	271
281.894	163
282.125	120
282.356	119
282.588	126
282.819	98
283.051	115
283.282	142
283.513	182
283.745	298
283.976	543
284.207	789
284.439	615
284.67	272
284.901	257
285.132	366
285.364	413
285.595	227
285.826	171
286.057	239
286.288	400
286.52	618
286.751	518
286.982	197
287.213	105
287.444	107
287.675	109
287.906	98
288.138	103
288.369	100
288.6	81
288.831	84
289.062	85
289.293	90
289.524	94
289.755	86
289.986	97
290.217	83
290.448	81
290.679	100
290.91	122
291.141	161
291.371	226
291.602	288
291.833	194
292.064	111
292.295	96
292.526	101
292.757	104
292.987	89
293.218	93
293.449	90
293.68	97
293.91	93
294.141	78
294.372	83
294.603	106
294.833	102
295.064	90
295.295	85
295.525	92
295.756	104
295.987	97
296.217	97
296.448	102
296.679	93
296.909	101
297.14	94
297.37	99
297.601	98
297.831	94
298.062	83
298.292	102
298.523	111
298.753	97
298.984	116
299.214	102
299.445	104
299.675	107
299.905	121
300.136	122
300.366	169
300.597	258
300.827	468
301.057	700
301.288	616
301.518	257
301.748	162
301.979	134
302.209	127
302.439	138
302.669	176
302.9	267
303.13	517
303.36	913
303.59	1241
303.82	867
304.051	287
304.281	162
304.511	123
304.741	123
304.971	114
305.201	114
305.431	107
305.661	111
305.891	103
306.121	116
306.352	106
306.582	115
306.812	105
307.042	119
307.272	104
307.502	107
307.731	93
307.961	112
308.191	109
308.421	112
308.651	94
308.881	105
309.111	113
309.341	98
309.571	101
309.8	117
310.03	111
310.26	112
310.49	109
310.72	91
310.949	93
311.179	102
311.409	100
311.639	102
311.868	115
312.098	117
312.328	99
312.557	120
312.787	115
313.017	114
313.246	120
313.476	119
313.706	120
313.935	167
314.165	197
314.394	234
314.624	175
314.853	138
315.083	141
315.312	133
315.542	131
315.771	130
316.001	145
316.23	133
316.46	148
316.689	167
316.919	249
317.148	514
317.377	927
317.607	1509
317.836	1443
318.065	553
318.295	224
318.524	163
318.753	155
318.983	129
319.212	125
319.441	143
319.67	129
319.9	107
320.129	113
320.358	97
320.587	129
320.816	128
321.046	121
321.275	136
321.504	139
321.733	146
321.962	156
322.191	173
322.42	129
322.649	129
322.878	130
323.108	125
323.337	125
323.566	130
323.795	123
324.024	130
324.253	138
324.482	169
324.71	213
324.939	277
325.168	229
325.397	194
325.626	258
325.855	490
326.084	953
326.313	1639
326.542	1630
326.77	648
326.999	258
327.228	215
327.457	231
327.686	225
327.914	153
328.143	143
328.372	129
328.6	120
328.829	115
329.058	120
329.287	123
329.515	114
329.744	111
329.972	129
330.201	116
330.43	119
330.658	129
330.887	114
331.115	115
331.344	102
331.572	117
331.801	117
332.03	127
332.258	136
332.486	185
332.715	301
332.943	486
333.172	784
333.4	699
333.629	244
333.857	145
334.085	131
334.314	126
334.542	112
334.771	113
334.999	123
335.227	120
335.455	106
335.684	120
335.912	135
336.14	134
336.369	108
336.597	121
336.825	117
337.053	100
337.281	91
337.51	120
337.738	120
337.966	115
338.194	110
338.422	111
338.65	106
338.878	115
339.106	109
339.334	95
339.562	105
339.79	101
340.018	105
340.246	116
340.474	103
340.702	123
340.93	103
341.158	105
341.386	119
341.614	119
341.842	121
342.07	108
342.298	115
342.526	104
342.754	113
342.981	120
343.209	112
343.437	114
343.665	113
343.893	103
344.12	114
344.348	115
344.576	114
344.804	113
345.031	112
345.259	94
345.487	112
345.714	113
345.942	115
346.17	102
346.397	101
346.625	109
346.853	109
347.08	95
347.308	105
347.535	99
347.763	114
347.99	92
348.218	100
348.445	107
348.673	97
348.9	116
349.128	119
349.355	121
349.583	117
349.81	116
350.037	126
350.265	113
350.492	118
350.72	112
350.947	110
351.174	116
351.402	107
351.629	117
351.856	118
352.083	109
352.311	115
352.538	118
352.765	114
352.992	96
353.22	109
353.447	90
353.674	96
353.901	112
354.128	103
354.355	101
354.583	107
354.81	112
355.037	113
355.264	116
355.491	93
355.718	102
355.945	100
356.172	113
356.399	111
356.626	106
356.853	115
357.08	104
357.307	96
357.534	96
357.761	101
357.988	95
358.215	121
358.441	115
358.668	116
358.895	121
359.122	131
359.349	104
359.576	103
359.802	103
360.029	117
360.256	118
360.483	99
360.709	92
360.936	93
361.163	119
361.39	98
361.616	112
361.843	117
362.07	112
362.296	111
362.523	114
362.749	99
362.976	109
363.203	100
363.429	115
363.656	110
363.882	114
364.109	108
364.335	110
364.562	98
364.788	102
365.015	120
365.241	126
365.468	193
365.694	260
365.92	203
366.147	117
366.373	91
366.599	99
366.826	98
367.052	89
367.278	100
367.505	101
367.731	103
367.957	97
368.184	114
368.41	122
368.636	122
368.862	93
369.089	92
369.315	93
369.541	129
369.767	98
369.993	100
370.219	90
370.445	112
370.672	109
370.898	100
371.124	102
371.35	107
371.576	112
371.802	100
372.028	117
372.254	115
372.48	106
372.706	131
372.932	111
373.158	117
373.384	122
373.61	106
373.835	104
374.061	113
374.287	123
374.513	119
374.739	103
374.965	105
375.191	93
375.416	110
375.642	117
375.868	96
376.094	99
376.319	100
376.545	106
376.771	93
376.997	121
377.222	87
377.448	91
377.674	89
377.899	120
378.125	101
378.35	133
378.576	120
378.802	129
379.027	124
379.253	149
379.478	178
379.704	313
379.929	792
380.155	1606
380.38	1674
380.606	529
380.831	198
381.057	133
381.282	119
381.507	115
381.733	94
381.958	107
382.184	102
382.409	110
382.634	111
382.86	100
383.085	101
383.31	99
383.535	108
383.761	103
383.986	109
384.211	99
384.436	95
384.662	99
384.887	105
385.112	112
385.337	109
385.562	113
385.787	101
386.013	122
386.238	101
386.463	108
386.688	107
386.913	97
387.138	105
387.363	107
387.588	106
387.813	106
388.038	107
388.263	98
388.488	97
388.713	111
388.938	92
389.163	105
389.387	85
389.612	97
389.837	91
390.062	95
390.287	116
390.512	101
390.736	105
390.961	98
391.186	102
391.411	95
391.636	95
391.86	112
392.085	93
392.31	109
392.534	87
392.759	104
392.984	111
393.208	116
393.433	178
393.658	165
393.882	116
394.107	102
394.331	107
394.556	92
394.78	93
395.005	103
395.229	105
395.454	88
395.678	97
395.903	108
396.127	95
396.352	104
396.576	95
396.801	133
397.025	151
397.249	114
397.474	113
397.698	94
397.922	107
398.147	96
398.371	89
398.595	85
398.82	110
399.044	92
399.268	109
399.492	96
399.717	93
399.941	86
400.165	99
400.389	89
400.613	95
400.837	97
401.062	84
401.286	93
401.51	105
401.734	86
401.958	99
402.182	90
402.406	96
402.63	83
402.854	89
403.078	103
403.302	92
403.526	90
403.75	103
403.974	75
404.198	90
404.422	106
404.645	100
404.869	83
405.093	99
405.317	84
405.541	99
405.765	119
405.988	137
406.212	117
406.436	95
406.66	89
406.883	95
407.107	99
407.331	86
407.555	100
407.778	78
408.002	89
408.226	93
408.449	91
408.673	93
408.896	98
409.12	105
409.344	88
409.567	82
409.791	106
410.014	90
410.238	93
410.461	112
410.685	87
410.908	99
411.132	110
411.355	103
411.578	93
411.802	87
412.025	105
412.249	90
412.472	99
412.695	84
412.919	103
413.142	102
413.365	101
413.589	110
413.812	113
414.035	109
414.258	113
414.482	101
414.705	100
414.928	93
415.151	101
415.374	97
415.597	94
415.821	88
416.044	86
416.267	95
416.49	108
416.713	93
416.936	95
417.159	104
417.382	96
417.605	92
417.828	110
418.051	95
418.274	94
418.497	107
418.72	104
418.943	100
419.166	102
419.389	105
419.611	120
419.834	101
420.057	97
420.28	96
420.503	96
420.726	98
420.948	77
421.171	101
421.394	97
421.617	92
421.839	98
422.062	102
422.285	100
422.507	112
422.73	147
422.953	157
423.175	121
423.398	96
423.621	90
423.843	97
424.066	112
424.288	87
424.511	101
424.733	90
424.956	85
425.178	87
425.401	89
425.623	88
425.846	81
426.068	103
426.291	85
426.513	88
426.735	82
426.958	99
427.18	106
427.402	95
427.625	95
427.847	90
428.069	103
428.292	102
428.514	107
428.736	86
428.958	91
429.181	102
429.403	90
429.625	97
429.847	98
430.069	93
430.292	119
430.514	96
430.736	103
430.958	105
431.18	102
431.402	99
431.624	83
431.846	102
432.068	101
432.29	88
432.512	100
432.734	88
432.956	103
433.178	112
433.4	92
433.622	89
433.844	102
434.066	76
434.287	93
434.509	98
434.731	90
434.953	85
435.175	95
435.397	86
435.618	86
435.84	84
436.062	91
436.284	82
436.505	103
436.727	87
436.949	97
437.17	103
437.392	97
437.614	91
437.835	90
438.057	96
438.278	92
438.5	94
438.721	87
438.943	101
439.165	131
439.386	113
439.608	113
439.829	98
440.05	123
440.272	111
440.493	99
440.715	90
440.936	92
441.158	109
441.379	84
441.6	81
441.822	99
442.043	113
442.264	129
442.486	117
442.707	109
442.928	103
443.149	90
443.371	99
443.592	105
443.813	94
444.034	101
444.255	98
444.476	99
444.698	95
444.919	85
445.14	208
445.361	137
445.582	104
445.803	107
446.024	104
446.245	90
446.466	109
446.687	99
446.908	109
447.129	109
447.35	102
447.571	81
447.792	99
448.013	92
448.234	75
448.455	90
448.675	94
448.896	97
449.117	105
449.338	130
449.559	136
449.779	101
450	100
450.221	103
450.442	109
450.662	113
450.883	110
451.104	117
451.324	112
451.545	117
451.766	120
451.986	124
452.207	214
452.428	556
452.648	1363
452.869	773
453.089	207
453.31	127
453.53	121
453.751	147
453.971	170
454.192	154
454.412	106
454.633	101
454.853	94
455.073	87
455.294	81
455.514	100
455.734	91
455.955	102
456.175	102
456.395	99
456.616	90
456.836	113
457.056	100
457.276	91
457.497	94
457.717	126
457.937	95
458.157	97
458.377	85
458.598	81
458.818	92
459.038	93
459.258	88
459.478	93
459.698	104
459.918	91
460.138	86
460.358	90
460.578	87
460.798	94
461.018	87
461.238	90
461.458	93
461.678	92
461.898	86
462.118	97
462.338	91
462.558	81
462.777	96
462.997	82
463.217	104
463.437	122
463.657	191
463.876	198
464.096	118
464.316	91
464.536	107
464.755	88
464.975	86
465.195	88
465.414	107
465.634	97
465.854	93
466.073	96
466.293	99
466.512	88
466.732	102
466.951	104
467.171	131
467.391	131
467.61	102
467.829	107
468.049	89
468.268	102
468.488	102
468.707	101
468.927	72
469.146	97
469.365	81
469.585	94
469.804	90
470.023	90
470.243	102
470.462	97
470.681	122
470.901	126
471.12	207
471.339	217
471.558	134
471.777	113
471.997	103
472.216	103
472.435	95
472.654	110
472.873	97
473.092	102
473.311	93
473.53	93
473.749	93
473.968	106
474.187	88
474.406	85
474.625	100
474.844	83
475.063	81
475.282	91
475.501	80
475.72	95
475.939	89
476.158	119
476.377	104
476.596	104
476.814	98
477.033	100
477.252	90
477.471	96
477.69	99
477.908	89
478.127	105
478.346	93
478.564	92
478.783	94
479.002	87
479.22	94
479.439	98
479.658	104
479.876	93
480.095	97
480.313	95
480.532	94
480.751	91
480.969	89
481.188	100
481.406	95
481.624	100
481.843	121
482.061	121
482.28	94
482.498	105
482.717	98
482.935	86
483.153	89
483.372	105
483.59	106
483.808	97
484.027	88
484.245	116
484.463	176
484.681	240
484.9	146
485.118	123
485.336	106
485.554	111
485.772	123
485.99	193
486.209	272
486.427	176
486.645	117
486.863	105
487.081	109
487.299	95
487.517	97
487.735	101
487.953	98
488.171	93
488.389	97
488.607	104
488.825	96
489.043	95
489.261	95
489.479	88
489.696	98
489.914	98
490.132	110
490.35	113
490.568	107
490.786	94
491.003	102
491.221	113
491.439	103
491.657	97
491.874	116
492.092	117
492.31	98
492.527	98
492.745	100
492.963	99
493.18	122
493.398	100
493.615	103
493.833	100
494.05	105
494.268	102
494.485	87
494.703	92
494.92	104
495.138	102
495.355	101
495.573	93
495.79	98
496.008	103
496.225	104
496.442	106
496.66	127
496.877	161
497.094	147
497.312	119
497.529	114
497.746	101
497.963	93
498.181	95
498.398	98
498.615	92
498.832	113
499.049	106
499.267	134
499.484	162
499.701	122
499.918	114
500.135	101
500.352	109
500.569	81
500.786	107
501.003	107
501.22	83
501.437	98
501.654	96
501.871	96
502.088	87
502.305	89
502.522	100
502.739	97
502.956	95
503.172	89
503.389	84
503.606	94
503.823	87
504.04	89
504.256	98
504.473	92
504.69	112
504.907	118
505.123	117
505.34	101
505.557	101
505.773	104
505.99	103
506.207	107
506.423	119
506.64	82
506.856	89
507.073	95
507.289	106
507.506	101
507.722	100
507.939	91
508.155	98
508.372	96
508.588	84
508.805	81
509.021	90
509.238	93
509.454	132
509.67	166
509.887	108
510.103	101
510.319	100
510.536	124
510.752	108
510.968	112
511.184	103
511.401	89
511.617	102
511.833	101
512.049	93
512.265	90
512.481	88
512.698	102
512.914	99
513.13	95
513.346	103
513.562	102
513.778	104
513.994	85
514.21	99
514.426	134
514.642	175
514.858	121
515.074	91
515.29	104
515.506	98
515.721	96
515.937	102
516.153	93
516.369	92
516.585	102
516.801	88
517.016	97
517.232	95
517.448	107
517.664	109
517.879	98
518.095	97
518.311	100
518.527	99
518.742	108
518.958	133
519.173	169
519.389	112
519.605	113
519.82	99
520.036	110
520.251	85
520.467	94
520.682	92
520.898	77
521.113	100
521.329	104
521.544	110
521.76	95
521.975	107
522.19	92
522.406	105
522.621	90
522.836	89
523.052	106
523.267	93
523.482	76
523.698	90
523.913	80
524.128	101
524.343	99
524.559	90
524.774	91
524.989	100
525.204	115
525.419	95
525.634	90
525.849	81
526.064	86
526.28	98
526.495	95
526.71	109
526.925	73
527.14	95
527.355	84
527.57	95
527.785	96
527.999	82
528.214	100
528.429	89
528.644	88
528.859	115
529.074	94
529.289	94
529.503	100
529.718	109
529.933	86
530.148	91
530.363	84
530.577	87
530.792	84
531.007	101
531.221	102
531.436	95
531.651	93
531.865	81
532.08	92
532.295	102
532.509	149
532.724	122
532.938	96
533.153	87
533.367	98
533.582	104
533.796	99
534.011	106
534.225	86
534.44	103
534.654	95
534.868	95
535.083	88
535.297	89
535.511	81
535.726	83
535.94	95
536.154	100
536.369	86
536.583	91
536.797	99
537.011	96
537.225	88
537.44	83
537.654	79
537.868	92
538.082	82
538.296	95
538.51	89
538.724	109
538.938	98
539.153	97
539.367	88
539.581	93
539.795	106
540.009	94
540.222	106
540.436	101
540.65	94
540.864	98
541.078	97
541.292	131
541.506	202
541.72	197
541.934	124
542.147	105
542.361	111
542.575	92
542.789	93
543.002	100
543.216	107
543.43	99
543.644	112
543.857	96
544.071	83
544.285	90
544.498	97
544.712	97
544.925	93
545.139	93
545.352	86
545.566	106
545.779	87
545.993	106
546.206	99
546.42	105
546.633	110
546.847	90
547.06	113
547.274	106
547.487	100
547.7	103
547.914	92
548.127	90
548.34	100
548.554	85
548.767	103
548.98	91
549.193	95
549.407	96
549.62	106
549.833	77
550.046	93
550.259	109
550.473	91
550.686	86
550.899	105
551.112	95
551.325	94
551.538	100
551.751	98
551.964	74
552.177	89
552.39	93
552.603	113
552.816	103
553.029	97
553.242	96
553.455	103
553.667	101
553.88	110
554.093	81
554.306	103
554.519	85
554.732	96
554.944	105
555.157	99
555.37	90
555.583	80
555.795	86
556.008	117
556.221	149
556.433	117
556.646	106
556.859	93
557.071	110
557.284	118
557.496	104
557.709	100
557.921	110
558.134	93
558.346	94
558.559	103
558.771	88
558.984	94
559.196	105
559.409	98
559.621	90
559.833	96
560.046	100
560.258	99
560.47	108
560.683	101
560.895	105
561.107	91
561.32	79
561.532	92
561.744	107
561.956	102
562.168	92
562.381	106
562.593	116
562.805	140
563.017	165
563.229	259
563.441	592
563.653	185
563.865	100
564.077	106
564.289	115
564.501	98
564.713	99
564.925	94
565.137	86
565.349	103
565.561	75
565.773	95
565.985	105
566.197	104
566.408	91
566.62	99
566.832	105
567.044	99
567.255	96
567.467	95
567.679	91
567.891	113
568.102	165
568.314	241
568.526	158
568.737	116
568.949	107
569.161	104
569.372	97
569.584	100
569.795	93
570.007	101
570.218	124
570.43	152
570.641	103
570.853	93
571.064	94
571.276	100
571.487	90
571.698	95
571.91	93
572.121	80
572.333	103
572.544	88
572.755	139
572.966	201
573.178	137
573.389	118
573.6	95
573.811	81
574.023	91
574.234	90
574.445	87
574.656	92
574.867	89
575.078	80
575.289	94
575.501	94
575.712	97
575.923	86
576.134	86
576.345	90
576.556	104
576.767	96
576.978	83
577.188	98
577.399	86
577.61	103
577.821	87
578.032	93
578.243	102
578.454	98
578.665	95
578.875	85
579.086	83
579.297	85
579.508	72
579.718	83
579.929	92
580.14	91
580.35	91
580.561	86
580.772	94
580.982	96
581.193	98
581.403	91
581.614	97
581.825	94
582.035	100
582.246	101
582.456	89
582.667	88
582.877	111
583.087	115
583.298	91
583.508	90
583.719	88
583.929	79
584.139	85
584.35	77
584.56	87
584.77	84
584.981	97
585.191	99
585.401	92
585.611	99
585.821	93
586.032	90
586.242	91
586.452	87
586.662	94
586.872	92
587.082	90
587.292	98
587.502	89
587.713	94
587.923	72
588.133	96
588.343	85
588.553	89
588.762	98
588.972	138
589.182	386
589.392	307
589.602	141
589.812	272
590.022	193
590.232	101
590.441	82
590.651	105
590.861	83
591.071	91
591.281	76
591.49	81
591.7	80
591.91	81
592.119	87
592.329	89
592.539	84
592.748	90
592.958	104
593.167	81
593.377	86
593.587	92
593.796	96
594.006	82
594.215	82
594.424	86
594.634	87
594.843	80
595.053	94
595.262	86
595.472	95
595.681	105
595.89	87
596.1	90
596.309	77
596.518	85
596.727	97
596.937	102
597.146	90
597.355	89
597.564	91
597.774	85
597.983	82
598.192	81
598.401	107
598.61	96
598.819	88
599.028	85
599.237	76
599.446	88
599.655	105
599.864	78
600.073	98
600.282	83
600.491	85
600.7	83
600.909	98
601.118	84
601.327	101
601.536	98
601.745	84
601.953	125
602.162	151
602.371	118
602.58	97
602.789	79
602.997	92
603.206	99
603.415	104
603.623	89
603.832	103
604.041	102
604.249	108
604.458	94
604.666	92
604.875	90
605.084	95
605.292	77
605.501	83
605.709	106
605.918	105
606.126	81
606.334	116
606.543	117
606.751	130
606.96	164
607.168	193
607.376	135
607.585	92
607.793	95
608.001	81
608.21	104
608.418	90
608.626	86
608.834	93
609.043	85
609.251	83
609.459	84
609.667	89
609.875	104
610.083	86
610.291	82
610.499	105
610.707	75
610.916	78
611.124	91
611.332	73
611.54	89
611.748	82
611.955	81
612.163	86
612.371	94
612.579	97
612.787	85
612.995	86
613.203	86
613.411	91
613.618	91
613.826	80
614.034	90
614.242	81
614.449	88
614.657	101
614.865	88
615.072	94
615.28	109
615.488	90
615.695	119
615.903	92
616.111	103
616.318	89
616.526	86
616.733	91
616.941	99
617.148	93
617.356	89
617.563	98
617.771	86
617.978	93
618.185	82
618.393	94
618.6	81
618.807	101
619.015	95
619.222	82
619.429	98
619.637	96
619.844	78
620.051	98
620.258	94
620.466	94
620.673	87
620.88	87
621.087	99
621.294	94
621.501	78
621.708	84
621.915	94
622.122	93
622.329	95
622.536	101
622.743	91
622.95	95
623.157	96
623.364	83
623.571	80
623.778	83
623.985	94
624.192	90
624.399	96
624.606	95
624.812	94
625.019	92
625.226	87
625.433	97
625.639	82
625.846	80
626.053	94
626.259	79
626.466	85
626.673	81
626.879	87
627.086	90
627.293	87
627.499	88
627.706	87
627.912	82
628.119	73
628.325	94
628.532	93
628.738	79
628.945	91
629.151	95
629.357	90
629.564	88
629.77	78
629.976	75
630.183	78
630.389	79
630.595	85
630.802	85
631.008	87
631.214	85
631.42	76
631.627	90
631.833	89
632.039	85
632.245	94
632.451	78
632.657	76
632.863	89
633.069	83
633.275	97
633.481	107
633.688	85
633.893	75
634.099	102
634.305	80
634.511	75
634.717	97
634.923	103
635.129	131
635.335	119
635.541	99
635.747	102
635.952	87
636.158	79
636.364	102
636.57	86
636.775	83
636.981	88
637.187	82
637.392	94
637.598	101
637.804	82
638.009	75
638.215	78
638.421	82
638.626	81
638.832	68
639.037	74
639.243	96
639.448	80
639.654	92
639.859	83
640.065	86
640.27	79
640.475	82
640.681	87
640.886	67
641.091	83
641.297	74
641.502	90
641.707	83
641.913	90
642.118	83
642.323	81
642.528	102
642.733	80
642.939	86
643.144	84
643.349	99
643.554	102
643.759	88
643.964	85
644.169	81
644.374	85
644.579	94
644.784	82
644.989	80
645.194	85
645.399	90
645.604	97
645.809	86
646.014	90
646.219	72
646.423	82
646.628	79
646.833	91
647.038	82
647.243	89
647.447	94
647.652	72
647.857	81
648.062	85
648.266	84
648.471	75
648.676	88
648.88	88
649.085	88
649.289	75
649.494	77
649.698	86
649.903	85
650.107	100
650.312	84
650.516	88
650.721	73
650.925	72
651.13	99
651.334	89
651.539	82
651.743	88
651.947	91
652.152	93
652.356	86
652.56	109
652.764	87
652.969	95
653.173	84
653.377	73
653.581	80
653.785	91
653.99	76
654.194	96
654.398	80
654.602	85
654.806	83
655.01	83
655.214	77
655.418	82
655.622	94
655.826	86
656.03	88
656.234	83
656.438	81
656.642	81
656.846	95
657.049	77
657.253	85
657.457	77
657.661	79
657.865	75
658.068	87
658.272	76
658.476	93
658.68	79
658.883	95
659.087	83
659.291	85
659.494	83
659.698	75
659.901	80
660.105	71
660.309	83
660.512	87
660.716	85
660.919	80
661.123	88
661.326	75
661.53	76
661.733	82
661.936	92
662.14	82
662.343	83
662.546	80
662.75	77
662.953	82
663.156	79
663.36	88
663.563	94
663.766	80
663.969	78
664.173	83
664.376	75
664.579	72
664.782	71
664.985	74
665.188	75
665.391	85
665.594	77
665.797	97
666	80
666.203	80
666.406	77
666.609	82
666.812	81
667.015	83
667.218	84
667.421	86
667.624	89
667.827	84
668.03	86
668.232	86
668.435	82
668.638	76
668.841	85
669.043	70
669.246	85
669.449	90
669.651	73
669.854	81
670.057	80
670.259	82
670.462	78
670.665	90
670.867	89
671.07	80
671.272	59
671.475	74
671.677	72
671.88	81
672.082	83
672.284	93
672.487	86
672.689	76
672.892	81
