Data from SnStandardFlinnAPT0064_LampEnergy5.5_LIBS07252019.E.O._I.C._HRD10591_15-16-40-492.txt Node
Date: Thu Jul 25 15:16:40 EDT 2019
User: cochatt
Spectrometer: HR+D1059
Trigger mode: 1
Integration Time (sec): 1.000000E-1
Scans to average: 1
Electric dark correction enabled: true
Nonlinearity correction enabled: false
Boxcar width: 0
XAxis mode: Wavelengths
Number of Pixels in Spectrum: 2048
>>>>>Begin Spectral Data<<<<<
223.165	-29
223.4	-29
223.635	-29
223.869	-22
224.104	-15
224.338	-11
224.573	-18
224.808	-12
225.042	-14
225.277	8
225.511	-3
225.746	5
225.98	2
226.215	-3
226.449	18
226.683	20
226.918	35
227.152	39
227.387	26
227.621	42
227.856	50
228.09	48
228.324	33
228.559	53
228.793	70
229.027	151
229.262	159
229.496	151
229.73	143
229.964	167
230.199	162
230.433	155
230.667	161
230.901	169
231.136	171
231.37	183
231.604	182
231.838	211
232.072	236
232.306	247
232.541	227
232.775	180
233.009	204
233.243	213
233.477	208
233.711	243
233.945	267
234.179	221
234.413	203
234.647	206
234.881	216
235.115	239
235.349	275
235.583	351
235.817	449
236.051	439
236.285	297
236.519	247
236.753	231
236.987	244
237.221	230
237.455	240
237.689	211
237.922	214
238.156	227
238.39	235
238.624	228
238.858	232
239.091	212
239.325	225
239.559	241
239.793	251
240.027	256
240.26	253
240.494	240
240.728	263
240.961	258
241.195	302
241.429	299
241.662	316
241.896	335
242.13	396
242.363	523
242.597	661
242.83	589
243.064	611
243.298	737
243.531	616
243.765	411
243.998	340
244.232	314
244.465	285
244.699	293
244.932	296
245.166	280
245.399	283
245.633	310
245.866	307
246.099	308
246.333	303
246.566	299
246.8	281
247.033	301
247.266	294
247.5	303
247.733	297
247.966	328
248.2	347
248.433	360
248.666	394
248.899	391
249.133	338
249.366	358
249.599	377
249.832	439
250.066	449
250.299	374
250.532	335
250.765	321
250.998	326
251.231	332
251.465	337
251.698	330
251.931	329
252.164	347
252.397	312
252.63	345
252.863	339
253.096	351
253.329	353
253.562	355
253.795	353
254.028	363
254.261	352
254.494	394
254.727	427
254.96	510
255.193	511
255.426	415
255.659	381
255.892	364
256.124	375
256.357	381
256.59	381
256.823	416
257.056	470
257.289	547
257.521	583
257.754	491
257.987	424
258.22	413
258.452	378
258.685	393
258.918	401
259.151	409
259.383	449
259.616	507
259.849	511
260.081	456
260.314	447
260.547	419
260.779	407
261.012	412
261.244	416
261.477	436
261.71	433
261.942	454
262.175	443
262.407	459
262.64	467
262.872	477
263.105	480
263.337	524
263.57	569
263.802	565
264.035	589
264.267	602
264.499	576
264.732	611
264.964	620
265.197	607
265.429	639
265.661	659
265.894	656
266.126	721
266.358	847
266.591	795
266.823	688
267.055	616
267.287	577
267.52	581
267.752	551
267.984	549
268.216	561
268.448	537
268.681	544
268.913	522
269.145	551
269.377	560
269.609	550
269.841	560
270.073	597
270.306	672
270.538	899
270.77	1303
271.002	1596
271.234	1115
271.466	737
271.698	632
271.93	605
272.162	581
272.394	537
272.626	524
272.858	549
273.09	509
273.322	537
273.553	530
273.785	519
274.017	527
274.249	536
274.481	541
274.713	545
274.945	529
275.176	523
275.408	536
275.64	535
275.872	520
276.104	533
276.335	535
276.567	548
276.799	527
277.031	579
277.262	546
277.494	577
277.726	633
277.957	735
278.189	823
278.421	773
278.652	703
278.884	663
279.115	620
279.347	605
279.579	595
279.81	592
280.042	587
280.273	596
280.505	612
280.736	615
280.968	677
281.199	705
281.431	776
281.662	813
281.894	728
282.125	672
282.356	680
282.588	689
282.819	708
283.051	735
283.282	841
283.513	1012
283.745	1458
283.976	2296
284.207	3267
284.439	2892
284.67	1745
284.901	1397
285.132	1352
285.364	1279
285.595	1015
285.826	955
286.057	1133
286.288	1572
286.52	2095
286.751	1862
286.982	1171
287.213	880
287.444	791
287.675	773
287.906	721
288.138	709
288.369	695
288.6	691
288.831	708
289.062	708
289.293	697
289.524	698
289.755	711
289.986	712
290.217	715
290.448	711
290.679	695
290.91	720
291.141	747
291.371	786
291.602	827
291.833	757
292.064	711
292.295	703
292.526	685
292.757	677
292.987	668
293.218	686
293.449	669
293.68	687
293.91	689
294.141	667
294.372	641
294.603	667
294.833	651
295.064	654
295.295	659
295.525	672
295.756	663
295.987	664
296.217	669
296.448	677
296.679	660
296.909	659
297.14	676
297.37	707
297.601	692
297.831	675
298.062	703
298.292	671
298.523	693
298.753	688
298.984	715
299.214	711
299.445	734
299.675	721
299.905	752
300.136	800
300.366	882
300.597	1137
300.827	1522
301.057	2044
301.288	2019
301.518	1288
301.748	1017
301.979	911
302.209	904
302.439	914
302.669	952
302.9	1190
303.13	1656
303.36	2355
303.59	3181
303.82	2801
304.051	1579
304.281	1135
304.511	1019
304.741	916
304.971	867
305.201	826
305.431	811
305.661	805
305.891	789
306.121	791
306.352	768
306.582	760
306.812	754
307.042	778
307.272	769
307.502	770
307.731	773
307.961	791
308.191	760
308.421	783
308.651	776
308.881	759
309.111	758
309.341	737
309.571	763
309.8	783
310.03	771
310.26	776
310.49	791
310.72	767
310.949	755
311.179	787
311.409	794
311.639	823
311.868	827
312.098	806
312.328	806
312.557	802
312.787	818
313.017	801
313.246	827
313.476	857
313.706	870
313.935	899
314.165	941
314.394	983
314.624	920
314.853	901
315.083	891
315.312	915
315.542	907
315.771	890
316.001	924
316.23	950
316.46	1004
316.689	1080
316.919	1260
317.148	1826
317.377	2869
317.607	4284
317.836	4312
318.065	2505
318.295	1605
318.524	1269
318.753	1131
318.983	1055
319.212	1002
319.441	1007
319.67	994
319.9	935
320.129	977
320.358	961
320.587	951
320.816	953
321.046	952
321.275	965
321.504	988
321.733	987
321.962	1045
322.191	1010
322.42	1029
322.649	999
322.878	1000
323.108	1023
323.337	1020
323.566	1032
323.795	1090
324.024	1054
324.253	1118
324.482	1139
324.71	1164
324.939	1241
325.168	1265
325.397	1319
325.626	1592
325.855	2245
326.084	3456
326.313	5188
326.542	5465
326.77	3432
326.999	2193
327.228	1842
327.457	1775
327.686	1770
327.914	1870
328.143	2141
328.372	2507
328.6	2674
328.829	2464
329.058	2176
329.287	1951
329.515	1747
329.744	1651
329.972	1558
330.201	1568
330.43	1479
330.658	1468
330.887	1449
331.115	1391
331.344	1383
331.572	1418
331.801	1375
332.03	1382
332.258	1406
332.486	1465
332.715	1669
332.943	2064
333.172	2502
333.4	2447
333.629	1904
333.857	1732
334.085	1730
334.314	1825
334.542	1933
334.771	2231
334.999	2667
335.227	3223
335.455	3594
335.684	3304
335.912	2791
336.14	2450
336.369	2203
336.597	2039
336.825	1901
337.053	1741
337.281	1698
337.51	1583
337.738	1527
337.966	1469
338.194	1421
338.422	1403
338.65	1360
338.878	1336
339.106	1317
339.334	1313
339.562	1287
339.79	1267
340.018	1247
340.246	1231
340.474	1239
340.702	1222
340.93	1219
341.158	1244
341.386	1213
341.614	1230
341.842	1227
342.07	1167
342.298	1165
342.526	1153
342.754	1145
342.981	1114
343.209	1105
343.437	1161
343.665	1141
343.893	1185
344.12	1135
344.348	1153
344.576	1124
344.804	1129
345.031	1099
345.259	1066
345.487	1079
345.714	1068
345.942	1077
346.17	1028
346.397	1060
346.625	1060
346.853	1061
347.08	999
347.308	1023
347.535	1040
347.763	1061
347.99	1014
348.218	1000
348.445	1031
348.673	997
348.9	1053
349.128	987
349.355	1008
349.583	1041
349.81	1013
350.037	1006
350.265	984
350.492	1022
350.72	1012
350.947	1019
351.174	984
351.402	987
351.629	996
351.856	990
352.083	1012
352.311	1010
352.538	1005
352.765	988
352.992	997
353.22	988
353.447	994
353.674	1032
353.901	987
354.128	1016
354.355	989
354.583	991
354.81	1001
355.037	1017
355.264	996
355.491	987
355.718	1032
355.945	1023
356.172	1020
356.399	1029
356.626	1053
356.853	1017
357.08	1041
357.307	1060
357.534	1062
357.761	1057
357.988	1051
358.215	1066
358.441	1029
358.668	1060
358.895	1057
359.122	1023
359.349	1051
359.576	1054
359.802	1023
360.029	1073
360.256	1065
360.483	1079
360.709	1085
360.936	1037
361.163	1048
361.39	1051
361.616	1059
361.843	1090
362.07	1080
362.296	1085
362.523	1059
362.749	1043
362.976	1048
363.203	1057
363.429	1048
363.656	1046
363.882	1069
364.109	1067
364.335	1020
364.562	1051
364.788	1070
365.015	1077
365.241	1098
365.468	1137
365.694	1173
365.92	1125
366.147	1092
366.373	1104
366.599	1085
366.826	1047
367.052	1059
367.278	1108
367.505	1083
367.731	1093
367.957	1102
368.184	1091
368.41	1105
368.636	1104
368.862	1115
369.089	1087
369.315	1093
369.541	1097
369.767	1104
369.993	1078
370.219	1090
370.445	1126
370.672	1147
370.898	1101
371.124	1108
371.35	1143
371.576	1143
371.802	1132
372.028	1129
372.254	1133
372.48	1161
372.706	1186
372.932	1181
373.158	1123
373.384	1166
373.61	1169
373.835	1188
374.061	1191
374.287	1149
374.513	1188
374.739	1203
374.965	1229
375.191	1196
375.416	1211
375.642	1200
375.868	1197
376.094	1202
376.319	1195
376.545	1160
376.771	1172
376.997	1140
377.222	1166
377.448	1147
377.674	1142
377.899	1177
378.125	1156
378.35	1180
378.576	1141
378.802	1167
379.027	1182
379.253	1196
379.478	1243
379.704	1451
379.929	2051
380.155	3037
380.38	3237
380.606	1972
380.831	1455
381.057	1272
381.282	1227
381.507	1175
381.733	1154
381.958	1127
382.184	1155
382.409	1171
382.634	1145
382.86	1134
383.085	1160
383.31	1161
383.535	1127
383.761	1136
383.986	1167
384.211	1162
384.436	1161
384.662	1177
384.887	1180
385.112	1169
385.337	1162
385.562	1162
385.787	1182
386.013	1183
386.238	1195
386.463	1210
386.688	1185
386.913	1167
387.138	1171
387.363	1157
387.588	1138
387.813	1173
388.038	1160
388.263	1174
388.488	1215
388.713	1174
388.938	1187
389.163	1159
389.387	1154
389.612	1163
389.837	1167
390.062	1166
390.287	1174
390.512	1168
390.736	1184
390.961	1204
391.186	1195
391.411	1203
391.636	1219
391.86	1238
392.085	1275
392.31	1220
392.534	1198
392.759	1231
392.984	1191
393.208	1232
393.433	1187
393.658	1213
393.882	1193
394.107	1195
394.331	1205
394.556	1211
394.78	1204
395.005	1201
395.229	1199
395.454	1228
395.678	1201
395.903	1227
396.127	1243
396.352	1204
396.576	1211
396.801	1230
397.025	1250
397.249	1259
397.474	1234
397.698	1201
397.922	1253
398.147	1268
398.371	1268
398.595	1271
398.82	1343
399.044	1377
399.268	1447
399.492	1517
399.717	1572
399.941	1567
400.165	1486
400.389	1447
400.613	1405
400.837	1355
401.062	1331
401.286	1286
401.51	1323
401.734	1289
401.958	1303
402.182	1314
402.406	1300
402.63	1323
402.854	1305
403.078	1334
403.302	1311
403.526	1346
403.75	1367
403.974	1343
404.198	1347
404.422	1360
404.645	1310
404.869	1345
405.093	1348
405.317	1331
405.541	1341
405.765	1409
405.988	1384
406.212	1393
406.436	1359
406.66	1391
406.883	1381
407.107	1413
407.331	1453
407.555	1455
407.778	1459
408.002	1441
408.226	1429
408.449	1464
408.673	1422
408.896	1383
409.12	1374
409.344	1368
409.567	1352
409.791	1362
410.014	1349
410.238	1343
410.461	1362
410.685	1343
410.908	1331
411.132	1328
411.355	1311
411.578	1299
411.802	1294
412.025	1280
412.249	1321
412.472	1332
412.695	1244
412.919	1257
413.142	1323
413.365	1280
413.589	1276
413.812	1253
414.035	1275
414.258	1251
414.482	1269
414.705	1296
414.928	1275
415.151	1226
415.374	1264
415.597	1243
415.821	1235
416.044	1252
416.267	1225
416.49	1225
416.713	1192
416.936	1239
417.159	1238
417.382	1236
417.605	1215
417.828	1200
418.051	1222
418.274	1255
418.497	1200
418.72	1235
418.943	1232
419.166	1329
419.389	1403
419.611	1355
419.834	1299
420.057	1282
420.28	1317
420.503	1224
420.726	1206
420.948	1248
421.171	1221
421.394	1263
421.617	1259
421.839	1247
422.062	1256
422.285	1214
422.507	1264
422.73	1263
422.953	1277
423.175	1299
423.398	1286
423.621	1259
423.843	1221
424.066	1261
424.288	1247
424.511	1224
424.733	1254
424.956	1224
425.178	1222
425.401	1231
425.623	1234
425.846	1214
426.068	1227
426.291	1218
426.513	1183
426.735	1187
426.958	1203
427.18	1139
427.402	1201
427.625	1197
427.847	1135
428.069	1142
428.292	1153
428.514	1151
428.736	1153
428.958	1127
429.181	1100
429.403	1136
429.625	1133
429.847	1145
430.069	1131
430.292	1203
430.514	1193
430.736	1224
430.958	1175
431.18	1113
431.402	1153
431.624	1108
431.846	1113
432.068	1115
432.29	1133
432.512	1097
432.734	1099
432.956	1114
433.178	1157
433.4	1148
433.622	1165
433.844	1167
434.066	1161
434.287	1141
434.509	1135
434.731	1159
434.953	1171
435.175	1176
435.397	1204
435.618	1202
435.84	1162
436.062	1134
436.284	1140
436.505	1149
436.727	1153
436.949	1122
437.17	1135
437.392	1152
437.614	1099
437.835	1086
438.057	1095
438.278	1089
438.5	1087
438.721	1094
438.943	1156
439.165	1199
439.386	1211
439.608	1173
439.829	1164
440.05	1222
440.272	1253
440.493	1176
440.715	1135
440.936	1164
441.158	1192
441.379	1219
441.6	1239
441.822	1253
442.043	1328
442.264	1317
442.486	1277
442.707	1228
442.928	1221
443.149	1223
443.371	1235
443.592	1237
443.813	1229
444.034	1182
444.255	1248
444.476	1288
444.698	1285
444.919	1323
445.14	1382
445.361	1317
445.582	1257
445.803	1250
446.024	1218
446.245	1208
446.466	1234
446.687	1201
446.908	1237
447.129	1179
447.35	1175
447.571	1165
447.792	1143
448.013	1110
448.234	1117
448.455	1102
448.675	1149
448.896	1167
449.117	1177
449.338	1296
449.559	1331
449.779	1207
450	1096
450.221	1112
450.442	1114
450.662	1100
450.883	1084
451.104	1102
451.324	1095
451.545	1071
451.766	1086
451.986	1111
452.207	1208
452.428	1429
452.648	1987
452.869	1715
453.089	1279
453.31	1203
453.53	1216
453.751	1247
453.971	1339
454.192	1301
454.412	1116
454.633	1059
454.853	1094
455.073	1062
455.294	1040
455.514	1025
455.734	1037
455.955	1024
456.175	1055
456.395	1031
456.616	1046
456.836	1079
457.056	1076
457.276	1043
457.497	1097
457.717	1095
457.937	1116
458.157	1073
458.377	1096
458.598	1083
458.818	1126
459.038	1105
459.258	1108
459.478	1120
459.698	1141
459.918	1173
460.138	1173
460.358	1205
460.578	1224
460.798	1215
461.018	1240
461.238	1229
461.458	1241
461.678	1245
461.898	1303
462.118	1296
462.338	1326
462.558	1317
462.777	1334
462.997	1399
463.217	1441
463.437	1495
463.657	1517
463.876	1497
464.096	1407
464.316	1343
464.536	1347
464.755	1309
464.975	1271
465.195	1256
465.414	1197
465.634	1173
465.854	1195
466.073	1182
466.293	1137
466.512	1126
466.732	1170
466.951	1170
467.171	1294
467.391	1245
467.61	1187
467.829	1148
468.049	1119
468.268	1101
468.488	1109
468.707	1108
468.927	1090
469.146	1091
469.365	1144
469.585	1124
469.804	1167
470.023	1172
470.243	1205
470.462	1195
470.681	1299
470.901	1367
471.12	1561
471.339	1602
471.558	1351
471.777	1231
471.997	1170
472.216	1149
472.435	1155
472.654	1116
472.873	1111
473.092	1131
473.311	1099
473.53	1115
473.749	1154
473.968	1151
474.187	1145
474.406	1099
474.625	1141
474.844	1124
475.063	1161
475.282	1118
475.501	1093
475.72	1142
475.939	1138
476.158	1182
476.377	1165
476.596	1152
476.814	1185
477.033	1146
477.252	1173
477.471	1241
477.69	1258
477.908	1267
478.127	1297
478.346	1308
478.564	1302
478.783	1310
479.002	1323
479.22	1353
479.439	1306
479.658	1348
479.876	1312
480.095	1319
480.313	1364
480.532	1398
480.751	1369
480.969	1359
481.188	1324
481.406	1310
481.624	1336
481.843	1320
482.061	1311
482.28	1342
482.498	1327
482.717	1336
482.935	1335
483.153	1389
483.372	1399
483.59	1424
483.808	1435
484.027	1456
484.245	1512
484.463	1673
484.681	1847
484.9	1717
485.118	1583
485.336	1551
485.554	1556
485.772	1681
485.99	1905
486.209	2018
486.427	1699
486.645	1548
486.863	1486
487.081	1467
487.299	1407
487.517	1419
487.735	1464
487.953	1459
488.171	1472
488.389	1406
488.607	1403
488.825	1379
489.043	1379
489.261	1363
489.479	1375
489.696	1329
489.914	1380
490.132	1379
490.35	1389
490.568	1426
490.786	1441
491.003	1474
491.221	1483
491.439	1516
491.657	1477
491.874	1479
492.092	1499
492.31	1538
492.527	1510
492.745	1481
492.963	1461
493.18	1479
493.398	1461
493.615	1479
493.833	1492
494.05	1488
494.268	1491
494.485	1489
494.703	1487
494.92	1457
495.138	1494
495.355	1557
495.573	1508
495.79	1497
496.008	1509
496.225	1487
496.442	1537
496.66	1533
496.877	1635
497.094	1620
497.312	1554
497.529	1618
497.746	1613
497.963	1585
498.181	1639
498.398	1694
498.615	1731
498.832	1812
499.049	1890
499.267	1991
499.484	2142
499.701	2151
499.918	2204
500.135	2343
500.352	2466
500.569	2478
500.786	2473
501.003	2375
501.22	2251
501.437	2190
501.654	2052
501.871	1965
502.088	1873
502.305	1839
502.522	1751
502.739	1701
502.956	1684
503.172	1583
503.389	1559
503.606	1563
503.823	1491
504.04	1521
504.256	1546
504.473	1500
504.69	1511
504.907	1459
505.123	1498
505.34	1415
505.557	1395
505.773	1399
505.99	1355
506.207	1334
506.423	1328
506.64	1333
506.856	1327
507.073	1335
507.289	1296
507.506	1305
507.722	1292
507.939	1276
508.155	1294
508.372	1261
508.588	1288
508.805	1283
509.021	1225
509.238	1297
509.454	1350
509.67	1426
509.887	1331
510.103	1249
510.319	1208
510.536	1248
510.752	1242
510.968	1243
511.184	1233
511.401	1223
511.617	1216
511.833	1181
512.049	1185
512.265	1184
512.481	1164
512.698	1189
512.914	1168
513.13	1173
513.346	1209
513.562	1197
513.778	1207
513.994	1206
514.21	1251
514.426	1307
514.642	1335
514.858	1280
515.074	1239
515.29	1240
515.506	1261
515.721	1208
515.937	1248
516.153	1201
516.369	1262
516.585	1263
516.801	1300
517.016	1298
517.232	1340
517.448	1374
517.664	1365
517.879	1423
518.095	1375
518.311	1374
518.527	1345
518.742	1339
518.958	1323
519.173	1344
519.389	1315
519.605	1284
519.82	1255
520.036	1253
520.251	1200
520.467	1251
520.682	1187
520.898	1189
521.113	1208
521.329	1199
521.544	1167
521.76	1182
521.975	1184
522.19	1180
522.406	1171
522.621	1174
522.836	1170
523.052	1153
523.267	1131
523.482	1159
523.698	1166
523.913	1165
524.128	1144
524.343	1182
524.559	1181
524.774	1135
524.989	1159
525.204	1125
525.419	1127
525.634	1156
525.849	1121
526.064	1181
526.28	1170
526.495	1149
526.71	1140
526.925	1139
527.14	1147
527.355	1127
527.57	1157
527.785	1182
527.999	1159
528.214	1167
528.429	1216
528.644	1199
528.859	1232
529.074	1250
529.289	1240
529.503	1243
529.718	1244
529.933	1243
530.148	1201
530.363	1229
530.577	1205
530.792	1214
531.007	1216
531.221	1260
531.436	1211
531.651	1252
531.865	1244
532.08	1300
532.295	1300
532.509	1379
532.724	1376
532.938	1377
533.153	1411
533.367	1517
533.582	1560
533.796	1509
534.011	1451
534.225	1426
534.44	1377
534.654	1361
534.868	1344
535.083	1346
535.297	1356
535.511	1286
535.726	1303
535.94	1249
536.154	1256
536.369	1236
536.583	1240
536.797	1198
537.011	1204
537.225	1182
537.44	1152
537.654	1197
537.868	1180
538.082	1161
538.296	1153
538.51	1155
538.724	1184
538.938	1153
539.153	1160
539.367	1167
539.581	1141
539.795	1128
540.009	1096
540.222	1091
540.436	1096
540.65	1127
540.864	1131
541.078	1154
541.292	1253
541.506	1461
541.72	1511
541.934	1336
542.147	1281
542.361	1211
542.575	1157
542.789	1133
543.002	1103
543.216	1096
543.43	1085
543.644	1090
543.857	1116
544.071	1127
544.285	1129
544.498	1147
544.712	1112
544.925	1128
545.139	1126
545.352	1142
545.566	1151
545.779	1115
545.993	1138
546.206	1145
546.42	1137
546.633	1117
546.847	1155
547.06	1102
547.274	1104
547.487	1112
547.7	1106
547.914	1128
548.127	1136
548.34	1152
548.554	1128
548.767	1163
548.98	1115
549.193	1108
549.407	1140
549.62	1144
549.833	1166
550.046	1117
550.259	1120
550.473	1116
550.686	1140
550.899	1120
551.112	1129
551.325	1124
551.538	1115
551.751	1080
551.964	1120
552.177	1117
552.39	1131
552.603	1191
552.816	1167
553.029	1192
553.242	1231
553.455	1225
553.667	1267
553.88	1225
554.093	1203
554.306	1221
554.519	1231
554.732	1248
554.944	1289
555.157	1286
555.37	1299
555.583	1328
555.795	1381
556.008	1440
556.221	1591
556.433	1636
556.646	1637
556.859	1604
557.071	1570
557.284	1564
557.496	1543
557.709	1517
557.921	1495
558.134	1481
558.346	1534
558.559	1541
558.771	1637
558.984	1708
559.196	1812
559.409	1754
559.621	1624
559.833	1578
560.046	1495
560.258	1444
560.47	1390
560.683	1360
560.895	1283
561.107	1267
561.32	1215
561.532	1179
561.744	1195
561.956	1171
562.168	1151
562.381	1128
562.593	1136
562.805	1149
563.017	1135
563.229	1170
563.441	1285
563.653	1155
563.865	1069
564.077	1046
564.289	1045
564.501	1032
564.713	1049
564.925	1042
565.137	1039
565.349	1035
565.561	1034
565.773	1069
565.985	1051
566.197	1048
566.408	1082
566.62	1107
566.832	1113
567.044	1164
567.255	1181
567.467	1158
567.679	1184
567.891	1225
568.102	1377
568.314	1540
568.526	1311
568.737	1165
568.949	1063
569.161	1037
569.372	964
569.584	928
569.795	914
570.007	951
570.218	934
570.43	957
570.641	909
570.853	903
571.064	874
571.276	878
571.487	824
571.698	860
571.91	870
572.121	837
572.333	815
572.544	842
572.755	872
572.966	1006
573.178	927
573.389	823
573.6	775
573.811	792
574.023	764
574.234	763
574.445	760
574.656	749
574.867	739
575.078	756
575.289	751
575.501	742
575.712	754
575.923	741
576.134	740
576.345	768
576.556	758
576.767	752
576.978	748
577.188	767
577.399	769
577.61	739
577.821	767
578.032	774
578.243	765
578.454	783
578.665	779
578.875	814
579.086	838
579.297	837
579.508	906
579.718	979
579.929	1045
580.14	1203
580.35	1233
580.561	1145
580.772	1100
580.982	1017
581.193	965
581.403	920
581.614	880
581.825	863
582.035	843
582.246	816
582.456	771
582.667	764
582.877	766
583.087	732
583.298	699
583.508	702
583.719	703
583.929	672
584.139	672
584.35	654
584.56	646
584.77	642
584.981	630
585.191	630
585.401	615
585.611	643
585.821	610
586.032	602
586.242	599
586.452	579
586.662	591
586.872	603
587.082	555
587.292	585
587.502	572
587.713	561
587.923	582
588.133	581
588.343	589
588.553	545
588.762	554
588.972	555
589.182	568
589.392	565
589.602	549
589.812	591
590.022	539
590.232	536
590.441	539
590.651	543
590.861	522
591.071	530
591.281	528
591.49	533
591.7	523
591.91	526
592.119	552
592.329	551
592.539	559
592.748	541
592.958	548
593.167	568
593.377	564
593.587	577
593.796	579
594.006	552
594.215	572
594.424	579
594.634	552
594.843	571
595.053	536
595.262	526
595.472	525
595.681	511
595.89	513
596.1	520
596.309	509
596.518	495
596.727	519
596.937	483
597.146	468
597.355	485
597.564	449
597.774	455
597.983	465
598.192	459
598.401	470
598.61	456
598.819	446
599.028	447
599.237	449
599.446	453
599.655	469
599.864	441
600.073	446
600.282	434
600.491	451
600.7	426
600.909	460
601.118	421
601.327	447
601.536	437
601.745	443
601.953	497
602.162	573
602.371	503
602.58	484
602.789	469
602.997	452
603.206	447
603.415	441
603.623	439
603.832	445
604.041	452
604.249	425
604.458	423
604.666	432
604.875	416
605.084	419
605.292	429
605.501	432
605.709	425
605.918	445
606.126	451
606.334	426
606.543	417
606.751	451
606.96	537
607.168	587
607.376	498
607.585	463
607.793	456
608.001	417
608.21	436
608.418	433
608.626	432
608.834	415
609.043	388
609.251	420
609.459	404
609.667	407
609.875	420
610.083	405
610.291	394
610.499	388
610.707	396
610.916	400
611.124	409
611.332	411
611.54	385
611.748	416
611.955	393
612.163	404
612.371	391
612.579	387
612.787	413
612.995	393
613.203	408
613.411	397
613.618	397
613.826	386
614.034	400
614.242	364
614.449	380
614.657	385
614.865	399
615.072	412
615.28	410
615.488	403
615.695	396
615.903	399
616.111	405
616.318	390
616.526	379
616.733	376
616.941	389
617.148	387
617.356	380
617.563	388
617.771	384
617.978	374
618.185	353
618.393	365
618.6	371
618.807	397
619.015	364
619.222	377
619.429	361
619.637	352
619.844	344
620.051	356
620.258	344
620.466	358
620.673	361
620.88	364
621.087	350
621.294	345
621.501	355
621.708	327
621.915	360
622.122	360
622.329	358
622.536	357
622.743	347
622.95	328
623.157	343
623.364	344
623.571	341
623.778	353
623.985	332
624.192	328
624.399	332
624.606	338
624.812	334
625.019	323
625.226	325
625.433	335
625.639	309
625.846	336
626.053	343
626.259	320
626.466	304
626.673	321
626.879	323
627.086	313
627.293	317
627.499	313
627.706	319
627.912	339
628.119	333
628.325	321
628.532	335
628.738	324
628.945	312
629.151	311
629.357	306
629.564	313
629.77	315
629.976	308
630.183	294
630.389	300
630.595	305
630.802	315
631.008	293
631.214	300
631.42	302
631.627	305
631.833	296
632.039	297
632.245	296
632.451	288
632.657	305
632.863	294
633.069	288
633.275	316
633.481	307
633.688	308
633.893	279
634.099	290
634.305	311
634.511	289
634.717	304
634.923	302
635.129	350
635.335	385
635.541	356
635.747	340
635.952	324
636.158	324
636.364	315
636.57	297
636.775	307
636.981	285
637.187	289
637.392	293
637.598	278
637.804	285
638.009	307
638.215	288
638.421	320
638.626	309
638.832	309
639.037	307
639.243	288
639.448	311
639.654	304
639.859	311
640.065	317
640.27	295
640.475	319
640.681	308
640.886	308
641.091	319
641.297	305
641.502	301
641.707	318
641.913	337
642.118	328
642.323	334
642.528	335
642.733	345
642.939	350
643.144	352
643.349	355
643.554	376
643.759	373
643.964	383
644.169	407
644.374	438
644.579	469
644.784	505
644.989	572
645.194	597
645.399	719
645.604	771
645.809	593
646.014	477
646.219	429
646.423	377
646.628	360
646.833	351
647.038	325
647.243	327
647.447	311
647.652	327
647.857	304
648.062	283
648.266	273
648.471	289
648.676	281
648.88	276
649.085	291
649.289	281
649.494	260
649.698	279
649.903	273
650.107	248
650.312	260
650.516	243
650.721	243
650.925	232
651.13	225
651.334	224
651.539	213
651.743	237
651.947	239
652.152	224
652.356	235
652.56	240
652.764	276
652.969	251
653.173	231
653.377	221
653.581	209
653.785	206
653.99	200
654.194	208
654.398	197
654.602	215
654.806	197
655.01	191
655.214	188
655.418	190
655.622	209
655.826	193
656.03	208
656.234	199
656.438	217
656.642	217
656.846	219
657.049	201
657.253	209
657.457	181
657.661	183
657.865	166
658.068	162
658.272	180
658.476	141
658.68	143
658.883	133
659.087	136
659.291	129
659.494	119
659.698	131
659.901	117
660.105	125
660.309	100
660.512	112
660.716	119
660.919	116
661.123	115
661.326	101
661.53	112
661.733	91
661.936	90
662.14	90
662.343	95
662.546	81
662.75	87
662.953	80
663.156	81
663.36	91
663.563	68
663.766	68
663.969	96
664.173	98
664.376	83
664.579	70
664.782	87
664.985	57
665.188	70
665.391	93
665.594	88
665.797	76
666	79
666.203	79
666.406	73
666.609	89
666.812	81
667.015	72
667.218	86
667.421	91
667.624	69
667.827	100
668.03	72
668.232	79
668.435	97
668.638	80
668.841	84
669.043	74
669.246	67
669.449	91
669.651	81
669.854	66
670.057	69
670.259	84
670.462	80
670.665	78
670.867	84
671.07	68
671.272	75
671.475	76
671.677	73
671.88	64
672.082	85
672.284	85
672.487	78
672.689	83
672.892	81
