Data from SnStandardFlinnAPT0064_QswitchEnergy10_LIBS07252019.E.O._I.C._HRD10591_15-26-55-973.txt Node
Date: Thu Jul 25 15:26:55 EDT 2019
User: cochatt
Spectrometer: HR+D1059
Trigger mode: 1
Integration Time (sec): 1.000000E-1
Scans to average: 1
Electric dark correction enabled: true
Nonlinearity correction enabled: false
Boxcar width: 0
XAxis mode: Wavelengths
Number of Pixels in Spectrum: 2048
>>>>>Begin Spectral Data<<<<<
223.165	-21
223.4	-21
223.635	-21
223.869	-4
224.104	-5
224.338	-14
224.573	-8
224.808	-14
225.042	-12
225.277	-10
225.511	-19
225.746	2
225.98	-2
226.215	6
226.449	18
226.683	21
226.918	32
227.152	30
227.387	45
227.621	36
227.856	42
228.09	26
228.324	55
228.559	43
228.793	54
229.027	67
229.262	71
229.496	74
229.73	71
229.964	70
230.199	71
230.433	67
230.667	81
230.901	84
231.136	81
231.37	102
231.604	89
231.838	99
232.072	118
232.306	116
232.541	96
232.775	87
233.009	77
233.243	82
233.477	91
233.711	96
233.945	109
234.179	103
234.413	88
234.647	86
234.881	86
235.115	93
235.349	97
235.583	103
235.817	118
236.051	136
236.285	97
236.519	78
236.753	74
236.987	76
237.221	99
237.455	85
237.689	74
237.922	75
238.156	78
238.39	102
238.624	83
238.858	52
239.091	80
239.325	83
239.559	82
239.793	97
240.027	85
240.26	83
240.494	84
240.728	83
240.961	83
241.195	92
241.429	91
241.662	71
241.896	94
242.13	87
242.363	115
242.597	180
242.83	134
243.064	137
243.298	160
243.531	147
243.765	101
243.998	89
244.232	94
244.465	90
244.699	73
244.932	98
245.166	96
245.399	90
245.633	96
245.866	78
246.099	94
246.333	90
246.566	95
246.8	89
247.033	81
247.266	96
247.5	82
247.733	76
247.966	91
248.2	101
248.433	106
248.666	139
248.899	118
249.133	96
249.366	97
249.599	102
249.832	125
250.066	116
250.299	101
250.532	100
250.765	80
250.998	85
251.231	81
251.465	80
251.698	75
251.931	74
252.164	85
252.397	84
252.63	104
252.863	86
253.096	86
253.329	87
253.562	99
253.795	88
254.028	94
254.261	89
254.494	88
254.727	112
254.96	145
255.193	138
255.426	99
255.659	87
255.892	87
256.124	83
256.357	88
256.59	81
256.823	98
257.056	109
257.289	142
257.521	166
257.754	116
257.987	91
258.22	97
258.452	92
258.685	82
258.918	96
259.151	95
259.383	116
259.616	139
259.849	152
260.081	106
260.314	89
260.547	81
260.779	81
261.012	91
261.244	89
261.477	88
261.71	81
261.942	78
262.175	93
262.407	84
262.64	91
262.872	100
263.105	83
263.337	91
263.57	84
263.802	106
264.035	87
264.267	88
264.499	88
264.732	90
264.964	91
265.197	80
265.429	86
265.661	96
265.894	104
266.126	125
266.358	154
266.591	146
266.823	102
267.055	98
267.287	86
267.52	101
267.752	87
267.984	88
268.216	87
268.448	93
268.681	99
268.913	91
269.145	89
269.377	93
269.609	100
269.841	105
270.073	106
270.306	123
270.538	196
270.77	308
271.002	369
271.234	186
271.466	124
271.698	100
271.93	106
272.162	106
272.394	86
272.626	77
272.858	84
273.09	78
273.322	89
273.553	88
273.785	98
274.017	77
274.249	93
274.481	103
274.713	94
274.945	81
275.176	86
275.408	80
275.64	74
275.872	85
276.104	95
276.335	96
276.567	104
276.799	99
277.031	84
277.262	103
277.494	99
277.726	138
277.957	173
278.189	246
278.421	211
278.652	174
278.884	157
279.115	148
279.347	120
279.579	99
279.81	96
280.042	94
280.273	84
280.505	110
280.736	121
280.968	117
281.199	147
281.431	220
281.662	240
281.894	138
282.125	128
282.356	102
282.588	108
282.819	120
283.051	122
283.282	131
283.513	180
283.745	291
283.976	530
284.207	747
284.439	561
284.67	246
284.901	229
285.132	324
285.364	354
285.595	204
285.826	174
286.057	227
286.288	388
286.52	581
286.751	486
286.982	197
287.213	117
287.444	95
287.675	110
287.906	104
288.138	93
288.369	104
288.6	96
288.831	87
289.062	106
289.293	103
289.524	89
289.755	109
289.986	108
290.217	97
290.448	86
290.679	101
290.91	117
291.141	150
291.371	210
291.602	241
291.833	182
292.064	119
292.295	101
292.526	88
292.757	105
292.987	92
293.218	101
293.449	74
293.68	88
293.91	107
294.141	93
294.372	97
294.603	93
294.833	88
295.064	93
295.295	82
295.525	87
295.756	92
295.987	97
296.217	96
296.448	98
296.679	91
296.909	106
297.14	101
297.37	99
297.601	89
297.831	104
298.062	97
298.292	108
298.523	111
298.753	120
298.984	113
299.214	91
299.445	103
299.675	107
299.905	109
300.136	125
300.366	158
300.597	248
300.827	422
301.057	665
301.288	593
301.518	258
301.748	147
301.979	130
302.209	141
302.439	130
302.669	173
302.9	261
303.13	457
303.36	818
303.59	1134
303.82	816
304.051	283
304.281	154
304.511	123
304.741	125
304.971	113
305.201	120
305.431	110
305.661	114
305.891	108
306.121	93
306.352	118
306.582	101
306.812	109
307.042	117
307.272	112
307.502	83
307.731	100
307.961	98
308.191	104
308.421	116
308.651	97
308.881	97
309.111	108
309.341	104
309.571	114
309.8	118
310.03	109
310.26	110
310.49	98
310.72	107
310.949	119
311.179	106
311.409	108
311.639	103
311.868	94
312.098	112
312.328	124
312.557	104
312.787	98
313.017	113
313.246	114
313.476	109
313.706	137
313.935	147
314.165	188
314.394	195
314.624	173
314.853	120
315.083	132
315.312	126
315.542	120
315.771	119
316.001	121
316.23	132
316.46	149
316.689	169
316.919	237
317.148	465
317.377	865
317.607	1386
317.836	1332
318.065	493
318.295	214
318.524	148
318.753	124
318.983	132
319.212	125
319.441	116
319.67	113
319.9	101
320.129	113
320.358	118
320.587	126
320.816	115
321.046	115
321.275	128
321.504	115
321.733	137
321.962	152
322.191	144
322.42	133
322.649	131
322.878	138
323.108	109
323.337	122
323.566	105
323.795	125
324.024	112
324.253	125
324.482	169
324.71	193
324.939	254
325.168	211
325.397	173
325.626	230
325.855	450
326.084	854
326.313	1465
326.542	1477
326.77	577
326.999	243
327.228	198
327.457	214
327.686	209
327.914	159
328.143	126
328.372	104
328.6	114
328.829	114
329.058	120
329.287	111
329.515	106
329.744	104
329.972	120
330.201	126
330.43	110
330.658	107
330.887	112
331.115	106
331.344	126
331.572	128
331.801	110
332.03	118
332.258	128
332.486	172
332.715	259
332.943	452
333.172	714
333.4	618
333.629	237
333.857	136
334.085	125
334.314	111
334.542	112
334.771	105
334.999	120
335.227	105
335.455	120
335.684	120
335.912	124
336.14	118
336.369	100
336.597	115
336.825	105
337.053	104
337.281	98
337.51	105
337.738	106
337.966	110
338.194	99
338.422	110
338.65	115
338.878	118
339.106	128
339.334	106
339.562	122
339.79	115
340.018	109
340.246	109
340.474	101
340.702	101
340.93	124
341.158	119
341.386	114
341.614	125
341.842	122
342.07	105
342.298	115
342.526	104
342.754	102
342.981	120
343.209	121
343.437	104
343.665	113
343.893	106
344.12	114
344.348	132
344.576	126
344.804	112
345.031	107
345.259	114
345.487	116
345.714	102
345.942	109
346.17	101
346.397	119
346.625	99
346.853	114
347.08	98
347.308	88
347.535	91
347.763	101
347.99	102
348.218	113
348.445	125
348.673	100
348.9	121
349.128	130
349.355	109
349.583	118
349.81	122
350.037	105
350.265	107
350.492	101
350.72	113
350.947	98
351.174	115
351.402	114
351.629	120
351.856	109
352.083	108
352.311	109
352.538	99
352.765	113
352.992	90
353.22	105
353.447	116
353.674	106
353.901	104
354.128	109
354.355	87
354.583	101
354.81	98
355.037	105
355.264	95
355.491	106
355.718	92
355.945	98
356.172	100
356.399	102
356.626	107
356.853	96
357.08	99
357.307	117
357.534	99
357.761	108
357.988	102
358.215	105
358.441	99
358.668	114
358.895	122
359.122	124
359.349	122
359.576	118
359.802	119
360.029	117
360.256	121
360.483	104
360.709	95
360.936	112
361.163	114
361.39	104
361.616	103
361.843	105
362.07	118
362.296	108
362.523	109
362.749	112
362.976	114
363.203	115
363.429	102
363.656	106
363.882	98
364.109	117
364.335	109
364.562	98
364.788	108
365.015	121
365.241	124
365.468	152
365.694	221
365.92	180
366.147	109
366.373	100
366.599	93
366.826	106
367.052	90
367.278	95
367.505	105
367.731	99
367.957	97
368.184	102
368.41	132
368.636	116
368.862	114
369.089	107
369.315	105
369.541	102
369.767	104
369.993	103
370.219	104
370.445	112
370.672	120
370.898	110
371.124	117
371.35	110
371.576	107
371.802	95
372.028	94
372.254	99
372.48	112
372.706	107
372.932	121
373.158	105
373.384	124
373.61	97
373.835	122
374.061	110
374.287	96
374.513	101
374.739	114
374.965	104
375.191	101
375.416	101
375.642	104
375.868	107
376.094	109
376.319	88
376.545	100
376.771	103
376.997	121
377.222	99
377.448	106
377.674	108
377.899	104
378.125	113
378.35	114
378.576	116
378.802	118
379.027	116
379.253	140
379.478	169
379.704	310
379.929	734
380.155	1469
380.38	1505
380.606	485
380.831	189
381.057	132
381.282	118
381.507	107
381.733	104
381.958	113
382.184	109
382.409	119
382.634	104
382.86	99
383.085	94
383.31	120
383.535	98
383.761	112
383.986	101
384.211	102
384.436	105
384.662	126
384.887	114
385.112	107
385.337	100
385.562	95
385.787	96
386.013	109
386.238	109
386.463	100
386.688	103
386.913	94
387.138	102
387.363	107
387.588	109
387.813	115
388.038	100
388.263	99
388.488	103
388.713	85
388.938	98
389.163	102
389.387	94
389.612	104
389.837	98
390.062	100
390.287	91
390.512	113
390.736	116
390.961	105
391.186	105
391.411	88
391.636	94
391.86	116
392.085	97
392.31	102
392.534	101
392.759	104
392.984	106
393.208	107
393.433	142
393.658	140
393.882	108
394.107	88
394.331	96
394.556	97
394.78	97
395.005	103
395.229	105
395.454	96
395.678	96
395.903	108
396.127	86
396.352	104
396.576	106
396.801	122
397.025	124
397.249	115
397.474	99
397.698	102
397.922	89
398.147	93
398.371	97
398.595	113
398.82	117
399.044	111
399.268	107
399.492	101
399.717	100
399.941	101
400.165	100
400.389	96
400.613	100
400.837	90
401.062	116
401.286	91
401.51	104
401.734	97
401.958	102
402.182	87
402.406	100
402.63	89
402.854	85
403.078	95
403.302	95
403.526	105
403.75	112
403.974	112
404.198	94
404.422	94
404.645	105
404.869	107
405.093	93
405.317	101
405.541	105
405.765	122
405.988	155
406.212	124
406.436	94
406.66	109
406.883	84
407.107	101
407.331	96
407.555	94
407.778	89
408.002	116
408.226	93
408.449	98
408.673	96
408.896	85
409.12	85
409.344	104
409.567	97
409.791	117
410.014	100
410.238	107
410.461	88
410.685	115
410.908	88
411.132	105
411.355	109
411.578	87
411.802	76
412.025	109
412.249	115
412.472	94
412.695	98
412.919	99
413.142	92
413.365	101
413.589	95
413.812	97
414.035	113
414.258	93
414.482	91
414.705	112
414.928	100
415.151	99
415.374	94
415.597	102
415.821	89
416.044	83
416.267	98
416.49	78
416.713	96
416.936	97
417.159	103
417.382	82
417.605	92
417.828	108
418.051	92
418.274	92
418.497	93
418.72	93
418.943	101
419.166	112
419.389	117
419.611	106
419.834	88
420.057	94
420.28	103
420.503	112
420.726	94
420.948	117
421.171	91
421.394	101
421.617	90
421.839	90
422.062	93
422.285	96
422.507	98
422.73	113
422.953	133
423.175	107
423.398	93
423.621	101
423.843	98
424.066	96
424.288	105
424.511	100
424.733	93
424.956	90
425.178	77
425.401	97
425.623	88
425.846	106
426.068	108
426.291	107
426.513	103
426.735	114
426.958	97
427.18	92
427.402	90
427.625	106
427.847	81
428.069	97
428.292	104
428.514	99
428.736	89
428.958	105
429.181	106
429.403	88
429.625	97
429.847	109
430.069	112
430.292	111
430.514	97
430.736	106
430.958	90
431.18	94
431.402	96
431.624	87
431.846	86
432.068	100
432.29	94
432.512	92
432.734	97
432.956	87
433.178	91
433.4	93
433.622	106
433.844	113
434.066	96
434.287	91
434.509	101
434.731	102
434.953	97
435.175	96
435.397	90
435.618	91
435.84	87
436.062	99
436.284	100
436.505	98
436.727	90
436.949	106
437.17	93
437.392	99
437.614	88
437.835	89
438.057	97
438.278	99
438.5	100
438.721	86
438.943	99
439.165	112
439.386	111
439.608	102
439.829	104
440.05	128
440.272	112
440.493	97
440.715	107
440.936	92
441.158	102
441.379	103
441.6	97
441.822	107
442.043	116
442.264	116
442.486	104
442.707	109
442.928	107
443.149	86
443.371	88
443.592	104
443.813	105
444.034	102
444.255	101
444.476	94
444.698	91
444.919	103
445.14	194
445.361	152
445.582	109
445.803	98
446.024	78
446.245	109
446.466	99
446.687	101
446.908	112
447.129	110
447.35	93
447.571	104
447.792	99
448.013	90
448.234	101
448.455	99
448.675	93
448.896	105
449.117	111
449.338	122
449.559	145
449.779	137
450	104
450.221	109
450.442	122
450.662	134
450.883	100
451.104	93
451.324	112
451.545	104
451.766	116
451.986	135
452.207	204
452.428	487
452.648	1208
452.869	688
453.089	189
453.31	112
453.53	115
453.751	125
453.971	153
454.192	170
454.412	118
454.633	102
454.853	94
455.073	98
455.294	94
455.514	100
455.734	92
455.955	78
456.175	100
456.395	86
456.616	92
456.836	109
457.056	105
457.276	101
457.497	107
457.717	118
457.937	89
458.157	90
458.377	98
458.598	91
458.818	89
459.038	95
459.258	99
459.478	89
459.698	100
459.918	89
460.138	88
460.358	90
460.578	102
460.798	102
461.018	95
461.238	89
461.458	93
461.678	93
461.898	113
462.118	93
462.338	95
462.558	96
462.777	117
462.997	108
463.217	103
463.437	131
463.657	178
463.876	186
464.096	126
464.316	112
464.536	96
464.755	104
464.975	104
465.195	88
465.414	103
465.634	88
465.854	78
466.073	95
466.293	96
466.512	103
466.732	88
466.951	124
467.171	147
467.391	136
467.61	109
467.829	108
468.049	89
468.268	96
468.488	108
468.707	93
468.927	98
469.146	113
469.365	96
469.585	88
469.804	101
470.023	98
470.243	89
470.462	90
470.681	105
470.901	139
471.12	199
471.339	225
471.558	144
471.777	113
471.997	92
472.216	105
472.435	108
472.654	96
472.873	94
473.092	90
473.311	91
473.53	108
473.749	102
473.968	107
474.187	113
474.406	105
474.625	101
474.844	107
475.063	94
475.282	105
475.501	98
475.72	93
475.939	93
476.158	96
476.377	105
476.596	107
476.814	93
477.033	96
477.252	109
477.471	109
477.69	102
477.908	94
478.127	89
478.346	105
478.564	104
478.783	97
479.002	89
479.22	92
479.439	118
479.658	101
479.876	82
480.095	110
480.313	87
480.532	86
480.751	97
480.969	97
481.188	101
481.406	93
481.624	98
481.843	107
482.061	103
482.28	113
482.498	96
482.717	100
482.935	123
483.153	104
483.372	93
483.59	112
483.808	92
484.027	96
484.245	134
484.463	180
484.681	245
484.9	138
485.118	124
485.336	112
485.554	117
485.772	117
485.99	177
486.209	260
486.427	149
486.645	99
486.863	112
487.081	109
487.299	96
487.517	91
487.735	94
487.953	102
488.171	91
488.389	78
488.607	105
488.825	109
489.043	87
489.261	102
489.479	85
489.696	98
489.914	75
490.132	96
490.35	112
490.568	95
490.786	98
491.003	87
491.221	98
491.439	117
491.657	99
491.874	108
492.092	96
492.31	116
492.527	95
492.745	98
492.963	105
493.18	109
493.398	108
493.615	96
493.833	98
494.05	102
494.268	108
494.485	99
494.703	105
494.92	117
495.138	98
495.355	97
495.573	110
495.79	89
496.008	112
496.225	96
496.442	104
496.66	114
496.877	157
497.094	156
497.312	109
497.529	98
497.746	100
497.963	102
498.181	107
498.398	109
498.615	118
498.832	116
499.049	99
499.267	130
499.484	153
499.701	125
499.918	118
500.135	104
500.352	104
500.569	103
500.786	104
501.003	103
501.22	104
501.437	107
501.654	90
501.871	108
502.088	107
502.305	103
502.522	92
502.739	99
502.956	98
503.172	99
503.389	88
503.606	100
503.823	97
504.04	103
504.256	99
504.473	104
504.69	101
504.907	105
505.123	110
505.34	110
505.557	99
505.773	102
505.99	110
506.207	92
506.423	96
506.64	88
506.856	99
507.073	94
507.289	97
507.506	107
507.722	93
507.939	88
508.155	105
508.372	95
508.588	84
508.805	90
509.021	85
509.238	106
509.454	133
509.67	149
509.887	104
510.103	99
510.319	94
510.536	99
510.752	116
510.968	95
511.184	103
511.401	99
511.617	107
511.833	93
512.049	91
512.265	100
512.481	96
512.698	90
512.914	90
513.13	107
513.346	101
513.562	100
513.778	116
513.994	108
514.21	112
514.426	152
514.642	185
514.858	117
515.074	95
515.29	98
515.506	85
515.721	96
515.937	96
516.153	96
516.369	104
516.585	94
516.801	97
517.016	99
517.232	105
517.448	97
517.664	105
517.879	108
518.095	100
518.311	116
518.527	96
518.742	109
518.958	117
519.173	148
519.389	116
519.605	87
519.82	93
520.036	92
520.251	102
520.467	103
520.682	95
520.898	92
521.113	105
521.329	92
521.544	102
521.76	89
521.975	99
522.19	101
522.406	103
522.621	112
522.836	100
523.052	96
523.267	92
523.482	106
523.698	102
523.913	99
524.128	101
524.343	93
524.559	107
524.774	113
524.989	97
525.204	105
525.419	97
525.634	89
525.849	101
526.064	102
526.28	97
526.495	91
526.71	85
526.925	83
527.14	89
527.355	103
527.57	98
527.785	100
527.999	102
528.214	94
528.429	104
528.644	82
528.859	105
529.074	97
529.289	96
529.503	101
529.718	89
529.933	89
530.148	94
530.363	87
530.577	97
530.792	110
531.007	87
531.221	91
531.436	90
531.651	100
531.865	91
532.08	102
532.295	120
532.509	140
532.724	117
532.938	112
533.153	105
533.367	104
533.582	96
533.796	105
534.011	90
534.225	90
534.44	89
534.654	85
534.868	87
535.083	90
535.297	95
535.511	112
535.726	107
535.94	101
536.154	88
536.369	98
536.583	93
536.797	105
537.011	85
537.225	91
537.44	96
537.654	93
537.868	100
538.082	82
538.296	94
538.51	101
538.724	102
538.938	96
539.153	95
539.367	97
539.581	100
539.795	94
540.009	100
540.222	84
540.436	97
540.65	97
540.864	101
541.078	113
541.292	142
541.506	214
541.72	202
541.934	119
542.147	105
542.361	105
542.575	104
542.789	105
543.002	97
543.216	92
543.43	96
543.644	96
543.857	92
544.071	105
544.285	114
544.498	102
544.712	108
544.925	111
545.139	112
545.352	103
545.566	116
545.779	98
545.993	105
546.206	102
546.42	101
546.633	100
546.847	108
547.06	103
547.274	99
547.487	90
547.7	96
547.914	120
548.127	113
548.34	100
548.554	100
548.767	106
548.98	118
549.193	107
549.407	104
549.62	106
549.833	104
550.046	116
550.259	100
550.473	108
550.686	96
550.899	109
551.112	106
551.325	102
551.538	92
551.751	102
551.964	104
552.177	87
552.39	92
552.603	108
552.816	107
553.029	98
553.242	106
553.455	106
553.667	94
553.88	114
554.093	99
554.306	120
554.519	111
554.732	98
554.944	101
555.157	102
555.37	106
555.583	100
555.795	105
556.008	121
556.221	151
556.433	115
556.646	121
556.859	93
557.071	98
557.284	120
557.496	122
557.709	116
557.921	110
558.134	94
558.346	112
558.559	110
558.771	106
558.984	104
559.196	106
559.409	111
559.621	89
559.833	101
560.046	102
560.258	103
560.47	88
560.683	114
560.895	94
561.107	100
561.32	103
561.532	106
561.744	103
561.956	91
562.168	101
562.381	98
562.593	102
562.805	148
563.017	166
563.229	235
563.441	493
563.653	195
563.865	114
564.077	97
564.289	114
564.501	114
564.713	96
564.925	88
565.137	99
565.349	100
565.561	107
565.773	87
565.985	99
566.197	93
566.408	97
566.62	102
566.832	94
567.044	107
567.255	93
567.467	104
567.679	104
567.891	114
568.102	165
568.314	233
568.526	132
568.737	105
568.949	110
569.161	96
569.372	109
569.584	113
569.795	102
570.007	99
570.218	114
570.43	153
570.641	114
570.853	88
571.064	112
571.276	100
571.487	92
571.698	89
571.91	91
572.121	86
572.333	98
572.544	113
572.755	129
572.966	195
573.178	132
573.389	113
573.6	109
573.811	92
574.023	101
574.234	92
574.445	88
574.656	88
574.867	92
575.078	91
575.289	98
575.501	92
575.712	85
575.923	93
576.134	101
576.345	114
576.556	102
576.767	102
576.978	91
577.188	88
577.399	121
577.61	87
577.821	89
578.032	101
578.243	113
578.454	102
578.665	83
578.875	98
579.086	89
579.297	99
579.508	93
579.718	89
579.929	91
580.14	100
580.35	89
580.561	100
580.772	87
580.982	82
581.193	91
581.403	88
581.614	95
581.825	86
582.035	98
582.246	101
582.456	101
582.667	100
582.877	114
583.087	117
583.298	88
583.508	84
583.719	85
583.929	94
584.139	99
584.35	91
584.56	98
584.77	92
584.981	96
585.191	95
585.401	88
585.611	95
585.821	99
586.032	75
586.242	82
586.452	94
586.662	93
586.872	75
587.082	91
587.292	96
587.502	105
587.713	102
587.923	87
588.133	99
588.343	95
588.553	87
588.762	94
588.972	100
589.182	115
589.392	122
589.602	95
589.812	105
590.022	105
590.232	108
590.441	93
590.651	102
590.861	91
591.071	83
591.281	102
591.49	90
591.7	96
591.91	100
592.119	94
592.329	98
592.539	96
592.748	99
592.958	90
593.167	102
593.377	103
593.587	99
593.796	93
594.006	85
594.215	91
594.424	88
594.634	97
594.843	86
595.053	89
595.262	84
595.472	95
595.681	91
595.89	92
596.1	98
596.309	110
596.518	103
596.727	97
596.937	88
597.146	104
597.355	103
597.564	98
597.774	92
597.983	88
598.192	93
598.401	96
598.61	96
598.819	91
599.028	91
599.237	91
599.446	89
599.655	93
599.864	97
600.073	106
600.282	101
600.491	95
600.7	85
600.909	105
601.118	103
601.327	93
601.536	88
601.745	97
601.953	113
602.162	162
602.371	110
602.58	102
602.789	93
602.997	96
603.206	88
603.415	86
603.623	91
603.832	104
604.041	98
604.249	100
604.458	90
604.666	93
604.875	86
605.084	82
605.292	87
605.501	87
605.709	104
605.918	109
606.126	113
606.334	100
606.543	112
606.751	136
606.96	169
607.168	174
607.376	128
607.585	102
607.793	110
608.001	101
608.21	105
608.418	91
608.626	92
608.834	87
609.043	82
609.251	104
609.459	111
609.667	97
609.875	87
610.083	82
610.291	109
610.499	110
610.707	82
610.916	106
611.124	82
611.332	94
611.54	84
611.748	79
611.955	88
612.163	91
612.371	82
612.579	98
612.787	99
612.995	95
613.203	99
613.411	92
613.618	97
613.826	88
614.034	113
614.242	96
614.449	110
614.657	101
614.865	102
615.072	111
615.28	112
615.488	97
615.695	104
615.903	102
616.111	106
616.318	107
616.526	96
616.733	91
616.941	84
617.148	104
617.356	99
617.563	88
617.771	97
617.978	108
618.185	82
618.393	96
618.6	87
618.807	91
619.015	97
619.222	102
619.429	92
619.637	106
619.844	110
620.051	101
620.258	96
620.466	83
620.673	84
620.88	100
621.087	100
621.294	84
621.501	86
621.708	99
621.915	92
622.122	84
622.329	105
622.536	108
622.743	105
622.95	99
623.157	92
623.364	88
623.571	101
623.778	103
623.985	100
624.192	92
624.399	89
624.606	96
624.812	97
625.019	96
625.226	97
625.433	89
625.639	90
625.846	95
626.053	94
626.259	85
626.466	87
626.673	89
626.879	93
627.086	90
627.293	95
627.499	86
627.706	77
627.912	103
628.119	81
628.325	94
628.532	96
628.738	103
628.945	96
629.151	95
629.357	85
629.564	107
629.77	92
629.976	86
630.183	83
630.389	90
630.595	91
630.802	97
631.008	94
631.214	89
631.42	81
631.627	95
631.833	84
632.039	87
632.245	106
632.451	86
632.657	85
632.863	108
633.069	87
633.275	95
633.481	76
633.688	94
633.893	93
634.099	92
634.305	99
634.511	102
634.717	102
634.923	106
635.129	129
635.335	130
635.541	89
635.747	91
635.952	100
636.158	106
636.364	97
636.57	96
636.775	86
636.981	96
637.187	89
637.392	92
637.598	90
637.804	110
638.009	75
638.215	87
638.421	99
638.626	94
638.832	80
639.037	88
639.243	94
639.448	85
639.654	95
639.859	87
640.065	86
640.27	99
640.475	84
640.681	82
640.886	93
641.091	86
641.297	91
641.502	93
641.707	83
641.913	83
642.118	77
642.323	97
642.528	92
642.733	90
642.939	81
643.144	95
643.349	85
643.554	85
643.759	84
643.964	90
644.169	82
644.374	82
644.579	74
644.784	89
644.989	101
645.194	84
645.399	104
645.604	112
645.809	98
646.014	91
646.219	64
646.423	88
646.628	86
646.833	93
647.038	81
647.243	90
647.447	83
647.652	84
647.857	98
648.062	90
648.266	95
648.471	96
648.676	76
648.88	91
649.085	81
649.289	96
649.494	92
649.698	80
649.903	76
650.107	83
650.312	96
650.516	91
650.721	93
650.925	88
651.13	88
651.334	88
651.539	82
651.743	102
651.947	81
652.152	80
652.356	96
652.56	84
652.764	102
652.969	100
653.173	96
653.377	99
653.581	81
653.785	97
653.99	88
654.194	89
654.398	90
654.602	94
654.806	78
655.01	94
655.214	88
655.418	78
655.622	79
655.826	88
656.03	90
656.234	95
656.438	85
656.642	77
656.846	81
657.049	94
657.253	83
657.457	90
657.661	86
657.865	91
658.068	86
658.272	84
658.476	98
658.68	77
658.883	85
659.087	93
659.291	88
659.494	93
659.698	96
659.901	82
660.105	86
660.309	85
660.512	74
660.716	77
660.919	90
661.123	90
661.326	107
661.53	76
661.733	93
661.936	94
662.14	86
662.343	71
662.546	81
662.75	83
662.953	77
663.156	80
663.36	93
663.563	85
663.766	83
663.969	95
664.173	81
664.376	79
664.579	82
664.782	77
664.985	91
665.188	71
665.391	87
665.594	73
665.797	89
666	70
666.203	74
666.406	70
666.609	87
666.812	66
667.015	88
667.218	81
667.421	90
667.624	70
667.827	67
668.03	75
668.232	88
668.435	90
668.638	91
668.841	97
669.043	74
669.246	91
669.449	85
669.651	92
669.854	74
670.057	88
670.259	78
670.462	84
670.665	72
670.867	76
671.07	81
671.272	77
671.475	99
671.677	74
671.88	72
672.082	85
672.284	80
672.487	85
672.689	96
672.892	91
