Data from SnStandardFlinnAPT0064_LampEnergy5.5_LIBS07252019.E.O._I.C._HRD10591_15-15-17-491.txt Node
Date: Thu Jul 25 15:15:17 EDT 2019
User: cochatt
Spectrometer: HR+D1059
Trigger mode: 1
Integration Time (sec): 1.000000E-1
Scans to average: 1
Electric dark correction enabled: true
Nonlinearity correction enabled: false
Boxcar width: 0
XAxis mode: Wavelengths
Number of Pixels in Spectrum: 2048
>>>>>Begin Spectral Data<<<<<
223.165	-7
223.4	-7
223.635	-7
223.869	-15
224.104	-15
224.338	-14
224.573	-24
224.808	-15
225.042	-2
225.277	-2
225.511	6
225.746	-1
225.98	12
226.215	6
226.449	16
226.683	13
226.918	16
227.152	26
227.387	23
227.621	35
227.856	35
228.09	47
228.324	51
228.559	54
228.793	84
229.027	121
229.262	150
229.496	145
229.73	150
229.964	162
230.199	163
230.433	155
230.667	147
230.901	164
231.136	169
231.37	170
231.604	189
231.838	208
232.072	226
232.306	213
232.541	203
232.775	199
233.009	199
233.243	173
233.477	205
233.711	238
233.945	230
234.179	230
234.413	213
234.647	208
234.881	226
235.115	256
235.349	277
235.583	299
235.817	406
236.051	381
236.285	279
236.519	228
236.753	215
236.987	228
237.221	238
237.455	217
237.689	228
237.922	216
238.156	218
238.39	210
238.624	235
238.858	233
239.091	222
239.325	213
239.559	219
239.793	237
240.027	251
240.26	243
240.494	237
240.728	248
240.961	274
241.195	296
241.429	271
241.662	288
241.896	332
242.13	378
242.363	479
242.597	580
242.83	559
243.064	545
243.298	660
243.531	541
243.765	392
243.998	352
244.232	305
244.465	314
244.699	272
244.932	285
245.166	269
245.399	305
245.633	293
245.866	306
246.099	292
246.333	266
246.566	276
246.8	278
247.033	275
247.266	285
247.5	303
247.733	297
247.966	296
248.2	337
248.433	360
248.666	391
248.899	381
249.133	354
249.366	355
249.599	374
249.832	391
250.066	415
250.299	376
250.532	359
250.765	352
250.998	326
251.231	319
251.465	317
251.698	331
251.931	319
252.164	322
252.397	345
252.63	344
252.863	341
253.096	342
253.329	347
253.562	342
253.795	335
254.028	360
254.261	338
254.494	369
254.727	413
254.96	479
255.193	474
255.426	387
255.659	389
255.892	366
256.124	367
256.357	372
256.59	381
256.823	408
257.056	424
257.289	487
257.521	549
257.754	451
257.987	400
258.22	407
258.452	380
258.685	383
258.918	396
259.151	409
259.383	454
259.616	478
259.849	498
260.081	467
260.314	445
260.547	415
260.779	399
261.012	409
261.244	435
261.477	416
261.71	413
261.942	433
262.175	444
262.407	435
262.64	441
262.872	476
263.105	495
263.337	528
263.57	549
263.802	550
264.035	578
264.267	593
264.499	582
264.732	631
264.964	626
265.197	641
265.429	649
265.661	629
265.894	696
266.126	730
266.358	769
266.591	771
266.823	690
267.055	640
267.287	614
267.52	585
267.752	563
267.984	544
268.216	544
268.448	543
268.681	540
268.913	529
269.145	547
269.377	531
269.609	560
269.841	531
270.073	566
270.306	647
270.538	785
270.77	1111
271.002	1331
271.234	988
271.466	714
271.698	607
271.93	553
272.162	565
272.394	548
272.626	542
272.858	502
273.09	537
273.322	497
273.553	517
273.785	525
274.017	506
274.249	534
274.481	512
274.713	499
274.945	514
275.176	533
275.408	521
275.64	515
275.872	552
276.104	526
276.335	529
276.567	533
276.799	522
277.031	534
277.262	562
277.494	575
277.726	608
277.957	678
278.189	738
278.421	705
278.652	658
278.884	633
279.115	593
279.347	595
279.579	558
279.81	560
280.042	550
280.273	580
280.505	584
280.736	607
280.968	643
281.199	663
281.431	730
281.662	729
281.894	668
282.125	660
282.356	662
282.588	658
282.819	674
283.051	714
283.282	785
283.513	925
283.745	1289
283.976	1965
284.207	2761
284.439	2460
284.67	1551
284.901	1287
285.132	1253
285.364	1186
285.595	971
285.826	934
286.057	1050
286.288	1356
286.52	1726
286.751	1616
286.982	1083
287.213	874
287.444	797
287.675	745
287.906	725
288.138	687
288.369	698
288.6	694
288.831	690
289.062	682
289.293	683
289.524	695
289.755	685
289.986	698
290.217	696
290.448	695
290.679	696
290.91	720
291.141	736
291.371	752
291.602	764
291.833	729
292.064	706
292.295	658
292.526	661
292.757	653
292.987	648
293.218	647
293.449	677
293.68	658
293.91	673
294.141	652
294.372	635
294.603	641
294.833	637
295.064	649
295.295	660
295.525	652
295.756	638
295.987	655
296.217	661
296.448	640
296.679	655
296.909	661
297.14	692
297.37	672
297.601	669
297.831	691
298.062	682
298.292	663
298.523	687
298.753	695
298.984	689
299.214	707
299.445	707
299.675	715
299.905	735
300.136	766
300.366	822
300.597	1000
300.827	1337
301.057	1757
301.288	1674
301.518	1185
301.748	962
301.979	866
302.209	874
302.439	877
302.669	927
302.9	1053
303.13	1413
303.36	1995
303.59	2571
303.82	2367
304.051	1453
304.281	1087
304.511	935
304.741	911
304.971	856
305.201	841
305.431	810
305.661	776
305.891	746
306.121	775
306.352	784
306.582	775
306.812	762
307.042	738
307.272	765
307.502	765
307.731	739
307.961	729
308.191	749
308.421	751
308.651	746
308.881	759
309.111	748
309.341	763
309.571	765
309.8	779
310.03	773
310.26	783
310.49	774
310.72	778
310.949	782
311.179	773
311.409	786
311.639	821
311.868	819
312.098	799
312.328	799
312.557	793
312.787	814
313.017	799
313.246	837
313.476	821
313.706	842
313.935	874
314.165	882
314.394	901
314.624	907
314.853	866
315.083	865
315.312	877
315.542	863
315.771	872
316.001	889
316.23	923
316.46	943
316.689	1038
316.919	1159
317.148	1594
317.377	2435
317.607	3470
317.836	3570
318.065	2196
318.295	1475
318.524	1255
318.753	1103
318.983	1077
319.212	1019
319.441	976
319.67	981
319.9	969
320.129	950
320.358	958
320.587	934
320.816	942
321.046	933
321.275	952
321.504	958
321.733	965
321.962	997
322.191	985
322.42	976
322.649	979
322.878	1016
323.108	1026
323.337	991
323.566	1030
323.795	1041
324.024	1055
324.253	1085
324.482	1115
324.71	1149
324.939	1175
325.168	1238
325.397	1255
325.626	1447
325.855	1950
326.084	2910
326.313	4323
326.542	4640
326.77	2965
326.999	2063
327.228	1767
327.457	1697
327.686	1720
327.914	1838
328.143	2069
328.372	2415
328.6	2601
328.829	2420
329.058	2128
329.287	1921
329.515	1815
329.744	1656
329.972	1548
330.201	1508
330.43	1506
330.658	1458
330.887	1390
331.115	1375
331.344	1413
331.572	1334
331.801	1345
332.03	1376
332.258	1400
332.486	1445
332.715	1628
332.943	1865
333.172	2186
333.4	2177
333.629	1843
333.857	1728
334.085	1722
334.314	1799
334.542	1916
334.771	2198
334.999	2628
335.227	3164
335.455	3502
335.684	3301
335.912	2817
336.14	2426
336.369	2194
336.597	2010
336.825	1868
337.053	1753
337.281	1678
337.51	1587
337.738	1524
337.966	1471
338.194	1421
338.422	1368
338.65	1353
338.878	1345
339.106	1315
339.334	1297
339.562	1247
339.79	1234
340.018	1246
340.246	1216
340.474	1222
340.702	1222
340.93	1210
341.158	1195
341.386	1209
341.614	1199
341.842	1196
342.07	1167
342.298	1145
342.526	1125
342.754	1091
342.981	1093
343.209	1120
343.437	1124
343.665	1126
343.893	1180
344.12	1176
344.348	1137
344.576	1130
344.804	1114
345.031	1094
345.259	1093
345.487	1058
345.714	1086
345.942	1060
346.17	1037
346.397	1069
346.625	1048
346.853	1041
347.08	1041
347.308	1034
347.535	1023
347.763	1035
347.99	1023
348.218	1006
348.445	1027
348.673	1021
348.9	994
349.128	1005
349.355	1013
349.583	997
349.81	999
350.037	1001
350.265	970
350.492	1032
350.72	999
350.947	982
351.174	1007
351.402	996
351.629	980
351.856	984
352.083	1023
352.311	972
352.538	994
352.765	1009
352.992	970
353.22	978
353.447	978
353.674	959
353.901	964
354.128	1022
354.355	990
354.583	1005
354.81	990
355.037	990
355.264	1016
355.491	1020
355.718	995
355.945	1019
356.172	996
356.399	1004
356.626	1032
356.853	1049
357.08	1048
357.307	1006
357.534	1017
357.761	1039
357.988	1063
358.215	1039
358.441	1028
358.668	1047
358.895	1059
359.122	1019
359.349	1054
359.576	1037
359.802	1026
360.029	1053
360.256	1039
360.483	1075
360.709	1058
360.936	1092
361.163	1046
361.39	1069
361.616	1045
361.843	1070
362.07	1092
362.296	1073
362.523	1041
362.749	1051
362.976	1055
363.203	1051
363.429	1017
363.656	1033
363.882	1038
364.109	1033
364.335	1025
364.562	1040
364.788	1035
365.015	1047
365.241	1051
365.468	1073
365.694	1122
365.92	1121
366.147	1081
366.373	1072
366.599	1066
366.826	1088
367.052	1031
367.278	1070
367.505	1065
367.731	1057
367.957	1092
368.184	1094
368.41	1102
368.636	1102
368.862	1083
369.089	1081
369.315	1125
369.541	1097
369.767	1082
369.993	1088
370.219	1089
370.445	1104
370.672	1106
370.898	1104
371.124	1134
371.35	1139
371.576	1140
371.802	1128
372.028	1116
372.254	1131
372.48	1158
372.706	1130
372.932	1127
373.158	1135
373.384	1153
373.61	1138
373.835	1163
374.061	1142
374.287	1168
374.513	1181
374.739	1183
374.965	1217
375.191	1182
375.416	1183
375.642	1177
375.868	1183
376.094	1162
376.319	1141
376.545	1154
376.771	1185
376.997	1145
377.222	1133
377.448	1135
377.674	1150
377.899	1142
378.125	1120
378.35	1143
378.576	1173
378.802	1141
379.027	1138
379.253	1213
379.478	1200
379.704	1353
379.929	1815
380.155	2601
380.38	2683
380.606	1802
380.831	1409
381.057	1256
381.282	1201
381.507	1106
381.733	1138
381.958	1173
382.184	1128
382.409	1142
382.634	1134
382.86	1145
383.085	1178
383.31	1121
383.535	1129
383.761	1119
383.986	1116
384.211	1126
384.436	1129
384.662	1173
384.887	1142
385.112	1149
385.337	1182
385.562	1168
385.787	1135
386.013	1175
386.238	1162
386.463	1162
386.688	1157
386.913	1153
387.138	1141
387.363	1169
387.588	1146
387.813	1178
388.038	1165
388.263	1147
388.488	1159
388.713	1154
388.938	1164
389.163	1159
389.387	1164
389.612	1169
389.837	1163
390.062	1173
390.287	1176
390.512	1171
390.736	1154
390.961	1207
391.186	1215
391.411	1211
391.636	1190
391.86	1231
392.085	1234
392.31	1231
392.534	1213
392.759	1187
392.984	1178
393.208	1160
393.433	1189
393.658	1175
393.882	1152
394.107	1180
394.331	1197
394.556	1182
394.78	1184
395.005	1202
395.229	1192
395.454	1197
395.678	1194
395.903	1233
396.127	1227
396.352	1193
396.576	1174
396.801	1199
397.025	1208
397.249	1206
397.474	1254
397.698	1219
397.922	1243
398.147	1286
398.371	1290
398.595	1281
398.82	1290
399.044	1333
399.268	1412
399.492	1523
399.717	1559
399.941	1569
400.165	1513
400.389	1430
400.613	1398
400.837	1354
401.062	1309
401.286	1302
401.51	1290
401.734	1305
401.958	1303
402.182	1302
402.406	1285
402.63	1301
402.854	1306
403.078	1305
403.302	1319
403.526	1331
403.75	1362
403.974	1332
404.198	1338
404.422	1355
404.645	1329
404.869	1350
405.093	1336
405.317	1317
405.541	1370
405.765	1369
405.988	1376
406.212	1406
406.436	1343
406.66	1393
406.883	1367
407.107	1402
407.331	1413
407.555	1446
407.778	1432
408.002	1450
408.226	1424
408.449	1420
408.673	1381
408.896	1351
409.12	1366
409.344	1373
409.567	1343
409.791	1360
410.014	1311
410.238	1320
410.461	1335
410.685	1342
410.908	1348
411.132	1320
411.355	1291
411.578	1317
411.802	1257
412.025	1319
412.249	1319
412.472	1306
412.695	1251
412.919	1270
413.142	1263
413.365	1280
413.589	1253
413.812	1255
414.035	1262
414.258	1279
414.482	1277
414.705	1286
414.928	1259
415.151	1241
415.374	1275
415.597	1241
415.821	1237
416.044	1249
416.267	1211
416.49	1252
416.713	1226
416.936	1231
417.159	1243
417.382	1230
417.605	1195
417.828	1230
418.051	1245
418.274	1241
418.497	1239
418.72	1256
418.943	1235
419.166	1285
419.389	1359
419.611	1354
419.834	1281
420.057	1286
420.28	1238
420.503	1184
420.726	1225
420.948	1240
421.171	1210
421.394	1201
421.617	1265
421.839	1259
422.062	1215
422.285	1262
422.507	1266
422.73	1257
422.953	1252
423.175	1223
423.398	1242
423.621	1238
423.843	1238
424.066	1230
424.288	1212
424.511	1220
424.733	1249
424.956	1254
425.178	1206
425.401	1226
425.623	1236
425.846	1205
426.068	1215
426.291	1234
426.513	1190
426.735	1172
426.958	1144
427.18	1172
427.402	1176
427.625	1150
427.847	1145
428.069	1120
428.292	1149
428.514	1132
428.736	1127
428.958	1143
429.181	1130
429.403	1121
429.625	1105
429.847	1134
430.069	1151
430.292	1179
430.514	1177
430.736	1194
430.958	1145
431.18	1113
431.402	1126
431.624	1139
431.846	1113
432.068	1099
432.29	1126
432.512	1120
432.734	1120
432.956	1144
433.178	1137
433.4	1143
433.622	1154
433.844	1160
434.066	1118
434.287	1095
434.509	1138
434.731	1145
434.953	1157
435.175	1170
435.397	1209
435.618	1147
435.84	1142
436.062	1135
436.284	1127
436.505	1136
436.727	1137
436.949	1110
437.17	1126
437.392	1122
437.614	1099
437.835	1049
438.057	1110
438.278	1061
438.5	1103
438.721	1119
438.943	1126
439.165	1147
439.386	1159
439.608	1157
439.829	1161
440.05	1191
440.272	1197
440.493	1144
440.715	1176
440.936	1183
441.158	1167
441.379	1179
441.6	1227
441.822	1264
442.043	1268
442.264	1331
442.486	1254
442.707	1264
442.928	1202
443.149	1196
443.371	1225
443.592	1249
443.813	1224
444.034	1226
444.255	1234
444.476	1290
444.698	1271
444.919	1336
445.14	1360
445.361	1281
445.582	1253
445.803	1227
446.024	1209
446.245	1220
446.466	1222
446.687	1163
446.908	1208
447.129	1173
447.35	1152
447.571	1139
447.792	1121
448.013	1106
448.234	1143
448.455	1122
448.675	1101
448.896	1172
449.117	1137
449.338	1229
449.559	1297
449.779	1177
450	1104
450.221	1096
450.442	1103
450.662	1075
450.883	1071
451.104	1093
451.324	1077
451.545	1080
451.766	1062
451.986	1078
452.207	1118
452.428	1309
452.648	1757
452.869	1509
453.089	1193
453.31	1174
453.53	1155
453.751	1192
453.971	1232
454.192	1225
454.412	1093
454.633	1042
454.853	1027
455.073	1032
455.294	1064
455.514	1008
455.734	1023
455.955	1020
456.175	1006
456.395	1042
456.616	1000
456.836	1045
457.056	1047
457.276	1050
457.497	1102
457.717	1097
457.937	1088
458.157	1065
458.377	1065
458.598	1095
458.818	1114
459.038	1117
459.258	1111
459.478	1108
459.698	1156
459.918	1156
460.138	1184
460.358	1187
460.578	1210
460.798	1256
461.018	1223
461.238	1239
461.458	1215
461.678	1228
461.898	1247
462.118	1246
462.338	1282
462.558	1282
462.777	1331
462.997	1358
463.217	1418
463.437	1409
463.657	1415
463.876	1453
464.096	1386
464.316	1349
464.536	1302
464.755	1347
464.975	1263
465.195	1246
465.414	1219
465.634	1175
465.854	1146
466.073	1147
466.293	1166
466.512	1124
466.732	1141
466.951	1180
467.171	1245
467.391	1200
467.61	1140
467.829	1119
468.049	1147
468.268	1098
468.488	1097
468.707	1117
468.927	1094
469.146	1084
469.365	1126
469.585	1123
469.804	1133
470.023	1161
470.243	1178
470.462	1175
470.681	1265
470.901	1347
471.12	1476
471.339	1511
471.558	1291
471.777	1189
471.997	1171
472.216	1114
472.435	1125
472.654	1103
472.873	1104
473.092	1104
473.311	1116
473.53	1133
473.749	1151
473.968	1168
474.187	1145
474.406	1089
474.625	1138
474.844	1125
475.063	1099
475.282	1103
475.501	1094
475.72	1123
475.939	1138
476.158	1151
476.377	1177
476.596	1169
476.814	1182
477.033	1179
477.252	1147
477.471	1216
477.69	1225
477.908	1258
478.127	1270
478.346	1246
478.564	1269
478.783	1320
479.002	1309
479.22	1340
479.439	1311
479.658	1314
479.876	1342
480.095	1327
480.313	1353
480.532	1371
480.751	1350
480.969	1316
481.188	1292
481.406	1315
481.624	1307
481.843	1290
482.061	1322
482.28	1309
482.498	1327
482.717	1344
482.935	1313
483.153	1332
483.372	1396
483.59	1403
483.808	1402
484.027	1409
484.245	1482
484.463	1603
484.681	1763
484.9	1627
485.118	1543
485.336	1516
485.554	1539
485.772	1612
485.99	1815
486.209	1906
486.427	1679
486.645	1485
486.863	1465
487.081	1440
487.299	1439
487.517	1397
487.735	1421
487.953	1417
488.171	1432
488.389	1440
488.607	1415
488.825	1377
489.043	1377
489.261	1378
489.479	1350
489.696	1347
489.914	1365
490.132	1395
490.35	1413
490.568	1430
490.786	1422
491.003	1439
491.221	1478
491.439	1479
491.657	1486
491.874	1477
492.092	1480
492.31	1514
492.527	1502
492.745	1499
492.963	1476
493.18	1468
493.398	1497
493.615	1481
493.833	1468
494.05	1473
494.268	1465
494.485	1496
494.703	1459
494.92	1466
495.138	1466
495.355	1478
495.573	1470
495.79	1514
496.008	1520
496.225	1497
496.442	1508
496.66	1522
496.877	1624
497.094	1623
497.312	1550
497.529	1542
497.746	1575
497.963	1601
498.181	1639
498.398	1649
498.615	1717
498.832	1793
499.049	1845
499.267	1977
499.484	2096
499.701	2162
499.918	2226
500.135	2377
500.352	2524
500.569	2566
500.786	2503
501.003	2439
501.22	2290
501.437	2165
501.654	2057
501.871	1961
502.088	1880
502.305	1798
502.522	1734
502.739	1694
502.956	1648
503.172	1601
503.389	1585
503.606	1597
503.823	1510
504.04	1473
504.256	1506
504.473	1502
504.69	1483
504.907	1502
505.123	1452
505.34	1395
505.557	1373
505.773	1354
505.99	1348
506.207	1329
506.423	1322
506.64	1329
506.856	1306
507.073	1277
507.289	1290
507.506	1262
507.722	1265
507.939	1259
508.155	1277
508.372	1238
508.588	1252
508.805	1214
509.021	1222
509.238	1263
509.454	1306
509.67	1352
509.887	1282
510.103	1270
510.319	1226
510.536	1222
510.752	1254
510.968	1207
511.184	1207
511.401	1186
511.617	1181
511.833	1174
512.049	1169
512.265	1189
512.481	1190
512.698	1191
512.914	1193
513.13	1183
513.346	1203
513.562	1173
513.778	1194
513.994	1217
514.21	1214
514.426	1267
514.642	1300
514.858	1263
515.074	1222
515.29	1195
515.506	1222
515.721	1201
515.937	1265
516.153	1225
516.369	1239
516.585	1258
516.801	1265
517.016	1270
517.232	1335
517.448	1358
517.664	1366
517.879	1351
518.095	1367
518.311	1381
518.527	1293
518.742	1357
518.958	1345
519.173	1319
519.389	1309
519.605	1252
519.82	1229
520.036	1227
520.251	1221
520.467	1208
520.682	1160
520.898	1171
521.113	1169
521.329	1191
521.544	1119
521.76	1161
521.975	1138
522.19	1137
522.406	1159
522.621	1169
522.836	1147
523.052	1165
523.267	1165
523.482	1160
523.698	1153
523.913	1122
524.128	1175
524.343	1167
524.559	1163
524.774	1182
524.989	1158
525.204	1163
525.419	1157
525.634	1157
525.849	1179
526.064	1146
526.28	1124
526.495	1136
526.71	1133
526.925	1129
527.14	1159
527.355	1139
527.57	1135
527.785	1150
527.999	1157
528.214	1180
528.429	1199
528.644	1179
528.859	1201
529.074	1242
529.289	1270
529.503	1265
529.718	1254
529.933	1218
530.148	1175
530.363	1219
530.577	1170
530.792	1207
531.007	1226
531.221	1222
531.436	1239
531.651	1216
531.865	1251
532.08	1264
532.295	1306
532.509	1363
532.724	1366
532.938	1384
533.153	1377
533.367	1439
533.582	1504
533.796	1519
534.011	1432
534.225	1428
534.44	1373
534.654	1374
534.868	1345
535.083	1321
535.297	1295
535.511	1311
535.726	1312
535.94	1277
536.154	1282
536.369	1248
536.583	1205
536.797	1213
537.011	1195
537.225	1229
537.44	1174
537.654	1175
537.868	1163
538.082	1147
538.296	1152
538.51	1163
538.724	1137
538.938	1160
539.153	1112
539.367	1149
539.581	1128
539.795	1097
540.009	1098
540.222	1096
540.436	1097
540.65	1111
540.864	1135
541.078	1153
541.292	1199
541.506	1386
541.72	1427
541.934	1283
542.147	1252
542.361	1168
542.575	1143
542.789	1108
543.002	1085
543.216	1095
543.43	1082
543.644	1099
543.857	1121
544.071	1107
544.285	1098
544.498	1123
544.712	1099
544.925	1160
545.139	1097
545.352	1115
545.566	1145
545.779	1138
545.993	1122
546.206	1119
546.42	1124
546.633	1119
546.847	1142
547.06	1145
547.274	1154
547.487	1121
547.7	1129
547.914	1139
548.127	1139
548.34	1118
548.554	1157
548.767	1141
548.98	1122
549.193	1114
549.407	1117
549.62	1121
549.833	1118
550.046	1125
550.259	1120
550.473	1124
550.686	1127
550.899	1102
551.112	1128
551.325	1122
551.538	1124
551.751	1102
551.964	1099
552.177	1131
552.39	1143
552.603	1197
552.816	1151
553.029	1206
553.242	1202
553.455	1225
553.667	1235
553.88	1215
554.093	1242
554.306	1214
554.519	1232
554.732	1234
554.944	1264
555.157	1291
555.37	1317
555.583	1334
555.795	1396
556.008	1434
556.221	1553
556.433	1625
556.646	1617
556.859	1562
557.071	1547
557.284	1544
557.496	1493
557.709	1510
557.921	1517
558.134	1466
558.346	1481
558.559	1486
558.771	1596
558.984	1703
559.196	1767
559.409	1728
559.621	1609
559.833	1547
560.046	1468
560.258	1419
560.47	1366
560.683	1326
560.895	1309
561.107	1239
561.32	1234
561.532	1202
561.744	1193
561.956	1187
562.168	1155
562.381	1154
562.593	1128
562.805	1128
563.017	1122
563.229	1131
563.441	1211
563.653	1072
563.865	1041
564.077	1070
564.289	1035
564.501	1014
564.713	1053
564.925	1012
565.137	1030
565.349	1017
565.561	1045
565.773	1037
565.985	1062
566.197	1068
566.408	1062
566.62	1113
566.832	1159
567.044	1145
567.255	1137
567.467	1151
567.679	1172
567.891	1242
568.102	1306
568.314	1486
568.526	1291
568.737	1163
568.949	1096
569.161	985
569.372	957
569.584	927
569.795	932
570.007	921
570.218	953
570.43	952
570.641	887
570.853	890
571.064	897
571.276	856
571.487	867
571.698	842
571.91	837
572.121	820
572.333	844
572.544	811
572.755	846
572.966	974
573.178	863
573.389	829
573.6	770
573.811	773
574.023	749
574.234	763
574.445	761
574.656	735
574.867	722
575.078	727
575.289	750
575.501	744
575.712	730
575.923	726
576.134	736
576.345	743
576.556	751
576.767	762
576.978	744
577.188	776
577.399	765
577.61	747
577.821	761
578.032	748
578.243	776
578.454	806
578.665	801
578.875	817
579.086	842
579.297	849
579.508	897
579.718	963
579.929	1057
580.14	1159
580.35	1175
580.561	1140
580.772	1082
580.982	1036
581.193	953
581.403	897
581.614	879
581.825	835
582.035	822
582.246	809
582.456	780
582.667	751
582.877	749
583.087	747
583.298	711
583.508	693
583.719	661
583.929	679
584.139	636
584.35	671
584.56	651
584.77	627
584.981	618
585.191	637
585.401	615
585.611	622
585.821	615
586.032	610
586.242	611
586.452	606
586.662	569
586.872	582
587.082	583
587.292	567
587.502	557
587.713	576
587.923	573
588.133	582
588.343	545
588.553	557
588.762	548
588.972	560
589.182	575
589.392	545
589.602	535
589.812	537
590.022	557
590.232	531
590.441	526
590.651	528
590.861	519
591.071	548
591.281	530
591.49	542
591.7	534
591.91	533
592.119	527
592.329	515
592.539	528
592.748	544
592.958	555
593.167	548
593.377	577
593.587	584
593.796	571
594.006	571
594.215	579
594.424	551
594.634	552
594.843	559
595.053	537
595.262	527
595.472	519
595.681	501
595.89	494
596.1	511
596.309	497
596.518	498
596.727	517
596.937	481
597.146	497
597.355	466
597.564	471
597.774	470
597.983	461
598.192	454
598.401	468
598.61	461
598.819	456
599.028	441
599.237	436
599.446	449
599.655	461
599.864	446
600.073	438
600.282	424
600.491	418
600.7	448
600.909	453
601.118	452
601.327	445
601.536	430
601.745	441
601.953	493
602.162	510
602.371	499
602.58	447
602.789	455
602.997	455
603.206	438
603.415	418
603.623	442
603.832	440
604.041	418
604.249	450
604.458	417
604.666	429
604.875	424
605.084	420
605.292	411
605.501	417
605.709	438
605.918	429
606.126	450
606.334	448
606.543	439
606.751	445
606.96	502
607.168	531
607.376	456
607.585	455
607.793	436
608.001	436
608.21	434
608.418	433
608.626	418
608.834	422
609.043	414
609.251	402
609.459	412
609.667	409
609.875	434
610.083	423
610.291	405
610.499	414
610.707	387
610.916	382
611.124	402
611.332	413
611.54	407
611.748	400
611.955	404
612.163	397
612.371	378
612.579	395
612.787	404
612.995	390
613.203	413
613.411	370
613.618	384
613.826	402
614.034	415
614.242	391
614.449	393
614.657	377
614.865	387
615.072	373
615.28	393
615.488	395
615.695	376
615.903	399
616.111	378
616.318	392
616.526	395
616.733	382
616.941	376
617.148	373
617.356	393
617.563	389
617.771	377
617.978	361
618.185	371
618.393	379
618.6	398
618.807	377
619.015	393
619.222	359
619.429	358
619.637	348
619.844	352
620.051	367
620.258	354
620.466	359
620.673	354
620.88	341
621.087	355
621.294	340
621.501	340
621.708	343
621.915	352
622.122	346
622.329	351
622.536	361
622.743	368
622.95	362
623.157	351
623.364	345
623.571	353
623.778	359
623.985	347
624.192	330
624.399	343
624.606	344
624.812	346
625.019	338
625.226	327
625.433	331
625.639	309
625.846	322
626.053	312
626.259	331
626.466	321
626.673	324
626.879	313
627.086	320
627.293	296
627.499	321
627.706	338
627.912	353
628.119	329
628.325	338
628.532	321
628.738	328
628.945	312
629.151	298
629.357	295
629.564	324
629.77	332
629.976	306
630.183	313
630.389	319
630.595	298
630.802	305
631.008	286
631.214	306
631.42	317
631.627	296
631.833	314
632.039	321
632.245	321
632.451	305
632.657	306
632.863	303
633.069	292
633.275	298
633.481	311
633.688	289
633.893	299
634.099	278
634.305	301
634.511	301
634.717	314
634.923	304
635.129	333
635.335	351
635.541	326
635.747	315
635.952	308
636.158	291
636.364	289
636.57	293
636.775	297
636.981	309
637.187	297
637.392	293
637.598	306
637.804	318
638.009	303
638.215	295
638.421	295
638.626	291
638.832	310
639.037	301
639.243	298
639.448	312
639.654	295
639.859	328
640.065	297
640.27	321
640.475	311
640.681	305
640.886	314
641.091	334
641.297	313
641.502	336
641.707	313
641.913	344
642.118	327
642.323	339
642.528	322
642.733	339
642.939	343
643.144	371
643.349	354
643.554	377
643.759	397
643.964	385
644.169	397
644.374	438
644.579	453
644.784	467
644.989	531
645.194	593
645.399	682
645.604	685
645.809	572
646.014	468
646.219	416
646.423	369
646.628	356
646.833	345
647.038	332
647.243	320
647.447	312
647.652	329
647.857	300
648.062	303
648.266	276
648.471	286
648.676	300
648.88	297
649.085	285
649.289	261
649.494	257
649.698	260
649.903	264
650.107	261
650.312	278
650.516	262
650.721	230
650.925	251
651.13	244
651.334	246
651.539	226
651.743	231
651.947	239
652.152	215
652.356	222
652.56	245
652.764	255
652.969	224
653.173	245
653.377	209
653.581	221
653.785	210
653.99	224
654.194	222
654.398	211
654.602	199
654.806	211
655.01	206
655.214	211
655.418	188
655.622	215
655.826	217
656.03	218
656.234	221
656.438	234
656.642	220
656.846	218
657.049	207
657.253	197
657.457	190
657.661	195
657.865	180
658.068	161
658.272	152
658.476	159
658.68	158
658.883	149
659.087	135
659.291	128
659.494	128
659.698	123
659.901	132
660.105	130
660.309	116
660.512	120
660.716	116
660.919	116
661.123	123
661.326	111
661.53	102
661.733	102
661.936	99
662.14	96
662.343	86
662.546	94
662.75	91
662.953	86
663.156	84
663.36	95
663.563	93
663.766	86
663.969	81
664.173	86
664.376	86
664.579	90
664.782	90
664.985	95
665.188	77
665.391	81
665.594	86
665.797	89
666	83
666.203	84
666.406	86
666.609	89
666.812	77
667.015	93
667.218	79
667.421	81
667.624	72
667.827	81
668.03	90
668.232	67
668.435	88
668.638	88
668.841	76
669.043	90
669.246	83
669.449	69
669.651	84
669.854	83
670.057	85
670.259	75
670.462	88
670.665	86
670.867	78
671.07	80
671.272	81
671.475	78
671.677	71
671.88	74
672.082	83
672.284	86
672.487	72
672.689	78
672.892	81
