Data from SnStandardFlinnAPT0064_QswitchEnergy10_LIBS07252019.E.O._I.C._HRD10591_15-27-39-973.txt Node
Date: Thu Jul 25 15:27:39 EDT 2019
User: cochatt
Spectrometer: HR+D1059
Trigger mode: 1
Integration Time (sec): 1.000000E-1
Scans to average: 1
Electric dark correction enabled: true
Nonlinearity correction enabled: false
Boxcar width: 0
XAxis mode: Wavelengths
Number of Pixels in Spectrum: 2048
>>>>>Begin Spectral Data<<<<<
223.165	0
223.4	0
223.635	0
223.869	3
224.104	-25
224.338	-13
224.573	-22
224.808	-13
225.042	-5
225.277	-6
225.511	-16
225.746	10
225.98	1
226.215	18
226.449	5
226.683	23
226.918	21
227.152	19
227.387	32
227.621	40
227.856	34
228.09	40
228.324	49
228.559	63
228.793	67
229.027	75
229.262	77
229.496	59
229.73	67
229.964	74
230.199	84
230.433	78
230.667	76
230.901	70
231.136	77
231.37	73
231.604	93
231.838	95
232.072	119
232.306	114
232.541	99
232.775	89
233.009	102
233.243	87
233.477	88
233.711	70
233.945	99
234.179	99
234.413	95
234.647	77
234.881	86
235.115	103
235.349	97
235.583	104
235.817	129
236.051	131
236.285	95
236.519	82
236.753	83
236.987	82
237.221	79
237.455	90
237.689	63
237.922	78
238.156	87
238.39	90
238.624	86
238.858	89
239.091	78
239.325	69
239.559	75
239.793	76
240.027	87
240.26	75
240.494	82
240.728	85
240.961	90
241.195	97
241.429	91
241.662	85
241.896	83
242.13	106
242.363	136
242.597	159
242.83	129
243.064	150
243.298	161
243.531	136
243.765	87
243.998	86
244.232	72
244.465	79
244.699	101
244.932	84
245.166	91
245.399	72
245.633	89
245.866	89
246.099	77
246.333	87
246.566	91
246.8	93
247.033	94
247.266	72
247.5	75
247.733	92
247.966	90
248.2	101
248.433	91
248.666	128
248.899	123
249.133	95
249.366	96
249.599	102
249.832	129
250.066	127
250.299	91
250.532	85
250.765	88
250.998	80
251.231	79
251.465	68
251.698	82
251.931	77
252.164	76
252.397	78
252.63	108
252.863	95
253.096	75
253.329	87
253.562	87
253.795	90
254.028	82
254.261	94
254.494	102
254.727	124
254.96	135
255.193	136
255.426	90
255.659	81
255.892	90
256.124	76
256.357	83
256.59	81
256.823	89
257.056	108
257.289	145
257.521	154
257.754	115
257.987	88
258.22	85
258.452	83
258.685	101
258.918	88
259.151	94
259.383	115
259.616	129
259.849	152
260.081	100
260.314	92
260.547	89
260.779	86
261.012	87
261.244	83
261.477	96
261.71	80
261.942	104
262.175	97
262.407	68
262.64	112
262.872	102
263.105	81
263.337	84
263.57	94
263.802	97
264.035	91
264.267	84
264.499	86
264.732	87
264.964	92
265.197	89
265.429	96
265.661	90
265.894	97
266.126	118
266.358	161
266.591	151
266.823	95
267.055	97
267.287	83
267.52	87
267.752	93
267.984	92
268.216	80
268.448	82
268.681	83
268.913	92
269.145	77
269.377	93
269.609	93
269.841	101
270.073	109
270.306	138
270.538	195
270.77	297
271.002	377
271.234	200
271.466	119
271.698	101
271.93	101
272.162	86
272.394	91
272.626	86
272.858	83
273.09	81
273.322	95
273.553	98
273.785	84
274.017	95
274.249	101
274.481	83
274.713	81
274.945	96
275.176	84
275.408	88
275.64	83
275.872	97
276.104	98
276.335	98
276.567	92
276.799	82
277.031	92
277.262	86
277.494	112
277.726	126
277.957	187
278.189	240
278.421	213
278.652	174
278.884	171
279.115	123
279.347	102
279.579	109
279.81	93
280.042	90
280.273	98
280.505	100
280.736	95
280.968	116
281.199	161
281.431	217
281.662	264
281.894	147
282.125	117
282.356	100
282.588	106
282.819	105
283.051	137
283.282	127
283.513	183
283.745	307
283.976	536
284.207	761
284.439	594
284.67	261
284.901	252
285.132	337
285.364	360
285.595	225
285.826	161
286.057	244
286.288	389
286.52	599
286.751	485
286.982	199
287.213	116
287.444	117
287.675	101
287.906	100
288.138	98
288.369	98
288.6	94
288.831	103
289.062	101
289.293	104
289.524	89
289.755	114
289.986	82
290.217	74
290.448	100
290.679	104
290.91	123
291.141	165
291.371	235
291.602	285
291.833	195
292.064	111
292.295	109
292.526	97
292.757	97
292.987	96
293.218	95
293.449	80
293.68	78
293.91	87
294.141	90
294.372	98
294.603	94
294.833	89
295.064	91
295.295	104
295.525	99
295.756	96
295.987	95
296.217	88
296.448	106
296.679	96
296.909	89
297.14	103
297.37	114
297.601	103
297.831	99
298.062	103
298.292	92
298.523	102
298.753	102
298.984	102
299.214	102
299.445	108
299.675	104
299.905	112
300.136	124
300.366	161
300.597	263
300.827	423
301.057	675
301.288	605
301.518	233
301.748	159
301.979	124
302.209	124
302.439	148
302.669	166
302.9	263
303.13	492
303.36	855
303.59	1187
303.82	838
304.051	286
304.281	163
304.511	118
304.741	115
304.971	112
305.201	121
305.431	121
305.661	101
305.891	105
306.121	106
306.352	112
306.582	124
306.812	125
307.042	111
307.272	118
307.502	110
307.731	111
307.961	122
308.191	114
308.421	102
308.651	102
308.881	109
309.111	113
309.341	95
309.571	99
309.8	102
310.03	113
310.26	115
310.49	111
310.72	105
310.949	121
311.179	107
311.409	103
311.639	112
311.868	97
312.098	96
312.328	100
312.557	112
312.787	125
313.017	99
313.246	88
313.476	106
313.706	139
313.935	140
314.165	178
314.394	227
314.624	190
314.853	127
315.083	124
315.312	133
315.542	116
315.771	138
316.001	150
316.23	143
316.46	138
316.689	179
316.919	257
317.148	489
317.377	891
317.607	1409
317.836	1348
318.065	522
318.295	233
318.524	157
318.753	131
318.983	128
319.212	123
319.441	125
319.67	115
319.9	111
320.129	126
320.358	135
320.587	120
320.816	126
321.046	122
321.275	120
321.504	119
321.733	117
321.962	143
322.191	161
322.42	137
322.649	129
322.878	131
323.108	118
323.337	122
323.566	113
323.795	137
324.024	120
324.253	136
324.482	173
324.71	217
324.939	278
325.168	237
325.397	189
325.626	227
325.855	459
326.084	901
326.313	1495
326.542	1494
326.77	599
326.999	277
327.228	209
327.457	220
327.686	217
327.914	165
328.143	135
328.372	138
328.6	143
328.829	129
329.058	116
329.287	125
329.515	118
329.744	122
329.972	111
330.201	108
330.43	123
330.658	131
330.887	123
331.115	120
331.344	114
331.572	111
331.801	104
332.03	125
332.258	132
332.486	175
332.715	287
332.943	499
333.172	765
333.4	665
333.629	246
333.857	145
334.085	121
334.314	109
334.542	119
334.771	127
334.999	109
335.227	122
335.455	125
335.684	123
335.912	123
336.14	109
336.369	112
336.597	85
336.825	117
337.053	121
337.281	119
337.51	114
337.738	118
337.966	115
338.194	118
338.422	109
338.65	122
338.878	116
339.106	116
339.334	107
339.562	108
339.79	114
340.018	105
340.246	104
340.474	115
340.702	109
340.93	119
341.158	106
341.386	120
341.614	115
341.842	105
342.07	121
342.298	126
342.526	115
342.754	115
342.981	117
343.209	116
343.437	114
343.665	112
343.893	95
344.12	115
344.348	100
344.576	112
344.804	107
345.031	103
345.259	112
345.487	105
345.714	109
345.942	114
346.17	110
346.397	106
346.625	107
346.853	97
347.08	101
347.308	109
347.535	104
347.763	102
347.99	101
348.218	110
348.445	99
348.673	100
348.9	108
349.128	115
349.355	115
349.583	114
349.81	138
350.037	114
350.265	124
350.492	107
350.72	92
350.947	107
351.174	116
351.402	129
351.629	113
351.856	118
352.083	107
352.311	98
352.538	113
352.765	97
352.992	112
353.22	107
353.447	105
353.674	105
353.901	104
354.128	106
354.355	96
354.583	111
354.81	104
355.037	111
355.264	115
355.491	109
355.718	110
355.945	113
356.172	103
356.399	109
356.626	106
356.853	105
357.08	106
357.307	108
357.534	99
357.761	107
357.988	113
358.215	109
358.441	117
358.668	115
358.895	105
359.122	119
359.349	120
359.576	114
359.802	105
360.029	108
360.256	106
360.483	107
360.709	115
360.936	116
361.163	120
361.39	121
361.616	115
361.843	112
362.07	120
362.296	121
362.523	106
362.749	115
362.976	116
363.203	105
363.429	119
363.656	107
363.882	126
364.109	117
364.335	103
364.562	109
364.788	102
365.015	120
365.241	139
365.468	206
365.694	220
365.92	192
366.147	113
366.373	90
366.599	106
366.826	119
367.052	105
367.278	93
367.505	104
367.731	101
367.957	105
368.184	111
368.41	121
368.636	122
368.862	120
369.089	115
369.315	113
369.541	98
369.767	106
369.993	94
370.219	114
370.445	109
370.672	120
370.898	96
371.124	115
371.35	108
371.576	95
371.802	113
372.028	113
372.254	111
372.48	103
372.706	117
372.932	107
373.158	122
373.384	115
373.61	114
373.835	111
374.061	99
374.287	100
374.513	93
374.739	124
374.965	110
375.191	101
375.416	108
375.642	109
375.868	113
376.094	101
376.319	112
376.545	96
376.771	97
376.997	117
377.222	114
377.448	97
377.674	107
377.899	104
378.125	109
378.35	114
378.576	107
378.802	121
379.027	119
379.253	139
379.478	165
379.704	322
379.929	744
380.155	1504
380.38	1590
380.606	501
380.831	187
381.057	135
381.282	118
381.507	113
381.733	109
381.958	106
382.184	98
382.409	103
382.634	115
382.86	105
383.085	96
383.31	108
383.535	97
383.761	112
383.986	104
384.211	106
384.436	120
384.662	103
384.887	110
385.112	105
385.337	105
385.562	108
385.787	97
386.013	123
386.238	110
386.463	120
386.688	103
386.913	113
387.138	105
387.363	106
387.588	90
387.813	95
388.038	106
388.263	92
388.488	105
388.713	111
388.938	108
389.163	94
389.387	103
389.612	106
389.837	104
390.062	97
390.287	99
390.512	103
390.736	92
390.961	96
391.186	104
391.411	107
391.636	97
391.86	100
392.085	90
392.31	87
392.534	105
392.759	100
392.984	89
393.208	124
393.433	124
393.658	132
393.882	104
394.107	111
394.331	107
394.556	104
394.78	95
395.005	95
395.229	92
395.454	109
395.678	112
395.903	102
396.127	103
396.352	112
396.576	100
396.801	106
397.025	122
397.249	90
397.474	106
397.698	81
397.922	103
398.147	95
398.371	113
398.595	95
398.82	105
399.044	96
399.268	91
399.492	101
399.717	107
399.941	97
400.165	104
400.389	98
400.613	92
400.837	82
401.062	101
401.286	102
401.51	111
401.734	94
401.958	103
402.182	107
402.406	88
402.63	108
402.854	93
403.078	97
403.302	104
403.526	97
403.75	82
403.974	91
404.198	112
404.422	94
404.645	97
404.869	101
405.093	103
405.317	105
405.541	99
405.765	121
405.988	149
406.212	130
406.436	107
406.66	106
406.883	89
407.107	108
407.331	93
407.555	104
407.778	98
408.002	89
408.226	91
408.449	105
408.673	87
408.896	108
409.12	99
409.344	109
409.567	79
409.791	102
410.014	97
410.238	103
410.461	89
410.685	87
410.908	90
411.132	106
411.355	94
411.578	106
411.802	108
412.025	104
412.249	99
412.472	91
412.695	84
412.919	91
413.142	94
413.365	98
413.589	93
413.812	96
414.035	103
414.258	99
414.482	97
414.705	103
414.928	106
415.151	86
415.374	104
415.597	100
415.821	102
416.044	104
416.267	108
416.49	82
416.713	95
416.936	101
417.159	92
417.382	90
417.605	95
417.828	98
418.051	84
418.274	88
418.497	114
418.72	108
418.943	101
419.166	105
419.389	107
419.611	117
419.834	94
420.057	87
420.28	105
420.503	101
420.726	90
420.948	85
421.171	106
421.394	102
421.617	92
421.839	98
422.062	89
422.285	102
422.507	117
422.73	117
422.953	129
423.175	116
423.398	95
423.621	103
423.843	92
424.066	83
424.288	94
424.511	108
424.733	117
424.956	96
425.178	113
425.401	101
425.623	102
425.846	97
426.068	103
426.291	112
426.513	98
426.735	108
426.958	99
427.18	90
427.402	94
427.625	94
427.847	96
428.069	106
428.292	96
428.514	104
428.736	96
428.958	106
429.181	93
429.403	88
429.625	92
429.847	104
430.069	98
430.292	104
430.514	111
430.736	113
430.958	101
431.18	96
431.402	85
431.624	95
431.846	81
432.068	97
432.29	95
432.512	94
432.734	95
432.956	85
433.178	98
433.4	101
433.622	92
433.844	98
434.066	102
434.287	105
434.509	100
434.731	101
434.953	96
435.175	90
435.397	111
435.618	107
435.84	101
436.062	89
436.284	91
436.505	86
436.727	96
436.949	98
437.17	93
437.392	91
437.614	89
437.835	82
438.057	96
438.278	99
438.5	98
438.721	106
438.943	94
439.165	122
439.386	108
439.608	116
439.829	113
440.05	120
440.272	125
440.493	101
440.715	95
440.936	90
441.158	103
441.379	91
441.6	95
441.822	107
442.043	125
442.264	130
442.486	123
442.707	108
442.928	93
443.149	104
443.371	111
443.592	87
443.813	102
444.034	105
444.255	89
444.476	91
444.698	81
444.919	102
445.14	183
445.361	140
445.582	108
445.803	80
446.024	103
446.245	94
446.466	90
446.687	106
446.908	104
447.129	92
447.35	86
447.571	92
447.792	105
448.013	110
448.234	92
448.455	115
448.675	105
448.896	104
449.117	111
449.338	141
449.559	160
449.779	124
450	107
450.221	104
450.442	104
450.662	122
450.883	114
451.104	120
451.324	128
451.545	112
451.766	120
451.986	132
452.207	205
452.428	544
452.648	1306
452.869	753
453.089	187
453.31	125
453.53	120
453.751	140
453.971	159
454.192	159
454.412	114
454.633	97
454.853	104
455.073	91
455.294	111
455.514	93
455.734	91
455.955	91
456.175	96
456.395	101
456.616	87
456.836	105
457.056	84
457.276	109
457.497	120
457.717	120
457.937	111
458.157	100
458.377	84
458.598	90
458.818	79
459.038	80
459.258	86
459.478	92
459.698	95
459.918	90
460.138	83
460.358	105
460.578	118
460.798	89
461.018	92
461.238	98
461.458	101
461.678	94
461.898	90
462.118	107
462.338	114
462.558	111
462.777	105
462.997	83
463.217	103
463.437	129
463.657	191
463.876	178
464.096	135
464.316	93
464.536	100
464.755	109
464.975	100
465.195	96
465.414	97
465.634	93
465.854	94
466.073	103
466.293	93
466.512	99
466.732	104
466.951	120
467.171	161
467.391	130
467.61	97
467.829	108
468.049	97
468.268	101
468.488	112
468.707	84
468.927	102
469.146	92
469.365	97
469.585	91
469.804	99
470.023	101
470.243	102
470.462	99
470.681	118
470.901	133
471.12	194
471.339	197
471.558	136
471.777	100
471.997	117
472.216	96
472.435	99
472.654	95
472.873	97
473.092	93
473.311	101
473.53	103
473.749	91
473.968	106
474.187	99
474.406	96
474.625	97
474.844	109
475.063	101
475.282	83
475.501	90
475.72	108
475.939	89
476.158	111
476.377	103
476.596	111
476.814	95
477.033	89
477.252	95
477.471	100
477.69	102
477.908	106
478.127	90
478.346	100
478.564	107
478.783	104
479.002	98
479.22	97
479.439	105
479.658	93
479.876	99
480.095	103
480.313	100
480.532	88
480.751	85
480.969	91
481.188	97
481.406	111
481.624	116
481.843	113
482.061	107
482.28	94
482.498	100
482.717	94
482.935	108
483.153	109
483.372	106
483.59	96
483.808	100
484.027	107
484.245	105
484.463	165
484.681	225
484.9	150
485.118	111
485.336	111
485.554	118
485.772	122
485.99	180
486.209	229
486.427	164
486.645	118
486.863	116
487.081	104
487.299	111
487.517	109
487.735	93
487.953	97
488.171	83
488.389	104
488.607	100
488.825	98
489.043	93
489.261	95
489.479	98
489.696	91
489.914	102
490.132	95
490.35	106
490.568	96
490.786	110
491.003	90
491.221	103
491.439	108
491.657	111
491.874	99
492.092	94
492.31	108
492.527	102
492.745	95
492.963	114
493.18	115
493.398	92
493.615	115
493.833	93
494.05	104
494.268	104
494.485	97
494.703	97
494.92	116
495.138	115
495.355	110
495.573	120
495.79	99
496.008	103
496.225	104
496.442	107
496.66	117
496.877	165
497.094	151
497.312	108
497.529	111
497.746	100
497.963	102
498.181	102
498.398	122
498.615	104
498.832	115
499.049	102
499.267	138
499.484	171
499.701	125
499.918	100
500.135	107
500.352	100
500.569	96
500.786	104
501.003	118
501.22	120
501.437	94
501.654	95
501.871	91
502.088	89
502.305	102
502.522	105
502.739	98
502.956	117
503.172	102
503.389	95
503.606	104
503.823	107
504.04	103
504.256	80
504.473	99
504.69	98
504.907	121
505.123	111
505.34	110
505.557	91
505.773	93
505.99	108
506.207	104
506.423	115
506.64	109
506.856	103
507.073	95
507.289	104
507.506	112
507.722	100
507.939	98
508.155	93
508.372	102
508.588	91
508.805	99
509.021	99
509.238	108
509.454	143
509.67	159
509.887	105
510.103	95
510.319	122
510.536	91
510.752	121
510.968	106
511.184	86
511.401	105
511.617	108
511.833	105
512.049	105
512.265	90
512.481	100
512.698	89
512.914	93
513.13	93
513.346	99
513.562	99
513.778	90
513.994	95
514.21	102
514.426	131
514.642	185
514.858	132
515.074	105
515.29	107
515.506	87
515.721	96
515.937	97
516.153	97
516.369	105
516.585	100
516.801	122
517.016	86
517.232	99
517.448	107
517.664	104
517.879	118
518.095	94
518.311	103
518.527	101
518.742	100
518.958	115
519.173	180
519.389	123
519.605	89
519.82	83
520.036	111
520.251	98
520.467	89
520.682	91
520.898	104
521.113	100
521.329	102
521.544	97
521.76	105
521.975	104
522.19	113
522.406	106
522.621	112
522.836	99
523.052	83
523.267	93
523.482	89
523.698	83
523.913	96
524.128	101
524.343	80
524.559	112
524.774	88
524.989	103
525.204	98
525.419	97
525.634	93
525.849	105
526.064	99
526.28	88
526.495	101
526.71	107
526.925	93
527.14	96
527.355	99
527.57	94
527.785	107
527.999	97
528.214	98
528.429	95
528.644	98
528.859	90
529.074	107
529.289	105
529.503	101
529.718	95
529.933	91
530.148	85
530.363	101
530.577	90
530.792	100
531.007	89
531.221	93
531.436	94
531.651	92
531.865	95
532.08	89
532.295	100
532.509	139
532.724	113
532.938	91
533.153	108
533.367	94
533.582	116
533.796	91
534.011	97
534.225	89
534.44	87
534.654	103
534.868	100
535.083	96
535.297	99
535.511	97
535.726	99
535.94	110
536.154	96
536.369	91
536.583	92
536.797	96
537.011	97
537.225	97
537.44	110
537.654	93
537.868	108
538.082	78
538.296	90
538.51	96
538.724	99
538.938	88
539.153	99
539.367	98
539.581	102
539.795	88
540.009	118
540.222	89
540.436	98
540.65	111
540.864	96
541.078	125
541.292	129
541.506	204
541.72	197
541.934	126
542.147	109
542.361	89
542.575	111
542.789	102
543.002	112
543.216	73
543.43	99
543.644	96
543.857	95
544.071	92
544.285	114
544.498	116
544.712	98
544.925	117
545.139	108
545.352	102
545.566	107
545.779	113
545.993	106
546.206	106
546.42	116
546.633	98
546.847	104
547.06	89
547.274	102
547.487	99
547.7	92
547.914	102
548.127	86
548.34	89
548.554	106
548.767	109
548.98	104
549.193	112
549.407	103
549.62	113
549.833	98
550.046	119
550.259	104
550.473	115
550.686	107
550.899	98
551.112	115
551.325	111
551.538	112
551.751	99
551.964	94
552.177	95
552.39	99
552.603	112
552.816	104
553.029	99
553.242	95
553.455	112
553.667	100
553.88	98
554.093	104
554.306	119
554.519	107
554.732	111
554.944	115
555.157	100
555.37	103
555.583	98
555.795	100
556.008	111
556.221	155
556.433	121
556.646	104
556.859	89
557.071	115
557.284	132
557.496	118
557.709	114
557.921	112
558.134	106
558.346	97
558.559	98
558.771	92
558.984	96
559.196	93
559.409	101
559.621	109
559.833	101
560.046	98
560.258	93
560.47	98
560.683	111
560.895	101
561.107	105
561.32	92
561.532	89
561.744	102
561.956	94
562.168	85
562.381	93
562.593	98
562.805	128
563.017	156
563.229	251
563.441	562
563.653	204
563.865	111
564.077	111
564.289	88
564.501	97
564.713	93
564.925	101
565.137	94
565.349	91
565.561	100
565.773	95
565.985	90
566.197	102
566.408	103
566.62	99
566.832	93
567.044	101
567.255	106
567.467	111
567.679	100
567.891	103
568.102	177
568.314	266
568.526	160
568.737	113
568.949	104
569.161	103
569.372	92
569.584	104
569.795	94
570.007	95
570.218	121
570.43	156
570.641	108
570.853	106
571.064	87
571.276	99
571.487	101
571.698	92
571.91	95
572.121	108
572.333	82
572.544	115
572.755	131
572.966	188
573.178	117
573.389	101
573.6	98
573.811	82
574.023	74
574.234	82
574.445	92
574.656	95
574.867	101
575.078	93
575.289	91
575.501	104
575.712	86
575.923	96
576.134	98
576.345	95
576.556	97
576.767	77
576.978	73
577.188	98
577.399	82
577.61	95
577.821	100
578.032	94
578.243	89
578.454	99
578.665	94
578.875	99
579.086	103
579.297	92
579.508	96
579.718	93
579.929	92
580.14	77
580.35	101
580.561	93
580.772	92
580.982	104
581.193	93
581.403	84
581.614	106
581.825	89
582.035	79
582.246	89
582.456	99
582.667	90
582.877	113
583.087	117
583.298	97
583.508	87
583.719	80
583.929	96
584.139	96
584.35	108
584.56	106
584.77	98
584.981	89
585.191	98
585.401	89
585.611	102
585.821	90
586.032	92
586.242	106
586.452	105
586.662	91
586.872	92
587.082	91
587.292	99
587.502	96
587.713	71
587.923	98
588.133	81
588.343	99
588.553	111
588.762	99
588.972	100
589.182	120
589.392	104
589.602	115
589.812	97
590.022	94
590.232	85
590.441	109
590.651	87
590.861	86
591.071	87
591.281	90
591.49	89
591.7	87
591.91	92
592.119	94
592.329	92
592.539	69
592.748	97
592.958	107
593.167	87
593.377	107
593.587	99
593.796	86
594.006	104
594.215	86
594.424	95
594.634	88
594.843	84
595.053	101
595.262	90
595.472	87
595.681	89
595.89	108
596.1	87
596.309	90
596.518	115
596.727	91
596.937	102
597.146	89
597.355	93
597.564	105
597.774	92
597.983	97
598.192	97
598.401	87
598.61	104
598.819	87
599.028	99
599.237	83
599.446	100
599.655	97
599.864	89
600.073	97
600.282	100
600.491	92
600.7	84
600.909	77
601.118	103
601.327	101
601.536	92
601.745	81
601.953	121
602.162	168
602.371	107
602.58	116
602.789	91
602.997	87
603.206	98
603.415	87
603.623	97
603.832	123
604.041	113
604.249	93
604.458	95
604.666	97
604.875	92
605.084	85
605.292	92
605.501	95
605.709	96
605.918	103
606.126	101
606.334	105
606.543	97
606.751	126
606.96	161
607.168	169
607.376	116
607.585	89
607.793	104
608.001	106
608.21	84
608.418	94
608.626	88
608.834	75
609.043	97
609.251	98
609.459	99
609.667	95
609.875	82
610.083	97
610.291	85
610.499	84
610.707	101
610.916	105
611.124	88
611.332	85
611.54	96
611.748	82
611.955	94
612.163	88
612.371	75
612.579	86
612.787	92
612.995	88
613.203	110
613.411	88
613.618	87
613.826	90
614.034	106
614.242	94
614.449	92
614.657	101
614.865	99
615.072	86
615.28	106
615.488	111
615.695	98
615.903	105
616.111	105
616.318	105
616.526	91
616.733	92
616.941	98
617.148	98
617.356	103
617.563	86
617.771	89
617.978	96
618.185	92
618.393	83
618.6	83
618.807	91
619.015	100
619.222	85
619.429	93
619.637	101
619.844	95
620.051	95
620.258	91
620.466	92
620.673	81
620.88	96
621.087	93
621.294	104
621.501	94
621.708	83
621.915	96
622.122	91
622.329	77
622.536	98
622.743	87
622.95	88
623.157	86
623.364	91
623.571	88
623.778	88
623.985	100
624.192	95
624.399	84
624.606	80
624.812	83
625.019	96
625.226	74
625.433	91
625.639	93
625.846	82
626.053	95
626.259	87
626.466	92
626.673	90
626.879	84
627.086	75
627.293	95
627.499	92
627.706	81
627.912	84
628.119	87
628.325	94
628.532	81
628.738	86
628.945	87
629.151	93
629.357	94
629.564	85
629.77	90
629.976	89
630.183	71
630.389	75
630.595	80
630.802	87
631.008	89
631.214	91
631.42	84
631.627	89
631.833	91
632.039	91
632.245	96
632.451	90
632.657	84
632.863	90
633.069	88
633.275	93
633.481	89
633.688	91
633.893	96
634.099	90
634.305	84
634.511	91
634.717	83
634.923	96
635.129	103
635.335	131
635.541	89
635.747	104
635.952	95
636.158	83
636.364	87
636.57	101
636.775	82
636.981	92
637.187	102
637.392	99
637.598	82
637.804	92
638.009	83
638.215	92
638.421	90
638.626	80
638.832	97
639.037	97
639.243	90
639.448	72
639.654	104
639.859	91
640.065	89
640.27	95
640.475	95
640.681	86
640.886	91
641.091	86
641.297	90
641.502	86
641.707	87
641.913	89
642.118	86
642.323	84
642.528	91
642.733	79
642.939	79
643.144	78
643.349	92
643.554	83
643.759	93
643.964	74
644.169	88
644.374	82
644.579	91
644.784	95
644.989	102
645.194	87
645.399	113
645.604	93
645.809	101
646.014	85
646.219	96
646.423	98
646.628	90
646.833	80
647.038	101
647.243	91
647.447	89
647.652	88
647.857	88
648.062	85
648.266	84
648.471	96
648.676	92
648.88	81
649.085	96
649.289	78
649.494	81
649.698	88
649.903	89
650.107	94
650.312	92
650.516	90
650.721	91
650.925	77
651.13	87
651.334	78
651.539	92
651.743	77
651.947	99
652.152	92
652.356	103
652.56	104
652.764	83
652.969	81
653.173	91
653.377	82
653.581	89
653.785	87
653.99	82
654.194	85
654.398	86
654.602	97
654.806	75
655.01	83
655.214	92
655.418	89
655.622	76
655.826	68
656.03	83
656.234	88
656.438	102
656.642	87
656.846	88
657.049	77
657.253	83
657.457	73
657.661	70
657.865	83
658.068	97
658.272	88
658.476	89
658.68	83
658.883	72
659.087	73
659.291	91
659.494	74
659.698	90
659.901	83
660.105	93
660.309	86
660.512	77
660.716	76
660.919	90
661.123	93
661.326	101
661.53	88
661.733	95
661.936	82
662.14	78
662.343	77
662.546	83
662.75	82
662.953	75
663.156	103
663.36	84
663.563	90
663.766	84
663.969	78
664.173	78
664.376	73
664.579	74
664.782	78
664.985	90
665.188	104
665.391	71
665.594	78
665.797	76
666	74
666.203	83
666.406	79
666.609	84
666.812	99
667.015	87
667.218	87
667.421	80
667.624	84
667.827	83
668.03	73
668.232	85
668.435	76
668.638	72
668.841	90
669.043	79
669.246	99
669.449	86
669.651	89
669.854	84
670.057	86
670.259	75
670.462	82
670.665	91
670.867	83
671.07	93
671.272	77
671.475	77
671.677	83
671.88	74
672.082	80
672.284	104
672.487	90
672.689	80
672.892	76
