Data from SnStandardFlinnAPT0064_QswitchEnergy10_LIBS07252019.E.O._I.C._HRD10591_15-26-48-973.txt Node
Date: Thu Jul 25 15:26:48 EDT 2019
User: cochatt
Spectrometer: HR+D1059
Trigger mode: 1
Integration Time (sec): 1.000000E-1
Scans to average: 1
Electric dark correction enabled: true
Nonlinearity correction enabled: false
Boxcar width: 0
XAxis mode: Wavelengths
Number of Pixels in Spectrum: 2048
>>>>>Begin Spectral Data<<<<<
223.165	-18
223.4	-18
223.635	-18
223.869	-28
224.104	-23
224.338	-20
224.573	-19
224.808	6
225.042	-8
225.277	-8
225.511	1
225.746	2
225.98	21
226.215	-2
226.449	17
226.683	14
226.918	34
227.152	31
227.387	27
227.621	30
227.856	46
228.09	30
228.324	48
228.559	56
228.793	49
229.027	86
229.262	66
229.496	56
229.73	69
229.964	81
230.199	69
230.433	66
230.667	80
230.901	71
231.136	84
231.37	92
231.604	82
231.838	97
232.072	102
232.306	114
232.541	94
232.775	90
233.009	77
233.243	76
233.477	90
233.711	81
233.945	98
234.179	76
234.413	81
234.647	85
234.881	93
235.115	78
235.349	82
235.583	112
235.817	113
236.051	128
236.285	97
236.519	78
236.753	74
236.987	86
237.221	85
237.455	80
237.689	57
237.922	68
238.156	88
238.39	87
238.624	84
238.858	74
239.091	81
239.325	75
239.559	74
239.793	73
240.027	81
240.26	86
240.494	98
240.728	77
240.961	94
241.195	98
241.429	96
241.662	79
241.896	93
242.13	110
242.363	130
242.597	168
242.83	138
243.064	128
243.298	190
243.531	139
243.765	96
243.998	91
244.232	79
244.465	71
244.699	62
244.932	77
245.166	75
245.399	89
245.633	85
245.866	105
246.099	81
246.333	75
246.566	74
246.8	93
247.033	94
247.266	88
247.5	96
247.733	82
247.966	85
248.2	75
248.433	117
248.666	132
248.899	119
249.133	88
249.366	94
249.599	104
249.832	111
250.066	130
250.299	88
250.532	78
250.765	94
250.998	75
251.231	86
251.465	72
251.698	70
251.931	72
252.164	85
252.397	90
252.63	101
252.863	103
253.096	91
253.329	87
253.562	99
253.795	93
254.028	97
254.261	77
254.494	89
254.727	129
254.96	146
255.193	120
255.426	97
255.659	89
255.892	97
256.124	101
256.357	99
256.59	99
256.823	109
257.056	108
257.289	156
257.521	185
257.754	122
257.987	100
258.22	91
258.452	97
258.685	81
258.918	96
259.151	94
259.383	103
259.616	142
259.849	160
260.081	110
260.314	98
260.547	71
260.779	81
261.012	78
261.244	81
261.477	90
261.71	87
261.942	88
262.175	81
262.407	77
262.64	81
262.872	78
263.105	90
263.337	83
263.57	81
263.802	95
264.035	93
264.267	91
264.499	73
264.732	94
264.964	78
265.197	79
265.429	84
265.661	97
265.894	87
266.126	124
266.358	158
266.591	170
266.823	101
267.055	80
267.287	93
267.52	92
267.752	96
267.984	94
268.216	86
268.448	86
268.681	112
268.913	83
269.145	93
269.377	95
269.609	82
269.841	90
270.073	95
270.306	130
270.538	204
270.77	318
271.002	393
271.234	213
271.466	120
271.698	97
271.93	86
272.162	100
272.394	99
272.626	87
272.858	82
273.09	83
273.322	78
273.553	88
273.785	88
274.017	75
274.249	84
274.481	77
274.713	95
274.945	82
275.176	85
275.408	70
275.64	76
275.872	88
276.104	88
276.335	103
276.567	99
276.799	102
277.031	86
277.262	104
277.494	97
277.726	126
277.957	188
278.189	264
278.421	241
278.652	189
278.884	190
279.115	137
279.347	126
279.579	88
279.81	89
280.042	86
280.273	110
280.505	97
280.736	100
280.968	134
281.199	184
281.431	271
281.662	269
281.894	165
282.125	112
282.356	120
282.588	103
282.819	112
283.051	117
283.282	134
283.513	213
283.745	317
283.976	546
284.207	846
284.439	622
284.67	288
284.901	264
285.132	355
285.364	409
285.595	256
285.826	176
286.057	259
286.288	412
286.52	648
286.751	534
286.982	188
287.213	126
287.444	92
287.675	105
287.906	99
288.138	108
288.369	93
288.6	88
288.831	88
289.062	94
289.293	90
289.524	88
289.755	93
289.986	96
290.217	95
290.448	103
290.679	100
290.91	125
291.141	159
291.371	231
291.602	308
291.833	203
292.064	100
292.295	91
292.526	92
292.757	100
292.987	87
293.218	85
293.449	82
293.68	93
293.91	94
294.141	76
294.372	97
294.603	95
294.833	88
295.064	85
295.295	92
295.525	75
295.756	84
295.987	90
296.217	94
296.448	93
296.679	96
296.909	87
297.14	95
297.37	93
297.601	84
297.831	88
298.062	104
298.292	97
298.523	97
298.753	97
298.984	109
299.214	120
299.445	125
299.675	132
299.905	111
300.136	124
300.366	163
300.597	275
300.827	479
301.057	722
301.288	646
301.518	237
301.748	153
301.979	139
302.209	120
302.439	140
302.669	165
302.9	284
303.13	528
303.36	897
303.59	1296
303.82	879
304.051	300
304.281	172
304.511	138
304.741	120
304.971	118
305.201	97
305.431	112
305.661	103
305.891	92
306.121	92
306.352	99
306.582	105
306.812	99
307.042	117
307.272	106
307.502	108
307.731	101
307.961	101
308.191	98
308.421	125
308.651	107
308.881	98
309.111	113
309.341	106
309.571	120
309.8	99
310.03	100
310.26	97
310.49	99
310.72	85
310.949	112
311.179	108
311.409	100
311.639	112
311.868	101
312.098	108
312.328	88
312.557	108
312.787	112
313.017	108
313.246	118
313.476	108
313.706	109
313.935	155
314.165	204
314.394	233
314.624	172
314.853	126
315.083	128
315.312	121
315.542	130
315.771	133
316.001	137
316.23	142
316.46	146
316.689	176
316.919	270
317.148	503
317.377	945
317.607	1581
317.836	1442
318.065	547
318.295	218
318.524	150
318.753	131
318.983	124
319.212	118
319.441	128
319.67	118
319.9	115
320.129	128
320.358	122
320.587	111
320.816	119
321.046	130
321.275	130
321.504	135
321.733	134
321.962	175
322.191	173
322.42	126
322.649	118
322.878	116
323.108	115
323.337	121
323.566	132
323.795	120
324.024	133
324.253	149
324.482	174
324.71	245
324.939	297
325.168	256
325.397	174
325.626	256
325.855	489
326.084	966
326.313	1670
326.542	1635
326.77	654
326.999	270
327.228	210
327.457	239
327.686	227
327.914	159
328.143	135
328.372	128
328.6	125
328.829	105
329.058	102
329.287	132
329.515	116
329.744	102
329.972	116
330.201	116
330.43	103
330.658	118
330.887	109
331.115	105
331.344	107
331.572	130
331.801	128
332.03	120
332.258	135
332.486	173
332.715	290
332.943	528
333.172	792
333.4	702
333.629	252
333.857	144
334.085	127
334.314	105
334.542	109
334.771	128
334.999	119
335.227	145
335.455	125
335.684	130
335.912	131
336.14	113
336.369	110
336.597	96
336.825	114
337.053	99
337.281	110
337.51	105
337.738	100
337.966	105
338.194	105
338.422	110
338.65	97
338.878	110
339.106	121
339.334	120
339.562	124
339.79	128
340.018	121
340.246	113
340.474	112
340.702	97
340.93	115
341.158	103
341.386	119
341.614	134
341.842	120
342.07	119
342.298	115
342.526	125
342.754	109
342.981	117
343.209	112
343.437	114
343.665	104
343.893	106
344.12	112
344.348	110
344.576	117
344.804	108
345.031	103
345.259	96
345.487	109
345.714	116
345.942	95
346.17	104
346.397	104
346.625	88
346.853	94
347.08	96
347.308	128
347.535	117
347.763	115
347.99	112
348.218	90
348.445	88
348.673	121
348.9	120
349.128	119
349.355	116
349.583	122
349.81	118
350.037	124
350.265	96
350.492	114
350.72	117
350.947	114
351.174	116
351.402	116
351.629	104
351.856	102
352.083	100
352.311	99
352.538	114
352.765	108
352.992	93
353.22	103
353.447	105
353.674	112
353.901	116
354.128	109
354.355	110
354.583	103
354.81	110
355.037	101
355.264	92
355.491	99
355.718	97
355.945	89
356.172	92
356.399	106
356.626	97
356.853	106
357.08	112
357.307	110
357.534	107
357.761	112
357.988	113
358.215	113
358.441	112
358.668	100
358.895	110
359.122	114
359.349	103
359.576	112
359.802	100
360.029	105
360.256	121
360.483	87
360.709	111
360.936	103
361.163	99
361.39	109
361.616	117
361.843	110
362.07	106
362.296	124
362.523	105
362.749	103
362.976	103
363.203	106
363.429	92
363.656	111
363.882	112
364.109	113
364.335	102
364.562	110
364.788	105
365.015	122
365.241	123
365.468	189
365.694	264
365.92	232
366.147	112
366.373	117
366.599	88
366.826	104
367.052	85
367.278	88
367.505	93
367.731	91
367.957	98
368.184	110
368.41	113
368.636	116
368.862	102
369.089	104
369.315	93
369.541	113
369.767	108
369.993	92
370.219	112
370.445	106
370.672	95
370.898	101
371.124	99
371.35	94
371.576	100
371.802	105
372.028	124
372.254	112
372.48	116
372.706	99
372.932	113
373.158	112
373.384	116
373.61	118
373.835	115
374.061	114
374.287	100
374.513	97
374.739	108
374.965	101
375.191	110
375.416	105
375.642	107
375.868	116
376.094	113
376.319	113
376.545	121
376.771	116
376.997	104
377.222	110
377.448	109
377.674	111
377.899	109
378.125	94
378.35	101
378.576	100
378.802	105
379.027	123
379.253	126
379.478	186
379.704	296
379.929	788
380.155	1644
380.38	1694
380.606	525
380.831	206
381.057	132
381.282	116
381.507	109
381.733	117
381.958	120
382.184	127
382.409	102
382.634	113
382.86	101
383.085	90
383.31	92
383.535	94
383.761	108
383.986	95
384.211	113
384.436	102
384.662	97
384.887	99
385.112	106
385.337	96
385.562	98
385.787	109
386.013	106
386.238	104
386.463	118
386.688	100
386.913	96
387.138	106
387.363	92
387.588	112
387.813	101
388.038	101
388.263	97
388.488	99
388.713	89
388.938	104
389.163	100
389.387	100
389.612	99
389.837	105
390.062	98
390.287	118
390.512	110
390.736	102
390.961	89
391.186	96
391.411	81
391.636	111
391.86	116
392.085	95
392.31	99
392.534	96
392.759	88
392.984	92
393.208	108
393.433	146
393.658	129
393.882	114
394.107	97
394.331	106
394.556	94
394.78	92
395.005	88
395.229	89
395.454	96
395.678	106
395.903	101
396.127	100
396.352	95
396.576	98
396.801	105
397.025	129
397.249	125
397.474	105
397.698	95
397.922	94
398.147	120
398.371	95
398.595	87
398.82	108
399.044	104
399.268	108
399.492	87
399.717	97
399.941	102
400.165	99
400.389	91
400.613	93
400.837	97
401.062	93
401.286	96
401.51	83
401.734	105
401.958	105
402.182	100
402.406	100
402.63	99
402.854	95
403.078	88
403.302	90
403.526	99
403.75	105
403.974	92
404.198	97
404.422	101
404.645	98
404.869	105
405.093	95
405.317	88
405.541	112
405.765	124
405.988	145
406.212	122
406.436	101
406.66	102
406.883	87
407.107	96
407.331	82
407.555	95
407.778	90
408.002	98
408.226	102
408.449	100
408.673	108
408.896	80
409.12	98
409.344	98
409.567	104
409.791	81
410.014	111
410.238	94
410.461	112
410.685	101
410.908	95
411.132	100
411.355	106
411.578	104
411.802	88
412.025	92
412.249	95
412.472	92
412.695	85
412.919	112
413.142	90
413.365	101
413.589	83
413.812	88
414.035	108
414.258	104
414.482	104
414.705	93
414.928	108
415.151	103
415.374	95
415.597	97
415.821	103
416.044	90
416.267	101
416.49	84
416.713	90
416.936	92
417.159	80
417.382	101
417.605	89
417.828	113
418.051	101
418.274	108
418.497	92
418.72	95
418.943	94
419.166	110
419.389	103
419.611	105
419.834	84
420.057	104
420.28	93
420.503	96
420.726	112
420.948	93
421.171	93
421.394	99
421.617	101
421.839	104
422.062	100
422.285	93
422.507	94
422.73	127
422.953	120
423.175	110
423.398	103
423.621	88
423.843	88
424.066	111
424.288	101
424.511	99
424.733	87
424.956	85
425.178	87
425.401	94
425.623	78
425.846	99
426.068	102
426.291	103
426.513	91
426.735	88
426.958	86
427.18	94
427.402	91
427.625	83
427.847	95
428.069	100
428.292	86
428.514	102
428.736	97
428.958	90
429.181	90
429.403	98
429.625	101
429.847	93
430.069	113
430.292	118
430.514	103
430.736	96
430.958	95
431.18	104
431.402	101
431.624	74
431.846	80
432.068	94
432.29	97
432.512	94
432.734	78
432.956	86
433.178	97
433.4	110
433.622	98
433.844	89
434.066	91
434.287	84
434.509	97
434.731	75
434.953	69
435.175	104
435.397	106
435.618	82
435.84	86
436.062	99
436.284	89
436.505	90
436.727	84
436.949	96
437.17	100
437.392	88
437.614	73
437.835	80
438.057	81
438.278	97
438.5	85
438.721	94
438.943	100
439.165	119
439.386	111
439.608	87
439.829	101
440.05	114
440.272	116
440.493	104
440.715	98
440.936	93
441.158	90
441.379	87
441.6	103
441.822	105
442.043	129
442.264	126
442.486	103
442.707	85
442.928	91
443.149	96
443.371	101
443.592	77
443.813	89
444.034	101
444.255	97
444.476	77
444.698	101
444.919	102
445.14	203
445.361	138
445.582	111
445.803	105
446.024	98
446.245	104
446.466	105
446.687	97
446.908	92
447.129	77
447.35	96
447.571	100
447.792	93
448.013	99
448.234	103
448.455	96
448.675	101
448.896	99
449.117	96
449.338	141
449.559	151
449.779	125
450	113
450.221	130
450.442	120
450.662	113
450.883	113
451.104	111
451.324	112
451.545	118
451.766	129
451.986	129
452.207	230
452.428	592
452.648	1433
452.869	818
453.089	196
453.31	115
453.53	132
453.751	154
453.971	175
454.192	160
454.412	97
454.633	101
454.853	98
455.073	81
455.294	94
455.514	75
455.734	79
455.955	88
456.175	89
456.395	84
456.616	95
456.836	101
457.056	90
457.276	91
457.497	109
457.717	121
457.937	105
458.157	86
458.377	80
458.598	78
458.818	91
459.038	97
459.258	75
459.478	88
459.698	84
459.918	89
460.138	106
460.358	93
460.578	89
460.798	96
461.018	84
461.238	83
461.458	89
461.678	93
461.898	93
462.118	108
462.338	98
462.558	76
462.777	95
462.997	98
463.217	117
463.437	135
463.657	204
463.876	186
464.096	118
464.316	108
464.536	92
464.755	104
464.975	75
465.195	93
465.414	100
465.634	103
465.854	72
466.073	88
466.293	90
466.512	94
466.732	98
466.951	116
467.171	160
467.391	134
467.61	118
467.829	93
468.049	100
468.268	94
468.488	84
468.707	97
468.927	100
469.146	104
469.365	95
469.585	97
469.804	95
470.023	91
470.243	90
470.462	100
470.681	116
470.901	123
471.12	189
471.339	222
471.558	145
471.777	100
471.997	103
472.216	96
472.435	99
472.654	97
472.873	87
473.092	97
473.311	101
473.53	79
473.749	97
473.968	109
474.187	89
474.406	100
474.625	93
474.844	89
475.063	85
475.282	90
475.501	104
475.72	75
475.939	89
476.158	89
476.377	106
476.596	108
476.814	84
477.033	99
477.252	96
477.471	96
477.69	94
477.908	92
478.127	93
478.346	88
478.564	98
478.783	103
479.002	104
479.22	85
479.439	100
479.658	86
479.876	104
480.095	99
480.313	105
480.532	92
480.751	106
480.969	98
481.188	90
481.406	98
481.624	90
481.843	127
482.061	104
482.28	97
482.498	83
482.717	100
482.935	82
483.153	75
483.372	94
483.59	104
483.808	96
484.027	100
484.245	108
484.463	180
484.681	241
484.9	149
485.118	116
485.336	109
485.554	109
485.772	133
485.99	183
486.209	261
486.427	174
486.645	117
486.863	96
487.081	100
487.299	107
487.517	102
487.735	101
487.953	104
488.171	100
488.389	109
488.607	102
488.825	103
489.043	84
489.261	96
489.479	90
489.696	95
489.914	96
490.132	90
490.35	97
490.568	95
490.786	99
491.003	102
491.221	102
491.439	103
491.657	95
491.874	93
492.092	86
492.31	109
492.527	104
492.745	109
492.963	89
493.18	102
493.398	99
493.615	113
493.833	104
494.05	93
494.268	85
494.485	89
494.703	92
494.92	98
495.138	105
495.355	110
495.573	98
495.79	122
496.008	105
496.225	111
496.442	107
496.66	122
496.877	163
497.094	145
497.312	101
497.529	110
497.746	108
497.963	105
498.181	102
498.398	98
498.615	94
498.832	101
499.049	116
499.267	161
499.484	156
499.701	132
499.918	101
500.135	114
500.352	98
500.569	98
500.786	76
501.003	99
501.22	116
501.437	110
501.654	93
501.871	92
502.088	95
502.305	99
502.522	90
502.739	98
502.956	117
503.172	114
503.389	104
503.606	91
503.823	97
504.04	110
504.256	93
504.473	92
504.69	102
504.907	118
505.123	127
505.34	100
505.557	101
505.773	102
505.99	111
506.207	112
506.423	102
506.64	92
506.856	98
507.073	105
507.289	105
507.506	91
507.722	93
507.939	94
508.155	109
508.372	108
508.588	88
508.805	100
509.021	101
509.238	97
509.454	145
509.67	172
509.887	120
510.103	102
510.319	96
510.536	97
510.752	103
510.968	110
511.184	100
511.401	95
511.617	94
511.833	99
512.049	96
512.265	95
512.481	84
512.698	76
512.914	86
513.13	95
513.346	89
513.562	100
513.778	109
513.994	95
514.21	101
514.426	148
514.642	184
514.858	118
515.074	97
515.29	118
515.506	100
515.721	85
515.937	90
516.153	111
516.369	102
516.585	92
516.801	92
517.016	103
517.232	98
517.448	101
517.664	100
517.879	95
518.095	97
518.311	97
518.527	98
518.742	109
518.958	118
519.173	156
519.389	116
519.605	92
519.82	82
520.036	93
520.251	95
520.467	101
520.682	103
520.898	99
521.113	92
521.329	111
521.544	102
521.76	89
521.975	101
522.19	96
522.406	98
522.621	91
522.836	96
523.052	83
523.267	90
523.482	82
523.698	91
523.913	96
524.128	103
524.343	93
524.559	101
524.774	97
524.989	105
525.204	90
525.419	83
525.634	76
525.849	82
526.064	76
526.28	90
526.495	94
526.71	90
526.925	100
527.14	95
527.355	89
527.57	101
527.785	100
527.999	105
528.214	95
528.429	115
528.644	106
528.859	104
529.074	97
529.289	83
529.503	75
529.718	93
529.933	97
530.148	77
530.363	98
530.577	116
530.792	95
531.007	96
531.221	103
531.436	88
531.651	91
531.865	104
532.08	108
532.295	112
532.509	140
532.724	124
532.938	100
533.153	112
533.367	98
533.582	104
533.796	101
534.011	97
534.225	97
534.44	84
534.654	87
534.868	95
535.083	86
535.297	94
535.511	96
535.726	105
535.94	95
536.154	87
536.369	98
536.583	100
536.797	82
537.011	85
537.225	79
537.44	95
537.654	90
537.868	102
538.082	105
538.296	106
538.51	95
538.724	105
538.938	94
539.153	90
539.367	100
539.581	88
539.795	93
540.009	85
540.222	111
540.436	102
540.65	101
540.864	94
541.078	116
541.292	133
541.506	210
541.72	218
541.934	136
542.147	113
542.361	95
542.575	88
542.789	104
543.002	97
543.216	102
543.43	100
543.644	99
543.857	83
544.071	103
544.285	116
544.498	97
544.712	102
544.925	92
545.139	88
545.352	112
545.566	89
545.779	95
545.993	98
546.206	117
546.42	90
546.633	99
546.847	95
547.06	93
547.274	99
547.487	90
547.7	95
547.914	123
548.127	106
548.34	94
548.554	81
548.767	93
548.98	113
549.193	117
549.407	102
549.62	111
549.833	111
550.046	90
550.259	110
550.473	102
550.686	94
550.899	104
551.112	82
551.325	96
551.538	99
551.751	103
551.964	109
552.177	87
552.39	100
552.603	112
552.816	84
553.029	106
553.242	104
553.455	90
553.667	110
553.88	90
554.093	102
554.306	85
554.519	90
554.732	99
554.944	110
555.157	110
555.37	104
555.583	92
555.795	101
556.008	114
556.221	138
556.433	122
556.646	102
556.859	96
557.071	123
557.284	155
557.496	108
557.709	118
557.921	105
558.134	88
558.346	108
558.559	114
558.771	83
558.984	105
559.196	108
559.409	108
559.621	108
559.833	92
560.046	99
560.258	103
560.47	97
560.683	94
560.895	104
561.107	85
561.32	86
561.532	97
561.744	103
561.956	87
562.168	108
562.381	104
562.593	93
562.805	129
563.017	170
563.229	261
563.441	622
563.653	220
563.865	112
564.077	92
564.289	102
564.501	105
564.713	97
564.925	103
565.137	85
565.349	77
565.561	102
565.773	102
565.985	87
566.197	82
566.408	96
566.62	93
566.832	92
567.044	89
567.255	95
567.467	77
567.679	89
567.891	125
568.102	168
568.314	245
568.526	165
568.737	123
568.949	95
569.161	112
569.372	83
569.584	101
569.795	92
570.007	101
570.218	119
570.43	159
570.641	113
570.853	97
571.064	97
571.276	95
571.487	115
571.698	95
571.91	96
572.121	86
572.333	101
572.544	103
572.755	161
572.966	213
573.178	140
573.389	107
573.6	93
573.811	94
574.023	111
574.234	92
574.445	96
574.656	88
574.867	92
575.078	90
575.289	87
575.501	96
575.712	96
575.923	95
576.134	90
576.345	86
576.556	78
576.767	100
576.978	92
577.188	89
577.399	94
577.61	74
577.821	100
578.032	92
578.243	99
578.454	87
578.665	81
578.875	82
579.086	86
579.297	98
579.508	86
579.718	73
579.929	90
580.14	106
580.35	94
580.561	95
580.772	83
580.982	92
581.193	104
581.403	99
581.614	83
581.825	89
582.035	86
582.246	102
582.456	78
582.667	105
582.877	104
583.087	112
583.298	90
583.508	84
583.719	81
583.929	97
584.139	98
584.35	87
584.56	97
584.77	77
584.981	88
585.191	80
585.401	90
585.611	102
585.821	93
586.032	94
586.242	96
586.452	89
586.662	78
586.872	92
587.082	89
587.292	79
587.502	88
587.713	82
587.923	88
588.133	84
588.343	86
588.553	89
588.762	92
588.972	93
589.182	126
589.392	101
589.602	103
589.812	103
590.022	110
590.232	80
590.441	88
590.651	84
590.861	81
591.071	98
591.281	108
591.49	86
591.7	71
591.91	78
592.119	82
592.329	84
592.539	89
592.748	96
592.958	90
593.167	92
593.377	89
593.587	105
593.796	80
594.006	93
594.215	97
594.424	92
594.634	102
594.843	77
595.053	74
595.262	97
595.472	81
595.681	84
595.89	102
596.1	93
596.309	95
596.518	82
596.727	98
596.937	93
597.146	98
597.355	106
597.564	88
597.774	81
597.983	81
598.192	90
598.401	99
598.61	84
598.819	77
599.028	95
599.237	91
599.446	93
599.655	100
599.864	100
600.073	92
600.282	89
600.491	91
600.7	85
600.909	89
601.118	86
601.327	101
601.536	88
601.745	100
601.953	118
602.162	146
602.371	121
602.58	87
602.789	79
602.997	92
603.206	96
603.415	85
603.623	78
603.832	89
604.041	113
604.249	97
604.458	85
604.666	104
604.875	85
605.084	88
605.292	90
605.501	90
605.709	99
605.918	106
606.126	95
606.334	92
606.543	96
606.751	129
606.96	164
607.168	183
607.376	127
607.585	108
607.793	121
608.001	94
608.21	104
608.418	89
608.626	100
608.834	83
609.043	101
609.251	83
609.459	94
609.667	92
609.875	81
610.083	92
610.291	96
610.499	87
610.707	97
610.916	84
611.124	87
611.332	89
611.54	106
611.748	95
611.955	92
612.163	95
612.371	80
612.579	86
612.787	97
612.995	96
613.203	79
613.411	86
613.618	85
613.826	89
614.034	94
614.242	96
614.449	84
614.657	94
614.865	84
615.072	105
615.28	120
615.488	92
615.695	104
615.903	92
616.111	103
616.318	89
616.526	96
616.733	92
616.941	97
617.148	96
617.356	93
617.563	80
617.771	80
617.978	81
618.185	100
618.393	85
618.6	99
618.807	94
619.015	92
619.222	88
619.429	88
619.637	89
619.844	90
620.051	86
620.258	81
620.466	81
620.673	73
620.88	92
621.087	89
621.294	92
621.501	74
621.708	97
621.915	94
622.122	77
622.329	79
622.536	94
622.743	98
622.95	90
623.157	86
623.364	86
623.571	101
623.778	93
623.985	92
624.192	79
624.399	88
624.606	89
624.812	86
625.019	86
625.226	100
625.433	98
625.639	83
625.846	78
626.053	86
626.259	90
626.466	84
626.673	87
626.879	91
627.086	89
627.293	77
627.499	103
627.706	94
627.912	92
628.119	93
628.325	100
628.532	83
628.738	99
628.945	87
629.151	93
629.357	89
629.564	93
629.77	78
629.976	87
630.183	86
630.389	95
630.595	80
630.802	91
631.008	96
631.214	89
631.42	91
631.627	96
631.833	93
632.039	82
632.245	87
632.451	98
632.657	82
632.863	80
633.069	75
633.275	79
633.481	72
633.688	69
633.893	88
634.099	102
634.305	90
634.511	99
634.717	85
634.923	101
635.129	113
635.335	145
635.541	92
635.747	82
635.952	89
636.158	97
636.364	93
636.57	94
636.775	81
636.981	88
637.187	81
637.392	89
637.598	74
637.804	75
638.009	80
638.215	89
638.421	95
638.626	89
638.832	94
639.037	97
639.243	79
639.448	80
639.654	88
639.859	81
640.065	82
640.27	96
640.475	90
640.681	75
640.886	82
641.091	89
641.297	84
641.502	84
641.707	80
641.913	83
642.118	86
642.323	73
642.528	89
642.733	92
642.939	77
643.144	83
643.349	79
643.554	86
643.759	92
643.964	83
644.169	89
644.374	84
644.579	86
644.784	88
644.989	68
645.194	84
645.399	79
645.604	92
645.809	74
646.014	78
646.219	85
646.423	87
646.628	99
646.833	84
647.038	79
647.243	85
647.447	74
647.652	78
647.857	83
648.062	90
648.266	96
648.471	84
648.676	80
648.88	86
649.085	91
649.289	96
649.494	94
649.698	101
649.903	74
650.107	82
650.312	81
650.516	74
650.721	86
650.925	89
651.13	80
651.334	92
651.539	90
651.743	77
651.947	94
652.152	86
652.356	85
652.56	105
652.764	111
652.969	94
653.173	88
653.377	79
653.581	87
653.785	66
653.99	80
654.194	82
654.398	72
654.602	79
654.806	76
655.01	78
655.214	62
655.418	74
655.622	81
655.826	76
656.03	72
656.234	90
656.438	78
656.642	87
656.846	70
657.049	82
657.253	87
657.457	77
657.661	69
657.865	84
658.068	80
658.272	82
658.476	83
658.68	83
658.883	78
659.087	84
659.291	83
659.494	90
659.698	66
659.901	83
660.105	84
660.309	73
660.512	64
660.716	90
660.919	72
661.123	76
661.326	64
661.53	81
661.733	89
661.936	88
662.14	78
662.343	77
662.546	70
662.75	93
662.953	72
663.156	84
663.36	94
663.563	72
663.766	67
663.969	79
664.173	79
664.376	81
664.579	77
664.782	77
664.985	88
665.188	68
665.391	79
665.594	90
665.797	72
666	78
666.203	76
666.406	78
666.609	73
666.812	71
667.015	63
667.218	68
667.421	73
667.624	76
667.827	90
668.03	70
668.232	82
668.435	87
668.638	88
668.841	78
669.043	92
669.246	84
669.449	76
669.651	79
669.854	72
670.057	88
670.259	62
670.462	74
670.665	93
670.867	70
671.07	83
671.272	89
671.475	74
671.677	80
671.88	79
672.082	76
672.284	85
672.487	75
672.689	87
672.892	79
