Data from SnStandardFlinnAPT0064_LampEnergy5.5_LIBS07252019.E.O._I.C._HRD10591_15-15-13-490.txt Node
Date: Thu Jul 25 15:15:13 EDT 2019
User: cochatt
Spectrometer: HR+D1059
Trigger mode: 1
Integration Time (sec): 1.000000E-1
Scans to average: 1
Electric dark correction enabled: true
Nonlinearity correction enabled: false
Boxcar width: 0
XAxis mode: Wavelengths
Number of Pixels in Spectrum: 2048
>>>>>Begin Spectral Data<<<<<
223.165	-28
223.4	-28
223.635	-28
223.869	-22
224.104	-18
224.338	-19
224.573	-23
224.808	-11
225.042	-9
225.277	-2
225.511	-4
225.746	6
225.98	6
226.215	20
226.449	14
226.683	31
226.918	21
227.152	38
227.387	23
227.621	29
227.856	36
228.09	56
228.324	47
228.559	54
228.793	68
229.027	137
229.262	157
229.496	141
229.73	151
229.964	155
230.199	142
230.433	162
230.667	161
230.901	156
231.136	172
231.37	178
231.604	192
231.838	188
232.072	213
232.306	233
232.541	208
232.775	203
233.009	202
233.243	194
233.477	208
233.711	226
233.945	271
234.179	209
234.413	221
234.647	219
234.881	220
235.115	262
235.349	263
235.583	305
235.817	394
236.051	377
236.285	261
236.519	227
236.753	237
236.987	230
237.221	233
237.455	231
237.689	207
237.922	212
238.156	221
238.39	217
238.624	218
238.858	232
239.091	209
239.325	219
239.559	214
239.793	231
240.027	233
240.26	245
240.494	244
240.728	253
240.961	255
241.195	264
241.429	282
241.662	301
241.896	307
242.13	383
242.363	463
242.597	560
242.83	568
243.064	570
243.298	653
243.531	539
243.765	364
243.998	331
244.232	319
244.465	296
244.699	288
244.932	299
245.166	279
245.399	281
245.633	296
245.866	299
246.099	287
246.333	290
246.566	281
246.8	298
247.033	280
247.266	300
247.5	312
247.733	305
247.966	309
248.2	326
248.433	361
248.666	390
248.899	370
249.133	340
249.366	351
249.599	378
249.832	408
250.066	409
250.299	376
250.532	336
250.765	343
250.998	331
251.231	323
251.465	334
251.698	347
251.931	346
252.164	329
252.397	337
252.63	341
252.863	347
253.096	323
253.329	342
253.562	329
253.795	337
254.028	345
254.261	353
254.494	368
254.727	417
254.96	505
255.193	481
255.426	400
255.659	376
255.892	370
256.124	381
256.357	364
256.59	376
256.823	385
257.056	435
257.289	488
257.521	527
257.754	467
257.987	404
258.22	398
258.452	417
258.685	415
258.918	392
259.151	419
259.383	457
259.616	453
259.849	463
260.081	420
260.314	402
260.547	404
260.779	404
261.012	424
261.244	420
261.477	427
261.71	426
261.942	452
262.175	441
262.407	454
262.64	449
262.872	475
263.105	499
263.337	535
263.57	540
263.802	563
264.035	557
264.267	572
264.499	577
264.732	615
264.964	609
265.197	632
265.429	581
265.661	629
265.894	647
266.126	716
266.358	768
266.591	791
266.823	667
267.055	620
267.287	551
267.52	577
267.752	572
267.984	549
268.216	544
268.448	530
268.681	549
268.913	521
269.145	521
269.377	521
269.609	534
269.841	511
270.073	566
270.306	643
270.538	796
270.77	1097
271.002	1343
271.234	963
271.466	732
271.698	595
271.93	573
272.162	546
272.394	527
272.626	532
272.858	523
273.09	529
273.322	524
273.553	515
273.785	510
274.017	520
274.249	532
274.481	521
274.713	524
274.945	521
275.176	510
275.408	516
275.64	515
275.872	533
276.104	521
276.335	520
276.567	538
276.799	529
277.031	543
277.262	562
277.494	569
277.726	614
277.957	697
278.189	741
278.421	703
278.652	651
278.884	630
279.115	588
279.347	580
279.579	568
279.81	565
280.042	570
280.273	574
280.505	597
280.736	597
280.968	606
281.199	674
281.431	718
281.662	740
281.894	689
282.125	620
282.356	647
282.588	659
282.819	690
283.051	707
283.282	754
283.513	915
283.745	1245
283.976	1943
284.207	2691
284.439	2431
284.67	1524
284.901	1232
285.132	1240
285.364	1169
285.595	985
285.826	863
286.057	1039
286.288	1319
286.52	1736
286.751	1633
286.982	1063
287.213	858
287.444	779
287.675	755
287.906	725
288.138	693
288.369	716
288.6	678
288.831	705
289.062	693
289.293	685
289.524	677
289.755	711
289.986	700
290.217	724
290.448	705
290.679	717
290.91	697
291.141	713
291.371	737
291.602	734
291.833	728
292.064	704
292.295	669
292.526	675
292.757	683
292.987	664
293.218	649
293.449	649
293.68	650
293.91	651
294.141	663
294.372	659
294.603	648
294.833	674
295.064	650
295.295	653
295.525	644
295.756	660
295.987	682
296.217	641
296.448	680
296.679	654
296.909	652
297.14	664
297.37	694
297.601	660
297.831	677
298.062	658
298.292	665
298.523	655
298.753	675
298.984	692
299.214	709
299.445	727
299.675	700
299.905	707
300.136	743
300.366	850
300.597	1019
300.827	1288
301.057	1758
301.288	1726
301.518	1193
301.748	937
301.979	878
302.209	857
302.439	860
302.669	920
302.9	1037
303.13	1402
303.36	1991
303.59	2575
303.82	2291
304.051	1422
304.281	1074
304.511	931
304.741	877
304.971	836
305.201	819
305.431	804
305.661	772
305.891	784
306.121	784
306.352	745
306.582	760
306.812	727
307.042	759
307.272	765
307.502	769
307.731	736
307.961	746
308.191	725
308.421	748
308.651	754
308.881	756
309.111	760
309.341	777
309.571	735
309.8	738
310.03	739
310.26	759
310.49	771
310.72	762
310.949	757
311.179	774
311.409	788
311.639	815
311.868	798
312.098	795
312.328	781
312.557	807
312.787	797
313.017	795
313.246	824
313.476	815
313.706	848
313.935	870
314.165	885
314.394	909
314.624	899
314.853	873
315.083	855
315.312	883
315.542	868
315.771	876
316.001	892
316.23	925
316.46	918
316.689	996
316.919	1175
317.148	1589
317.377	2423
317.607	3393
317.836	3480
318.065	2159
318.295	1485
318.524	1237
318.753	1103
318.983	1018
319.212	968
319.441	985
319.67	953
319.9	911
320.129	933
320.358	940
320.587	955
320.816	916
321.046	939
321.275	960
321.504	960
321.733	962
321.962	1002
322.191	988
322.42	988
322.649	984
322.878	993
323.108	1024
323.337	1016
323.566	1008
323.795	1018
324.024	1067
324.253	1079
324.482	1095
324.71	1154
324.939	1219
325.168	1220
325.397	1243
325.626	1453
325.855	1944
326.084	2912
326.313	4225
326.542	4511
326.77	2951
326.999	2043
327.228	1751
327.457	1692
327.686	1712
327.914	1832
328.143	2073
328.372	2357
328.6	2598
328.829	2376
329.058	2098
329.287	1896
329.515	1748
329.744	1620
329.972	1560
330.201	1486
330.43	1446
330.658	1411
330.887	1381
331.115	1377
331.344	1358
331.572	1380
331.801	1357
332.03	1367
332.258	1378
332.486	1421
332.715	1571
332.943	1843
333.172	2164
333.4	2172
333.629	1780
333.857	1695
334.085	1711
334.314	1814
334.542	1961
334.771	2225
334.999	2633
335.227	3101
335.455	3435
335.684	3273
335.912	2811
336.14	2465
336.369	2173
336.597	2057
336.825	1848
337.053	1712
337.281	1680
337.51	1576
337.738	1516
337.966	1444
338.194	1409
338.422	1389
338.65	1350
338.878	1347
339.106	1317
339.334	1303
339.562	1240
339.79	1260
340.018	1226
340.246	1212
340.474	1175
340.702	1203
340.93	1200
341.158	1194
341.386	1191
341.614	1221
341.842	1181
342.07	1149
342.298	1146
342.526	1112
342.754	1089
342.981	1113
343.209	1126
343.437	1101
343.665	1126
343.893	1153
344.12	1185
344.348	1139
344.576	1124
344.804	1107
345.031	1092
345.259	1075
345.487	1051
345.714	1044
345.942	1048
346.17	1052
346.397	1042
346.625	1033
346.853	1059
347.08	1037
347.308	1029
347.535	1058
347.763	1023
347.99	1029
348.218	1002
348.445	1019
348.673	1007
348.9	1024
349.128	1016
349.355	992
349.583	996
349.81	1025
350.037	1003
350.265	1007
350.492	1007
350.72	972
350.947	994
351.174	989
351.402	998
351.629	1002
351.856	1001
352.083	996
352.311	982
352.538	983
352.765	993
352.992	947
353.22	961
353.447	968
353.674	970
353.901	989
354.128	986
354.355	999
354.583	999
354.81	1033
355.037	1029
355.264	1007
355.491	995
355.718	995
355.945	1007
356.172	1024
356.399	1012
356.626	1000
356.853	1024
357.08	1061
357.307	1041
357.534	1060
357.761	1002
357.988	1059
358.215	1045
358.441	1041
358.668	1029
358.895	1012
359.122	1035
359.349	1044
359.576	1039
359.802	1066
360.029	1034
360.256	1038
360.483	1049
360.709	1068
360.936	1039
361.163	1039
361.39	1045
361.616	1058
361.843	1041
362.07	1063
362.296	1047
362.523	1058
362.749	1060
362.976	1051
363.203	1039
363.429	1014
363.656	1041
363.882	1068
364.109	1032
364.335	1047
364.562	1019
364.788	1058
365.015	1076
365.241	1072
365.468	1097
365.694	1133
365.92	1107
366.147	1068
366.373	1057
366.599	1100
366.826	1111
367.052	1071
367.278	1076
367.505	1080
367.731	1102
367.957	1090
368.184	1104
368.41	1084
368.636	1074
368.862	1084
369.089	1084
369.315	1111
369.541	1143
369.767	1095
369.993	1092
370.219	1084
370.445	1111
370.672	1111
370.898	1122
371.124	1130
371.35	1103
371.576	1104
371.802	1108
372.028	1108
372.254	1141
372.48	1151
372.706	1127
372.932	1178
373.158	1159
373.384	1145
373.61	1130
373.835	1124
374.061	1154
374.287	1175
374.513	1192
374.739	1214
374.965	1189
375.191	1199
375.416	1196
375.642	1177
375.868	1192
376.094	1148
376.319	1139
376.545	1163
376.771	1125
376.997	1130
377.222	1116
377.448	1117
377.674	1117
377.899	1098
378.125	1123
378.35	1108
378.576	1116
378.802	1126
379.027	1148
379.253	1195
379.478	1230
379.704	1348
379.929	1776
380.155	2540
380.38	2718
380.606	1810
380.831	1378
381.057	1243
381.282	1189
381.507	1156
381.733	1149
381.958	1124
382.184	1157
382.409	1104
382.634	1113
382.86	1114
383.085	1107
383.31	1082
383.535	1114
383.761	1128
383.986	1125
384.211	1152
384.436	1131
384.662	1185
384.887	1161
385.112	1146
385.337	1145
385.562	1161
385.787	1177
386.013	1152
386.238	1179
386.463	1171
386.688	1149
386.913	1149
387.138	1141
387.363	1173
387.588	1172
387.813	1152
388.038	1144
388.263	1177
388.488	1146
388.713	1153
388.938	1171
389.163	1132
389.387	1155
389.612	1150
389.837	1186
390.062	1186
390.287	1153
390.512	1163
390.736	1181
390.961	1182
391.186	1224
391.411	1212
391.636	1242
391.86	1224
392.085	1234
392.31	1215
392.534	1162
392.759	1195
392.984	1157
393.208	1180
393.433	1178
393.658	1151
393.882	1164
394.107	1172
394.331	1163
394.556	1191
394.78	1167
395.005	1160
395.229	1190
395.454	1203
395.678	1202
395.903	1208
396.127	1201
396.352	1233
396.576	1208
396.801	1194
397.025	1195
397.249	1203
397.474	1233
397.698	1203
397.922	1249
398.147	1215
398.371	1269
398.595	1272
398.82	1304
399.044	1371
399.268	1391
399.492	1491
399.717	1585
399.941	1560
400.165	1482
400.389	1432
400.613	1358
400.837	1342
401.062	1333
401.286	1319
401.51	1273
401.734	1259
401.958	1319
402.182	1275
402.406	1297
402.63	1259
402.854	1315
403.078	1327
403.302	1339
403.526	1360
403.75	1350
403.974	1343
404.198	1325
404.422	1341
404.645	1335
404.869	1332
405.093	1317
405.317	1336
405.541	1326
405.765	1339
405.988	1371
406.212	1366
406.436	1368
406.66	1392
406.883	1354
407.107	1425
407.331	1453
407.555	1461
407.778	1436
408.002	1431
408.226	1408
408.449	1422
408.673	1397
408.896	1359
409.12	1339
409.344	1335
409.567	1308
409.791	1371
410.014	1345
410.238	1336
410.461	1345
410.685	1315
410.908	1354
411.132	1326
411.355	1267
411.578	1299
411.802	1288
412.025	1285
412.249	1282
412.472	1280
412.695	1283
412.919	1275
413.142	1264
413.365	1288
413.589	1269
413.812	1282
414.035	1275
414.258	1271
414.482	1264
414.705	1280
414.928	1300
415.151	1246
415.374	1258
415.597	1259
415.821	1201
416.044	1206
416.267	1223
416.49	1221
416.713	1186
416.936	1245
417.159	1193
417.382	1182
417.605	1202
417.828	1228
418.051	1220
418.274	1236
418.497	1233
418.72	1244
418.943	1251
419.166	1281
419.389	1336
419.611	1322
419.834	1290
420.057	1270
420.28	1236
420.503	1219
420.726	1220
420.948	1178
421.171	1217
421.394	1258
421.617	1226
421.839	1219
422.062	1221
422.285	1190
422.507	1228
422.73	1209
422.953	1239
423.175	1257
423.398	1252
423.621	1219
423.843	1267
424.066	1266
424.288	1206
424.511	1261
424.733	1230
424.956	1227
425.178	1203
425.401	1195
425.623	1217
425.846	1178
426.068	1194
426.291	1170
426.513	1166
426.735	1174
426.958	1169
427.18	1161
427.402	1149
427.625	1168
427.847	1139
428.069	1110
428.292	1163
428.514	1137
428.736	1129
428.958	1121
429.181	1124
429.403	1109
429.625	1142
429.847	1147
430.069	1147
430.292	1162
430.514	1181
430.736	1179
430.958	1183
431.18	1103
431.402	1110
431.624	1097
431.846	1094
432.068	1114
432.29	1098
432.512	1127
432.734	1124
432.956	1135
433.178	1128
433.4	1144
433.622	1140
433.844	1141
434.066	1117
434.287	1090
434.509	1117
434.731	1140
434.953	1143
435.175	1147
435.397	1163
435.618	1154
435.84	1129
436.062	1082
436.284	1122
436.505	1122
436.727	1144
436.949	1128
437.17	1098
437.392	1102
437.614	1104
437.835	1074
438.057	1065
438.278	1046
438.5	1097
438.721	1105
438.943	1128
439.165	1145
439.386	1172
439.608	1153
439.829	1186
440.05	1189
440.272	1234
440.493	1156
440.715	1176
440.936	1144
441.158	1154
441.379	1181
441.6	1219
441.822	1243
442.043	1319
442.264	1317
442.486	1244
442.707	1217
442.928	1193
443.149	1220
443.371	1187
443.592	1205
443.813	1209
444.034	1221
444.255	1235
444.476	1258
444.698	1288
444.919	1339
445.14	1377
445.361	1320
445.582	1258
445.803	1242
446.024	1211
446.245	1190
446.466	1195
446.687	1176
446.908	1184
447.129	1153
447.35	1146
447.571	1137
447.792	1122
448.013	1109
448.234	1111
448.455	1128
448.675	1094
448.896	1141
449.117	1204
449.338	1207
449.559	1257
449.779	1145
450	1099
450.221	1087
450.442	1092
450.662	1063
450.883	1098
451.104	1066
451.324	1050
451.545	1072
451.766	1068
451.986	1075
452.207	1137
452.428	1306
452.648	1720
452.869	1555
453.089	1214
453.31	1171
453.53	1153
453.751	1169
453.971	1264
454.192	1219
454.412	1087
454.633	1037
454.853	1066
455.073	1028
455.294	1059
455.514	1012
455.734	1023
455.955	1013
456.175	1028
456.395	1033
456.616	1034
456.836	1042
457.056	1036
457.276	1062
457.497	1078
457.717	1109
457.937	1085
458.157	1072
458.377	1096
458.598	1105
458.818	1079
459.038	1093
459.258	1082
459.478	1124
459.698	1111
459.918	1117
460.138	1144
460.358	1196
460.578	1194
460.798	1239
461.018	1212
461.238	1213
461.458	1250
461.678	1198
461.898	1265
462.118	1253
462.338	1304
462.558	1269
462.777	1316
462.997	1410
463.217	1420
463.437	1447
463.657	1429
463.876	1403
464.096	1363
464.316	1350
464.536	1326
464.755	1312
464.975	1295
465.195	1221
465.414	1185
465.634	1161
465.854	1187
466.073	1151
466.293	1149
466.512	1161
466.732	1137
466.951	1157
467.171	1233
467.391	1245
467.61	1129
467.829	1129
468.049	1106
468.268	1112
468.488	1106
468.707	1097
468.927	1102
469.146	1103
469.365	1127
469.585	1114
469.804	1144
470.023	1159
470.243	1169
470.462	1172
470.681	1218
470.901	1326
471.12	1444
471.339	1512
471.558	1325
471.777	1201
471.997	1153
472.216	1125
472.435	1076
472.654	1084
472.873	1093
473.092	1087
473.311	1074
473.53	1092
473.749	1137
473.968	1151
474.187	1117
474.406	1082
474.625	1120
474.844	1128
475.063	1090
475.282	1105
475.501	1064
475.72	1137
475.939	1122
476.158	1135
476.377	1151
476.596	1162
476.814	1171
477.033	1151
477.252	1188
477.471	1224
477.69	1257
477.908	1250
478.127	1240
478.346	1252
478.564	1268
478.783	1296
479.002	1333
479.22	1289
479.439	1317
479.658	1317
479.876	1287
480.095	1304
480.313	1335
480.532	1347
480.751	1349
480.969	1319
481.188	1283
481.406	1283
481.624	1309
481.843	1312
482.061	1301
482.28	1346
482.498	1290
482.717	1319
482.935	1315
483.153	1329
483.372	1372
483.59	1398
483.808	1387
484.027	1388
484.245	1450
484.463	1631
484.681	1744
484.9	1591
485.118	1537
485.336	1498
485.554	1534
485.772	1579
485.99	1770
486.209	1873
486.427	1594
486.645	1493
486.863	1496
487.081	1455
487.299	1406
487.517	1423
487.735	1485
487.953	1453
488.171	1458
488.389	1438
488.607	1399
488.825	1390
489.043	1347
489.261	1369
489.479	1365
489.696	1401
489.914	1376
490.132	1362
490.35	1380
490.568	1394
490.786	1419
491.003	1455
491.221	1474
491.439	1489
491.657	1444
491.874	1477
492.092	1498
492.31	1525
492.527	1499
492.745	1475
492.963	1457
493.18	1434
493.398	1437
493.615	1468
493.833	1480
494.05	1455
494.268	1473
494.485	1491
494.703	1453
494.92	1485
495.138	1456
495.355	1451
495.573	1475
495.79	1482
496.008	1500
496.225	1530
496.442	1528
496.66	1547
496.877	1621
497.094	1541
497.312	1575
497.529	1560
497.746	1541
497.963	1590
498.181	1644
498.398	1669
498.615	1753
498.832	1762
499.049	1844
499.267	1967
499.484	2090
499.701	2148
499.918	2183
500.135	2341
500.352	2523
500.569	2490
500.786	2490
501.003	2405
501.22	2323
501.437	2158
501.654	2028
501.871	1918
502.088	1857
502.305	1801
502.522	1745
502.739	1698
502.956	1675
503.172	1590
503.389	1565
503.606	1558
503.823	1487
504.04	1505
504.256	1516
504.473	1498
504.69	1480
504.907	1465
505.123	1448
505.34	1433
505.557	1395
505.773	1333
505.99	1389
506.207	1337
506.423	1330
506.64	1297
506.856	1289
507.073	1307
507.289	1288
507.506	1266
507.722	1282
507.939	1270
508.155	1258
508.372	1261
508.588	1254
508.805	1267
509.021	1244
509.238	1275
509.454	1312
509.67	1346
509.887	1283
510.103	1230
510.319	1226
510.536	1215
510.752	1239
510.968	1211
511.184	1193
511.401	1199
511.617	1152
511.833	1219
512.049	1171
512.265	1153
512.481	1203
512.698	1202
512.914	1151
513.13	1169
513.346	1210
513.562	1169
513.778	1191
513.994	1204
514.21	1243
514.426	1293
514.642	1270
514.858	1228
515.074	1226
515.29	1212
515.506	1203
515.721	1220
515.937	1245
516.153	1203
516.369	1225
516.585	1260
516.801	1259
517.016	1300
517.232	1312
517.448	1342
517.664	1370
517.879	1337
518.095	1356
518.311	1338
518.527	1345
518.742	1309
518.958	1337
519.173	1293
519.389	1282
519.605	1210
519.82	1229
520.036	1228
520.251	1215
520.467	1216
520.682	1192
520.898	1201
521.113	1195
521.329	1193
521.544	1159
521.76	1161
521.975	1178
522.19	1157
522.406	1148
522.621	1181
522.836	1155
523.052	1160
523.267	1127
523.482	1143
523.698	1117
523.913	1175
524.128	1184
524.343	1152
524.559	1148
524.774	1150
524.989	1148
525.204	1141
525.419	1137
525.634	1145
525.849	1136
526.064	1151
526.28	1175
526.495	1140
526.71	1164
526.925	1143
527.14	1146
527.355	1130
527.57	1137
527.785	1145
527.999	1174
528.214	1185
528.429	1170
528.644	1199
528.859	1212
529.074	1245
529.289	1237
529.503	1234
529.718	1243
529.933	1217
530.148	1189
530.363	1218
530.577	1213
530.792	1228
531.007	1208
531.221	1232
531.436	1250
531.651	1260
531.865	1265
532.08	1253
532.295	1271
532.509	1329
532.724	1332
532.938	1324
533.153	1377
533.367	1482
533.582	1516
533.796	1503
534.011	1485
534.225	1435
534.44	1385
534.654	1348
534.868	1336
535.083	1329
535.297	1304
535.511	1281
535.726	1284
535.94	1285
536.154	1255
536.369	1231
536.583	1189
536.797	1189
537.011	1199
537.225	1203
537.44	1200
537.654	1175
537.868	1168
538.082	1136
538.296	1129
538.51	1185
538.724	1154
538.938	1141
539.153	1159
539.367	1120
539.581	1128
539.795	1074
540.009	1079
540.222	1101
540.436	1125
540.65	1096
540.864	1097
541.078	1155
541.292	1215
541.506	1345
541.72	1401
541.934	1309
542.147	1266
542.361	1193
542.575	1177
542.789	1105
543.002	1093
543.216	1071
543.43	1076
543.644	1092
543.857	1081
544.071	1089
544.285	1113
544.498	1116
544.712	1120
544.925	1126
545.139	1093
545.352	1100
545.566	1110
545.779	1125
545.993	1124
546.206	1127
546.42	1144
546.633	1129
546.847	1107
547.06	1137
547.274	1133
547.487	1139
547.7	1163
547.914	1145
548.127	1131
548.34	1149
548.554	1112
548.767	1131
548.98	1108
549.193	1117
549.407	1115
549.62	1145
549.833	1145
550.046	1112
550.259	1105
550.473	1125
550.686	1113
550.899	1129
551.112	1094
551.325	1132
551.538	1131
551.751	1078
551.964	1098
552.177	1099
552.39	1153
552.603	1144
552.816	1189
553.029	1203
553.242	1213
553.455	1217
553.667	1251
553.88	1242
554.093	1252
554.306	1223
554.519	1247
554.732	1223
554.944	1280
555.157	1283
555.37	1324
555.583	1301
555.795	1340
556.008	1431
556.221	1535
556.433	1579
556.646	1581
556.859	1599
557.071	1537
557.284	1487
557.496	1553
557.709	1485
557.921	1460
558.134	1474
558.346	1460
558.559	1516
558.771	1585
558.984	1657
559.196	1691
559.409	1702
559.621	1646
559.833	1556
560.046	1512
560.258	1425
560.47	1370
560.683	1337
560.895	1280
561.107	1250
561.32	1195
561.532	1232
561.744	1189
561.956	1127
562.168	1137
562.381	1143
562.593	1128
562.805	1120
563.017	1114
563.229	1146
563.441	1215
563.653	1076
563.865	1060
564.077	1020
564.289	1063
564.501	1020
564.713	1021
564.925	1037
565.137	1033
565.349	1046
565.561	1034
565.773	1017
565.985	1054
566.197	1071
566.408	1089
566.62	1116
566.832	1088
567.044	1156
567.255	1151
567.467	1178
567.679	1170
567.891	1218
568.102	1323
568.314	1464
568.526	1285
568.737	1148
568.949	1052
569.161	988
569.372	955
569.584	941
569.795	903
570.007	898
570.218	930
570.43	946
570.641	894
570.853	863
571.064	864
571.276	876
571.487	836
571.698	833
571.91	816
572.121	816
572.333	822
572.544	806
572.755	841
572.966	948
573.178	884
573.389	838
573.6	766
573.811	765
574.023	778
574.234	751
574.445	759
574.656	755
574.867	739
575.078	778
575.289	751
575.501	769
575.712	712
575.923	716
576.134	753
576.345	758
576.556	758
576.767	742
576.978	761
577.188	770
577.399	745
577.61	771
577.821	767
578.032	754
578.243	776
578.454	791
578.665	815
578.875	810
579.086	828
579.297	838
579.508	880
579.718	967
579.929	1041
580.14	1132
580.35	1156
580.561	1095
580.772	1049
580.982	1024
581.193	957
581.403	910
581.614	900
581.825	854
582.035	839
582.246	808
582.456	802
582.667	765
582.877	759
583.087	721
583.298	723
583.508	725
583.719	698
583.929	678
584.139	673
584.35	645
584.56	643
584.77	643
584.981	630
585.191	631
585.401	635
585.611	626
585.821	635
586.032	629
586.242	601
586.452	605
586.662	592
586.872	586
587.082	589
587.292	577
587.502	597
587.713	560
587.923	556
588.133	543
588.343	565
588.553	553
588.762	571
588.972	544
589.182	554
589.392	560
589.602	524
589.812	544
590.022	519
590.232	525
590.441	526
590.651	522
590.861	541
591.071	533
591.281	543
591.49	523
591.7	534
591.91	550
592.119	549
592.329	553
592.539	543
592.748	548
592.958	552
593.167	540
593.377	571
593.587	573
593.796	561
594.006	552
594.215	564
594.424	541
594.634	551
594.843	557
595.053	524
595.262	536
595.472	537
595.681	502
595.89	516
596.1	524
596.309	481
596.518	497
596.727	487
596.937	467
597.146	498
597.355	479
597.564	462
597.774	463
597.983	465
598.192	456
598.401	472
598.61	466
598.819	456
599.028	445
599.237	436
599.446	448
599.655	461
599.864	453
600.073	418
600.282	452
600.491	449
600.7	441
600.909	426
601.118	435
601.327	457
601.536	448
601.745	454
601.953	497
602.162	544
602.371	467
602.58	463
602.789	459
602.997	427
603.206	438
603.415	436
603.623	445
603.832	426
604.041	433
604.249	435
604.458	412
604.666	412
604.875	424
605.084	419
605.292	436
605.501	431
605.709	418
605.918	427
606.126	419
606.334	413
606.543	427
606.751	452
606.96	490
607.168	525
607.376	475
607.585	452
607.793	449
608.001	449
608.21	451
608.418	424
608.626	405
608.834	414
609.043	400
609.251	404
609.459	422
609.667	403
609.875	418
610.083	406
610.291	407
610.499	415
610.707	400
610.916	407
611.124	419
611.332	386
611.54	396
611.748	414
611.955	403
612.163	403
612.371	404
612.579	380
612.787	415
612.995	417
613.203	400
613.411	383
613.618	403
613.826	387
614.034	385
614.242	377
614.449	381
614.657	372
614.865	394
615.072	388
615.28	393
615.488	380
615.695	398
615.903	377
616.111	397
616.318	384
616.526	410
616.733	400
616.941	395
617.148	392
617.356	388
617.563	362
617.771	367
617.978	383
618.185	381
618.393	375
618.6	403
618.807	368
619.015	383
619.222	361
619.429	372
619.637	379
619.844	372
620.051	362
620.258	361
620.466	343
620.673	351
620.88	355
621.087	349
621.294	354
621.501	332
621.708	348
621.915	355
622.122	352
622.329	371
622.536	361
622.743	334
622.95	348
623.157	348
623.364	364
623.571	329
623.778	378
623.985	355
624.192	338
624.399	352
624.606	347
624.812	336
625.019	336
625.226	332
625.433	349
625.639	325
625.846	344
626.053	327
626.259	304
626.466	323
626.673	327
626.879	299
627.086	305
627.293	317
627.499	333
627.706	323
627.912	325
628.119	321
628.325	322
628.532	319
628.738	337
628.945	307
629.151	322
629.357	292
629.564	305
629.77	332
629.976	304
630.183	311
630.389	317
630.595	310
630.802	319
631.008	311
631.214	316
631.42	324
631.627	318
631.833	285
632.039	309
632.245	290
632.451	290
632.657	305
632.863	303
633.069	282
633.275	286
633.481	293
633.688	297
633.893	292
634.099	290
634.305	305
634.511	299
634.717	298
634.923	300
635.129	322
635.335	345
635.541	327
635.747	305
635.952	310
636.158	293
636.364	299
636.57	301
636.775	309
636.981	291
637.187	275
637.392	286
637.598	292
637.804	296
638.009	307
638.215	311
638.421	295
638.626	295
638.832	309
639.037	303
639.243	296
639.448	303
639.654	301
639.859	313
640.065	297
640.27	278
640.475	303
640.681	301
640.886	305
641.091	313
641.297	297
641.502	325
641.707	315
641.913	325
642.118	317
642.323	331
642.528	352
642.733	326
642.939	344
643.144	352
643.349	376
643.554	378
643.759	389
643.964	391
644.169	398
644.374	419
644.579	469
644.784	483
644.989	520
645.194	609
645.399	667
645.604	670
645.809	575
646.014	483
646.219	426
646.423	387
646.628	364
646.833	343
647.038	325
647.243	327
647.447	333
647.652	306
647.857	319
648.062	304
648.266	300
648.471	299
648.676	282
648.88	273
649.085	267
649.289	267
649.494	263
649.698	272
649.903	257
650.107	265
650.312	253
650.516	260
650.721	250
650.925	247
651.13	246
651.334	243
651.539	232
651.743	243
651.947	233
652.152	236
652.356	225
652.56	234
652.764	249
652.969	235
653.173	215
653.377	210
653.581	219
653.785	204
653.99	219
654.194	203
654.398	204
654.602	204
654.806	212
655.01	196
655.214	216
655.418	211
655.622	202
655.826	224
656.03	216
656.234	220
656.438	217
656.642	216
656.846	237
657.049	209
657.253	199
657.457	175
657.661	168
657.865	165
658.068	159
658.272	159
658.476	163
658.68	155
658.883	141
659.087	132
659.291	133
659.494	115
659.698	124
659.901	120
660.105	116
660.309	108
660.512	116
660.716	121
660.919	112
661.123	108
661.326	103
661.53	104
661.733	80
661.936	114
662.14	103
662.343	106
662.546	88
662.75	98
662.953	93
663.156	95
663.36	97
663.563	82
663.766	85
663.969	85
664.173	84
664.376	91
664.579	84
664.782	102
664.985	87
665.188	77
665.391	83
665.594	94
665.797	89
666	72
666.203	83
666.406	79
666.609	85
666.812	101
667.015	87
667.218	83
667.421	73
667.624	90
667.827	81
668.03	86
668.232	96
668.435	85
668.638	68
668.841	86
669.043	82
669.246	84
669.449	82
669.651	77
669.854	78
670.057	91
670.259	81
670.462	73
670.665	87
670.867	89
671.07	94
671.272	82
671.475	85
671.677	99
671.88	97
672.082	94
672.284	88
672.487	92
672.689	87
672.892	88
