Data from SnStandardFlinnAPT0064_LampEnergy10_LIBS07252019.E.O._I.C._HRD10591_15-19-38-493.txt Node
Date: Thu Jul 25 15:19:38 EDT 2019
User: cochatt
Spectrometer: HR+D1059
Trigger mode: 1
Integration Time (sec): 1.000000E-1
Scans to average: 1
Electric dark correction enabled: true
Nonlinearity correction enabled: false
Boxcar width: 0
XAxis mode: Wavelengths
Number of Pixels in Spectrum: 2048
>>>>>Begin Spectral Data<<<<<
223.165	-17
223.4	-17
223.635	-17
223.869	-10
224.104	-17
224.338	-6
224.573	-3
224.808	-15
225.042	-13
225.277	-16
225.511	1
225.746	8
225.98	8
226.215	10
226.449	19
226.683	10
226.918	17
227.152	24
227.387	39
227.621	36
227.856	38
228.09	39
228.324	47
228.559	58
228.793	120
229.027	295
229.262	343
229.496	319
229.73	307
229.964	304
230.199	282
230.433	319
230.667	320
230.901	330
231.136	348
231.37	390
231.604	390
231.838	447
232.072	513
232.306	593
232.541	508
232.775	449
233.009	421
233.243	422
233.477	466
233.711	527
233.945	622
234.179	538
234.413	457
234.647	463
234.881	489
235.115	548
235.349	625
235.583	804
235.817	1037
236.051	1027
236.285	692
236.519	544
236.753	512
236.987	510
237.221	546
237.455	537
237.689	493
237.922	462
238.156	479
238.39	513
238.624	511
238.858	491
239.091	508
239.325	492
239.559	505
239.793	514
240.027	546
240.26	562
240.494	553
240.728	602
240.961	627
241.195	678
241.429	710
241.662	686
241.896	819
242.13	970
242.363	1306
242.597	1666
242.83	1639
243.064	1621
243.298	1889
243.531	1562
243.765	999
243.998	802
244.232	730
244.465	697
244.699	657
244.932	666
245.166	674
245.399	676
245.633	697
245.866	699
246.099	677
246.333	683
246.566	630
246.8	640
247.033	626
247.266	651
247.5	665
247.733	686
247.966	730
248.2	796
248.433	885
248.666	1040
248.899	982
249.133	850
249.366	894
249.599	986
249.832	1154
250.066	1112
250.299	903
250.532	827
250.765	768
250.998	764
251.231	721
251.465	733
251.698	732
251.931	756
252.164	759
252.397	776
252.63	787
252.863	787
253.096	790
253.329	793
253.562	782
253.795	818
254.028	813
254.261	806
254.494	882
254.727	1024
254.96	1282
255.193	1255
255.426	1008
255.659	920
255.892	852
256.124	857
256.357	892
256.59	904
256.823	982
257.056	1134
257.289	1402
257.521	1534
257.754	1203
257.987	990
258.22	946
258.452	907
258.685	939
258.918	988
259.151	987
259.383	1110
259.616	1194
259.849	1317
260.081	1121
260.314	983
260.547	960
260.779	956
261.012	940
261.244	979
261.477	942
261.71	1007
261.942	990
262.175	993
262.407	1033
262.64	1025
262.872	1074
263.105	1145
263.337	1179
263.57	1268
263.802	1310
264.035	1280
264.267	1346
264.499	1344
264.732	1428
264.964	1406
265.197	1419
265.429	1410
265.661	1421
265.894	1519
266.126	1736
266.358	1972
266.591	1893
266.823	1598
267.055	1449
267.287	1352
267.52	1320
267.752	1262
267.984	1257
268.216	1254
268.448	1262
268.681	1237
268.913	1211
269.145	1242
269.377	1229
269.609	1248
269.841	1284
270.073	1380
270.306	1646
270.538	2190
270.77	3257
271.002	4004
271.234	2937
271.466	1931
271.698	1590
271.93	1433
272.162	1376
272.394	1306
272.626	1269
272.858	1250
273.09	1241
273.322	1250
273.553	1202
273.785	1176
274.017	1182
274.249	1203
274.481	1218
274.713	1214
274.945	1229
275.176	1199
275.408	1189
275.64	1214
275.872	1198
276.104	1239
276.335	1263
276.567	1318
276.799	1288
277.031	1304
277.262	1298
277.494	1455
277.726	1576
277.957	1903
278.189	2160
278.421	2018
278.652	1774
278.884	1713
279.115	1504
279.347	1434
279.579	1428
279.81	1409
280.042	1410
280.273	1425
280.505	1464
280.736	1518
280.968	1653
281.199	1813
281.431	2114
281.662	2119
281.894	1827
282.125	1689
282.356	1659
282.588	1700
282.819	1770
283.051	1891
283.282	2048
283.513	2566
283.745	3710
283.976	5772
284.207	8192
284.439	7558
284.67	4784
284.901	3966
285.132	3953
285.364	3694
285.595	2847
285.826	2493
286.057	2972
286.288	4018
286.52	5314
286.751	5031
286.982	3158
287.213	2390
287.444	2039
287.675	1907
287.906	1842
288.138	1755
288.369	1684
288.6	1701
288.831	1668
289.062	1679
289.293	1685
289.524	1677
289.755	1689
289.986	1712
290.217	1704
290.448	1716
290.679	1761
290.91	1765
291.141	1910
291.371	2067
291.602	2117
291.833	1918
292.064	1735
292.295	1698
292.526	1669
292.757	1655
292.987	1615
293.218	1562
293.449	1595
293.68	1571
293.91	1600
294.141	1557
294.372	1573
294.603	1554
294.833	1520
295.064	1567
295.295	1608
295.525	1580
295.756	1567
295.987	1511
296.217	1580
296.448	1583
296.679	1603
296.909	1607
297.14	1563
297.37	1596
297.601	1668
297.831	1658
298.062	1623
298.292	1648
298.523	1657
298.753	1712
298.984	1670
299.214	1728
299.445	1743
299.675	1781
299.905	1812
300.136	1942
300.366	2151
300.597	2785
300.827	3903
301.057	5346
301.288	5436
301.518	3561
301.748	2686
301.979	2453
302.209	2368
302.439	2342
302.669	2554
302.9	3055
303.13	4278
303.36	6282
303.59	8418
303.82	7378
304.051	4467
304.281	3204
304.511	2636
304.741	2422
304.971	2266
305.201	2136
305.431	2062
305.661	1998
305.891	1932
306.121	1893
306.352	1893
306.582	1844
306.812	1857
307.042	1848
307.272	1887
307.502	1805
307.731	1803
307.961	1847
308.191	1812
308.421	1812
308.651	1841
308.881	1790
309.111	1801
309.341	1804
309.571	1843
309.8	1872
310.03	1849
310.26	1851
310.49	1835
310.72	1838
310.949	1822
311.179	1884
311.409	1922
311.639	1940
311.868	1920
312.098	1961
312.328	1940
312.557	1946
312.787	1962
313.017	1988
313.246	2040
313.476	2059
313.706	2079
313.935	2181
314.165	2358
314.394	2521
314.624	2380
314.853	2153
315.083	2137
315.312	2222
315.542	2194
315.771	2229
316.001	2275
316.23	2368
316.46	2511
316.689	2717
316.919	3332
317.148	4721
317.377	7256
317.607	10564
317.836	11190
318.065	6976
318.295	4498
318.524	3622
318.753	3048
318.983	2874
319.212	2649
319.441	2565
319.67	2469
319.9	2409
320.129	2427
320.358	2350
320.587	2355
320.816	2350
321.046	2390
321.275	2345
321.504	2393
321.733	2457
321.962	2569
322.191	2532
322.42	2522
322.649	2519
322.878	2485
323.108	2512
323.337	2572
323.566	2614
323.795	2646
324.024	2687
324.253	2747
324.482	2829
324.71	3020
324.939	3268
325.168	3358
325.397	3463
325.626	4118
325.855	5766
326.084	8894
326.313	12854
326.542	13743
326.77	9467
326.999	6304
327.228	5230
327.457	4992
327.686	4913
327.914	5324
328.143	6178
328.372	7348
328.6	7954
328.829	7096
329.058	5923
329.287	5224
329.515	4763
329.744	4318
329.972	4215
330.201	3887
330.43	3772
330.658	3672
330.887	3574
331.115	3552
331.344	3495
331.572	3487
331.801	3522
332.03	3520
332.258	3588
332.486	3747
332.715	4346
332.943	5361
333.172	6731
333.4	6727
333.629	5183
333.857	4644
334.085	4563
334.314	4810
334.542	5182
334.771	6163
334.999	7497
335.227	9478
335.455	10594
335.684	9537
335.912	7803
336.14	6648
336.369	5799
336.597	5343
336.825	4816
337.053	4534
337.281	4243
337.51	4020
337.738	3902
337.966	3714
338.194	3636
338.422	3499
338.65	3382
338.878	3317
339.106	3281
339.334	3184
339.562	3155
339.79	3047
340.018	3032
340.246	3000
340.474	2976
340.702	3017
340.93	3011
341.158	2961
341.386	3007
341.614	2963
341.842	2848
342.07	2804
342.298	2777
342.526	2790
342.754	2747
342.981	2690
343.209	2686
343.437	2723
343.665	2756
343.893	2770
344.12	2787
344.348	2737
344.576	2719
344.804	2675
345.031	2662
345.259	2629
345.487	2562
345.714	2576
345.942	2548
346.17	2567
346.397	2505
346.625	2555
346.853	2529
347.08	2496
347.308	2508
347.535	2572
347.763	2492
347.99	2418
348.218	2459
348.445	2474
348.673	2410
348.9	2434
349.128	2472
349.355	2435
349.583	2448
349.81	2429
350.037	2405
350.265	2372
350.492	2414
350.72	2369
350.947	2354
351.174	2411
351.402	2410
351.629	2359
351.856	2354
352.083	2377
352.311	2380
352.538	2374
352.765	2365
352.992	2351
353.22	2354
353.447	2320
353.674	2344
353.901	2324
354.128	2354
354.355	2384
354.583	2440
354.81	2409
355.037	2397
355.264	2397
355.491	2392
355.718	2442
355.945	2493
356.172	2468
356.399	2438
356.626	2473
356.853	2465
357.08	2431
357.307	2499
357.534	2562
357.761	2546
357.988	2538
358.215	2518
358.441	2499
358.668	2528
358.895	2495
359.122	2516
359.349	2527
359.576	2502
359.802	2511
360.029	2540
360.256	2522
360.483	2498
360.709	2517
360.936	2550
361.163	2517
361.39	2488
361.616	2518
361.843	2573
362.07	2582
362.296	2617
362.523	2494
362.749	2554
362.976	2528
363.203	2510
363.429	2496
363.656	2508
363.882	2466
364.109	2465
364.335	2489
364.562	2536
364.788	2537
365.015	2591
365.241	2667
365.468	2820
365.694	2939
365.92	2816
366.147	2665
366.373	2608
366.599	2580
366.826	2610
367.052	2560
367.278	2596
367.505	2586
367.731	2560
367.957	2586
368.184	2629
368.41	2653
368.636	2655
368.862	2644
369.089	2592
369.315	2634
369.541	2646
369.767	2637
369.993	2602
370.219	2602
370.445	2607
370.672	2652
370.898	2641
371.124	2643
371.35	2682
371.576	2686
371.802	2648
372.028	2690
372.254	2743
372.48	2712
372.706	2747
372.932	2740
373.158	2731
373.384	2746
373.61	2746
373.835	2743
374.061	2744
374.287	2821
374.513	2792
374.739	2830
374.965	2875
375.191	2850
375.416	2858
375.642	2763
375.868	2776
376.094	2752
376.319	2683
376.545	2707
376.771	2690
376.997	2699
377.222	2676
377.448	2664
377.674	2666
377.899	2665
378.125	2682
378.35	2742
378.576	2740
378.802	2715
379.027	2826
379.253	2881
379.478	3000
379.704	3547
379.929	5171
380.155	8098
380.38	8886
380.606	5443
380.831	3810
381.057	3326
381.282	3003
381.507	2877
381.733	2828
381.958	2753
382.184	2681
382.409	2700
382.634	2700
382.86	2649
383.085	2657
383.31	2689
383.535	2679
383.761	2655
383.986	2661
384.211	2700
384.436	2723
384.662	2716
384.887	2735
385.112	2699
385.337	2752
385.562	2776
385.787	2787
386.013	2731
386.238	2796
386.463	2766
386.688	2770
386.913	2744
387.138	2773
387.363	2734
387.588	2737
387.813	2692
388.038	2670
388.263	2701
388.488	2682
388.713	2710
388.938	2736
389.163	2719
389.387	2749
389.612	2699
389.837	2745
390.062	2739
390.287	2789
390.512	2771
390.736	2801
390.961	2871
391.186	2800
391.411	2887
391.636	2812
391.86	2890
392.085	2895
392.31	2851
392.534	2826
392.759	2815
392.984	2763
393.208	2816
393.433	2847
393.658	2830
393.882	2750
394.107	2747
394.331	2770
394.556	2763
394.78	2820
395.005	2789
395.229	2832
395.454	2796
395.678	2849
395.903	2852
396.127	2866
396.352	2828
396.576	2834
396.801	2860
397.025	2888
397.249	2900
397.474	2863
397.698	2836
397.922	2874
398.147	2918
398.371	2950
398.595	3022
398.82	3014
399.044	3127
399.268	3268
399.492	3485
399.717	3638
399.941	3559
400.165	3482
400.389	3339
400.613	3218
400.837	3075
401.062	3040
401.286	3078
401.51	2972
401.734	2972
401.958	3024
402.182	3018
402.406	3018
402.63	3020
402.854	3046
403.078	3059
403.302	3118
403.526	3132
403.75	3127
403.974	3129
404.198	3146
404.422	3145
404.645	3131
404.869	3146
405.093	3198
405.317	3105
405.541	3172
405.765	3173
405.988	3250
406.212	3186
406.436	3225
406.66	3271
406.883	3230
407.107	3307
407.331	3331
407.555	3426
407.778	3426
408.002	3402
408.226	3347
408.449	3323
408.673	3255
408.896	3182
409.12	3165
409.344	3220
409.567	3122
409.791	3136
410.014	3113
410.238	3120
410.461	3142
410.685	3118
410.908	3080
411.132	3070
411.355	3036
411.578	3023
411.802	3008
412.025	2993
412.249	3064
412.472	2999
412.695	2941
412.919	2919
413.142	2935
413.365	2968
413.589	2963
413.812	2967
414.035	2948
414.258	2943
414.482	2987
414.705	2964
414.928	3021
415.151	2922
415.374	2978
415.597	2905
415.821	2841
416.044	2847
416.267	2814
416.49	2836
416.713	2778
416.936	2860
417.159	2777
417.382	2828
417.605	2827
417.828	2792
418.051	2862
418.274	2866
418.497	2848
418.72	2947
418.943	2872
419.166	3029
419.389	3184
419.611	3111
419.834	3003
420.057	3001
420.28	2874
420.503	2878
420.726	2843
420.948	2864
421.171	2827
421.394	2853
421.617	2848
421.839	2825
422.062	2863
422.285	2822
422.507	2904
422.73	2899
422.953	2923
423.175	2950
423.398	2896
423.621	2837
423.843	2847
424.066	2842
424.288	2834
424.511	2880
424.733	2815
424.956	2811
425.178	2823
425.401	2780
425.623	2834
425.846	2736
426.068	2800
426.291	2674
426.513	2684
426.735	2706
426.958	2741
427.18	2645
427.402	2713
427.625	2653
427.847	2653
428.069	2646
428.292	2657
428.514	2615
428.736	2642
428.958	2682
429.181	2584
429.403	2589
429.625	2599
429.847	2612
430.069	2673
430.292	2770
430.514	2858
430.736	2776
430.958	2627
431.18	2636
431.402	2574
431.624	2553
431.846	2550
432.068	2549
432.29	2602
432.512	2574
432.734	2607
432.956	2624
433.178	2626
433.4	2618
433.622	2627
433.844	2641
434.066	2617
434.287	2638
434.509	2714
434.731	2688
434.953	2700
435.175	2754
435.397	2764
435.618	2670
435.84	2673
436.062	2560
436.284	2573
436.505	2543
436.727	2639
436.949	2580
437.17	2597
437.392	2491
437.614	2535
437.835	2473
438.057	2547
438.278	2496
438.5	2556
438.721	2558
438.943	2683
439.165	2692
439.386	2727
439.608	2694
439.829	2737
440.05	2752
440.272	2856
440.493	2766
440.715	2718
440.936	2721
441.158	2690
441.379	2760
441.6	2862
441.822	2889
442.043	3100
442.264	3173
442.486	2960
442.707	2871
442.928	2764
443.149	2786
443.371	2758
443.592	2849
443.813	2798
444.034	2838
444.255	2879
444.476	2849
444.698	2910
444.919	2944
445.14	3042
445.361	2936
445.582	2880
445.803	2757
446.024	2794
446.245	2772
446.466	2749
446.687	2736
446.908	2739
447.129	2653
447.35	2644
447.571	2649
447.792	2617
448.013	2583
448.234	2619
448.455	2618
448.675	2671
448.896	2690
449.117	2806
449.338	2999
449.559	3100
449.779	2804
450	2622
450.221	2606
450.442	2587
450.662	2482
450.883	2516
451.104	2521
451.324	2494
451.545	2518
451.766	2508
451.986	2569
452.207	2796
452.428	3608
452.648	5541
452.869	4726
453.089	3229
453.31	3030
453.53	3015
453.751	3031
453.971	3171
454.192	3135
454.412	2708
454.633	2562
454.853	2466
455.073	2451
455.294	2442
455.514	2400
455.734	2428
455.955	2344
456.175	2396
456.395	2385
456.616	2404
456.836	2475
457.056	2468
457.276	2470
457.497	2612
457.717	2652
457.937	2552
458.157	2520
458.377	2496
458.598	2551
458.818	2614
459.038	2562
459.258	2580
459.478	2630
459.698	2655
459.918	2692
460.138	2738
460.358	2760
460.578	2800
460.798	2823
461.018	2843
461.238	2829
461.458	2854
461.678	2896
461.898	2957
462.118	2994
462.338	3012
462.558	3032
462.777	3155
462.997	3233
463.217	3317
463.437	3455
463.657	3538
463.876	3480
464.096	3306
464.316	3155
464.536	3210
464.755	3096
464.975	2939
465.195	2872
465.414	2840
465.634	2792
465.854	2729
466.073	2674
466.293	2716
466.512	2642
466.732	2689
466.951	2830
467.171	3021
467.391	2903
467.61	2724
467.829	2621
468.049	2626
468.268	2551
468.488	2530
468.707	2563
468.927	2607
469.146	2581
469.365	2642
469.585	2586
469.804	2705
470.023	2735
470.243	2762
470.462	2870
470.681	3026
470.901	3338
471.12	3799
471.339	3760
471.558	3135
471.777	2902
471.997	2796
472.216	2684
472.435	2654
472.654	2590
472.873	2571
473.092	2580
473.311	2573
473.53	2631
473.749	2672
473.968	2834
474.187	2615
474.406	2567
474.625	2561
474.844	2607
475.063	2577
475.282	2609
475.501	2594
475.72	2651
475.939	2630
476.158	2661
476.377	2743
476.596	2704
476.814	2716
477.033	2732
477.252	2764
477.471	2825
477.69	2881
477.908	2886
478.127	2961
478.346	2934
478.564	2988
478.783	3025
479.002	3056
479.22	3084
479.439	3105
479.658	3072
479.876	3138
480.095	3135
480.313	3166
480.532	3175
480.751	3223
480.969	3200
481.188	3096
481.406	3106
481.624	3092
481.843	3156
482.061	3202
482.28	3104
482.498	3127
482.717	3150
482.935	3111
483.153	3218
483.372	3229
483.59	3328
483.808	3361
484.027	3425
484.245	3588
484.463	4060
484.681	4520
484.9	4144
485.118	3833
485.336	3745
485.554	3816
485.772	4114
485.99	4565
486.209	4880
486.427	4159
486.645	3734
486.863	3542
487.081	3502
487.299	3378
487.517	3398
487.735	3382
487.953	3385
488.171	3362
488.389	3343
488.607	3286
488.825	3281
489.043	3210
489.261	3198
489.479	3215
489.696	3267
489.914	3254
490.132	3311
490.35	3310
490.568	3271
490.786	3353
491.003	3370
491.221	3418
491.439	3362
491.657	3370
491.874	3360
492.092	3359
492.31	3422
492.527	3409
492.745	3356
492.963	3370
493.18	3382
493.398	3384
493.615	3383
493.833	3353
494.05	3358
494.268	3430
494.485	3385
494.703	3397
494.92	3417
495.138	3464
495.355	3400
495.573	3430
495.79	3410
496.008	3434
496.225	3451
496.442	3614
496.66	3687
496.877	3852
497.094	3845
497.312	3723
497.529	3695
497.746	3751
497.963	3744
498.181	3872
498.398	3952
498.615	4111
498.832	4219
499.049	4411
499.267	4768
499.484	5030
499.701	4978
499.918	5140
500.135	5329
500.352	5618
500.569	5682
500.786	5647
501.003	5538
501.22	5204
501.437	4898
501.654	4682
501.871	4500
502.088	4314
502.305	4181
502.522	4055
502.739	3957
502.956	3838
503.172	3747
503.389	3706
503.606	3618
503.823	3538
504.04	3535
504.256	3542
504.473	3536
504.69	3518
504.907	3534
505.123	3449
505.34	3292
505.557	3212
505.773	3210
505.99	3254
506.207	3131
506.423	3126
506.64	3039
506.856	3054
507.073	3074
507.289	2983
507.506	2991
507.722	3003
507.939	2970
508.155	2994
508.372	3006
508.588	2930
508.805	2922
509.021	2948
509.238	2986
509.454	3113
509.67	3370
509.887	3127
510.103	2984
510.319	2950
510.536	2907
510.752	2912
510.968	2882
511.184	2878
511.401	2842
511.617	2831
511.833	2838
512.049	2798
512.265	2785
512.481	2835
512.698	2803
512.914	2806
513.13	2799
513.346	2840
513.562	2874
513.778	2840
513.994	2877
514.21	3002
514.426	3139
514.642	3254
514.858	3006
515.074	2905
515.29	2922
515.506	2859
515.721	2892
515.937	2862
516.153	2970
516.369	2952
516.585	2960
516.801	3046
517.016	3033
517.232	3156
517.448	3207
517.664	3248
517.879	3171
518.095	3207
518.311	3145
518.527	3111
518.742	3114
518.958	3099
519.173	3188
519.389	3091
519.605	3001
519.82	2909
520.036	2928
520.251	2851
520.467	2829
520.682	2805
520.898	2751
521.113	2770
521.329	2774
521.544	2758
521.76	2790
521.975	2779
522.19	2781
522.406	2770
522.621	2674
522.836	2699
523.052	2708
523.267	2723
523.482	2687
523.698	2675
523.913	2689
524.128	2718
524.343	2681
524.559	2697
524.774	2698
524.989	2655
525.204	2686
525.419	2682
525.634	2724
525.849	2674
526.064	2721
526.28	2660
526.495	2690
526.71	2708
526.925	2701
527.14	2688
527.355	2703
527.57	2720
527.785	2761
527.999	2761
528.214	2740
528.429	2772
528.644	2800
528.859	2842
529.074	2874
529.289	2854
529.503	2897
529.718	2900
529.933	2792
530.148	2847
530.363	2915
530.577	2860
530.792	2866
531.007	2905
531.221	2933
531.436	2990
531.651	3041
531.865	3035
532.08	3118
532.295	3220
532.509	3431
532.724	3411
532.938	3447
533.153	3557
533.367	3772
533.582	4086
533.796	4030
534.011	3892
534.225	3714
534.44	3541
534.654	3424
534.868	3373
535.083	3289
535.297	3235
535.511	3162
535.726	3126
535.94	3068
536.154	3010
536.369	2985
536.583	2933
536.797	2939
537.011	2872
537.225	2874
537.44	2889
537.654	2826
537.868	2749
538.082	2752
538.296	2700
538.51	2683
538.724	2769
538.938	2659
539.153	2672
539.367	2673
539.581	2671
539.795	2608
540.009	2593
540.222	2594
540.436	2657
540.65	2645
540.864	2629
541.078	2700
541.292	2851
541.506	3314
541.72	3540
541.934	3116
542.147	2882
542.361	2802
542.575	2643
542.789	2611
543.002	2526
543.216	2546
543.43	2538
543.644	2544
543.857	2529
544.071	2546
544.285	2507
544.498	2493
544.712	2495
544.925	2559
545.139	2493
545.352	2555
545.566	2556
545.779	2493
545.993	2566
546.206	2566
546.42	2572
546.633	2540
546.847	2534
547.06	2534
547.274	2544
547.487	2510
547.7	2550
547.914	2568
548.127	2572
548.34	2568
548.554	2513
548.767	2505
548.98	2576
549.193	2506
549.407	2535
549.62	2554
549.833	2579
550.046	2573
550.259	2543
550.473	2512
550.686	2586
550.899	2538
551.112	2528
551.325	2589
551.538	2546
551.751	2492
551.964	2531
552.177	2586
552.39	2630
552.603	2699
552.816	2741
553.029	2751
553.242	2821
553.455	2799
553.667	2829
553.88	2898
554.093	2856
554.306	2922
554.519	2891
554.732	2952
554.944	3030
555.157	3079
555.37	3141
555.583	3330
555.795	3592
556.008	3782
556.221	4282
556.433	4540
556.646	4533
556.859	4359
557.071	4137
557.284	4021
557.496	3889
557.709	3782
557.921	3787
558.134	3816
558.346	3864
558.559	4008
558.771	4230
558.984	4648
559.196	5032
559.409	4743
559.621	4367
559.833	4136
560.046	3819
560.258	3677
560.47	3420
560.683	3308
560.895	3176
561.107	3059
561.32	2960
561.532	2920
561.744	2828
561.956	2750
562.168	2701
562.381	2720
562.593	2678
562.805	2727
563.017	2714
563.229	2791
563.441	3274
563.653	2742
563.865	2507
564.077	2451
564.289	2419
564.501	2423
564.713	2374
564.925	2370
565.137	2346
565.349	2366
565.561	2367
565.773	2380
565.985	2436
566.197	2426
566.408	2464
566.62	2547
566.832	2573
567.044	2634
567.255	2623
567.467	2595
567.679	2674
567.891	2878
568.102	3121
568.314	3551
568.526	3207
568.737	2779
568.949	2518
569.161	2369
569.372	2262
569.584	2203
569.795	2129
570.007	2130
570.218	2183
570.43	2255
570.641	2115
570.853	2015
571.064	2000
571.276	1937
571.487	1946
571.698	1909
571.91	1920
572.121	1855
572.333	1851
572.544	1889
572.755	2039
572.966	2316
573.178	2155
573.389	1928
573.6	1850
573.811	1783
574.023	1798
574.234	1784
574.445	1751
574.656	1750
574.867	1739
575.078	1754
575.289	1745
575.501	1723
575.712	1716
575.923	1726
576.134	1682
576.345	1719
576.556	1708
576.767	1695
576.978	1741
577.188	1772
577.399	1769
577.61	1737
577.821	1791
578.032	1787
578.243	1806
578.454	1858
578.665	1918
578.875	1977
579.086	2020
579.297	2094
579.508	2269
579.718	2466
579.929	2844
580.14	3355
580.35	3445
580.561	3109
580.772	2864
580.982	2600
581.193	2398
581.403	2259
581.614	2157
581.825	2069
582.035	1995
582.246	1910
582.456	1821
582.667	1817
582.877	1818
583.087	1770
583.298	1696
583.508	1629
583.719	1599
583.929	1587
584.139	1528
584.35	1515
584.56	1497
584.77	1455
584.981	1422
585.191	1441
585.401	1414
585.611	1397
585.821	1350
586.032	1384
586.242	1367
586.452	1365
586.662	1334
586.872	1341
587.082	1279
587.292	1267
587.502	1301
587.713	1247
587.923	1236
588.133	1244
588.343	1231
588.553	1232
588.762	1206
588.972	1216
589.182	1253
589.392	1238
589.602	1224
589.812	1194
590.022	1196
590.232	1163
590.441	1208
590.651	1146
590.861	1179
591.071	1194
591.281	1172
591.49	1164
591.7	1157
591.91	1218
592.119	1190
592.329	1179
592.539	1214
592.748	1206
592.958	1191
593.167	1194
593.377	1227
593.587	1202
593.796	1217
594.006	1205
594.215	1202
594.424	1222
594.634	1227
594.843	1165
595.053	1164
595.262	1159
595.472	1112
595.681	1113
595.89	1091
596.1	1112
596.309	1080
596.518	1042
596.727	1020
596.937	1055
597.146	1031
597.355	1046
597.564	1028
597.774	1015
597.983	965
598.192	978
598.401	1019
598.61	978
598.819	959
599.028	947
599.237	954
599.446	940
599.655	953
599.864	964
600.073	947
600.282	940
600.491	917
600.7	936
600.909	935
601.118	939
601.327	903
601.536	953
601.745	956
601.953	1080
602.162	1203
602.371	1082
602.58	986
602.789	935
602.997	948
603.206	940
603.415	930
603.623	905
603.832	934
604.041	891
604.249	909
604.458	906
604.666	896
604.875	870
605.084	908
605.292	871
605.501	894
605.709	893
605.918	913
606.126	889
606.334	896
606.543	911
606.751	1010
606.96	1122
607.168	1219
607.376	1056
607.585	996
607.793	955
608.001	910
608.21	902
608.418	897
608.626	876
608.834	878
609.043	862
609.251	880
609.459	859
609.667	843
609.875	836
610.083	817
610.291	844
610.499	842
610.707	819
610.916	816
611.124	821
611.332	818
611.54	833
611.748	837
611.955	807
612.163	828
612.371	789
612.579	803
612.787	793
612.995	792
613.203	787
613.411	798
613.618	793
613.826	791
614.034	798
614.242	788
614.449	756
614.657	799
614.865	823
615.072	776
615.28	791
615.488	824
615.695	790
615.903	800
616.111	769
616.318	799
616.526	793
616.733	768
616.941	786
617.148	774
617.356	785
617.563	760
617.771	776
617.978	761
618.185	756
618.393	747
618.6	754
618.807	754
619.015	734
619.222	746
619.429	738
619.637	766
619.844	745
620.051	753
620.258	704
620.466	707
620.673	703
620.88	672
621.087	708
621.294	666
621.501	706
621.708	688
621.915	703
622.122	693
622.329	671
622.536	688
622.743	665
622.95	688
623.157	690
623.364	699
623.571	697
623.778	690
623.985	699
624.192	676
624.399	660
624.606	657
624.812	672
625.019	646
625.226	681
625.433	642
625.639	644
625.846	638
626.053	619
626.259	633
626.466	632
626.673	620
626.879	605
627.086	624
627.293	633
627.499	650
627.706	639
627.912	648
628.119	630
628.325	634
628.532	632
628.738	656
628.945	609
629.151	625
629.357	602
629.564	610
629.77	618
629.976	607
630.183	580
630.389	599
630.595	612
630.802	603
631.008	615
631.214	606
631.42	606
631.627	571
631.833	604
632.039	575
632.245	595
632.451	587
632.657	578
632.863	587
633.069	574
633.275	591
633.481	603
633.688	592
633.893	580
634.099	590
634.305	588
634.511	624
634.717	607
634.923	604
635.129	734
635.335	778
635.541	701
635.747	634
635.952	626
636.158	599
636.364	592
636.57	595
636.775	580
636.981	586
637.187	597
637.392	596
637.598	570
637.804	594
638.009	601
638.215	611
638.421	585
638.626	608
638.832	596
639.037	584
639.243	597
639.448	614
639.654	616
639.859	608
640.065	613
640.27	606
640.475	614
640.681	616
640.886	625
641.091	632
641.297	641
641.502	655
641.707	651
641.913	661
642.118	681
642.323	659
642.528	700
642.733	682
642.939	710
643.144	736
643.349	777
643.554	800
643.759	820
643.964	881
644.169	931
644.374	1004
644.579	1072
644.784	1170
644.989	1369
645.194	1589
645.399	1959
645.604	2064
645.809	1580
646.014	1174
646.219	979
646.423	863
646.628	803
646.833	738
647.038	710
647.243	684
647.447	632
647.652	614
647.857	595
648.062	558
648.266	560
648.471	565
648.676	537
648.88	531
649.085	560
649.289	521
649.494	518
649.698	542
649.903	525
650.107	491
650.312	491
650.516	483
650.721	481
650.925	459
651.13	452
651.334	463
651.539	439
651.743	432
651.947	426
652.152	440
652.356	427
652.56	478
652.764	503
652.969	476
653.173	442
653.377	413
653.581	394
653.785	382
653.99	373
654.194	370
654.398	367
654.602	378
654.806	332
655.01	376
655.214	369
655.418	367
655.622	354
655.826	361
656.03	366
656.234	369
656.438	371
656.642	379
656.846	377
657.049	359
657.253	331
657.457	323
657.661	281
657.865	274
658.068	259
658.272	273
658.476	250
658.68	223
658.883	231
659.087	208
659.291	201
659.494	185
659.698	189
659.901	192
660.105	165
660.309	181
660.512	175
660.716	159
660.919	155
661.123	158
661.326	130
661.53	132
661.733	127
661.936	129
662.14	108
662.343	106
662.546	109
662.75	108
662.953	105
663.156	96
663.36	91
663.563	91
663.766	102
663.969	82
664.173	97
664.376	94
664.579	82
664.782	103
664.985	73
665.188	85
665.391	88
665.594	91
665.797	86
666	91
666.203	75
666.406	91
666.609	81
666.812	81
667.015	80
667.218	81
667.421	79
667.624	83
667.827	82
668.03	87
668.232	95
668.435	77
668.638	80
668.841	84
669.043	81
669.246	81
669.449	76
669.651	82
669.854	74
670.057	86
670.259	77
670.462	76
670.665	87
670.867	88
671.07	89
671.272	79
671.475	83
671.677	76
671.88	82
672.082	68
672.284	92
672.487	78
672.689	74
672.892	73
