Data from StandardFe(NO3)3.TAE.3%Agarose.FlatLispGreen.Lamp.Energy10.07252019_HRD10591_11-53-30-440.txt Node
Date: Thu Jul 25 11:53:30 EDT 2019
User: cochatt
Spectrometer: HR+D1059
Trigger mode: 1
Integration Time (sec): 1.000000E-1
Scans to average: 1
Electric dark correction enabled: true
Nonlinearity correction enabled: false
Boxcar width: 0
XAxis mode: Wavelengths
Number of Pixels in Spectrum: 2048
>>>>>Begin Spectral Data<<<<<
223.165	-6
223.4	-6
223.635	-6
223.869	-15
224.104	-26
224.338	-9
224.573	-15
224.808	-11
225.042	-9
225.277	1
225.511	-4
225.746	-8
225.98	18
226.215	3
226.449	13
226.683	6
226.918	36
227.152	26
227.387	37
227.621	44
227.856	40
228.09	43
228.324	50
228.559	59
228.793	62
229.027	65
229.262	54
229.496	70
229.73	68
229.964	64
230.199	69
230.433	82
230.667	75
230.901	90
231.136	67
231.37	71
231.604	91
231.838	64
232.072	80
232.306	87
232.541	70
232.775	82
233.009	73
233.243	76
233.477	82
233.711	84
233.945	92
234.179	75
234.413	83
234.647	77
234.881	65
235.115	79
235.349	77
235.583	97
235.817	82
236.051	84
236.285	82
236.519	68
236.753	80
236.987	82
237.221	73
237.455	82
237.689	82
237.922	83
238.156	83
238.39	92
238.624	82
238.858	85
239.091	78
239.325	66
239.559	80
239.793	73
240.027	81
240.26	84
240.494	80
240.728	77
240.961	86
241.195	76
241.429	76
241.662	73
241.896	64
242.13	76
242.363	83
242.597	75
242.83	83
243.064	81
243.298	74
243.531	72
243.765	68
243.998	74
244.232	89
244.465	78
244.699	76
244.932	73
245.166	69
245.399	87
245.633	96
245.866	83
246.099	76
246.333	70
246.566	79
246.8	80
247.033	71
247.266	61
247.5	74
247.733	76
247.966	80
248.2	92
248.433	85
248.666	84
248.899	100
249.133	75
249.366	109
249.599	77
249.832	85
250.066	88
250.299	78
250.532	81
250.765	76
250.998	76
251.231	77
251.465	78
251.698	74
251.931	72
252.164	85
252.397	70
252.63	89
252.863	84
253.096	95
253.329	70
253.562	80
253.795	82
254.028	68
254.261	92
254.494	75
254.727	90
254.96	87
255.193	92
255.426	78
255.659	81
255.892	74
256.124	74
256.357	77
256.59	94
256.823	77
257.056	75
257.289	87
257.521	68
257.754	102
257.987	73
258.22	95
258.452	91
258.685	95
258.918	74
259.151	80
259.383	76
259.616	73
259.849	78
260.081	93
260.314	86
260.547	97
260.779	94
261.012	80
261.244	79
261.477	74
261.71	82
261.942	84
262.175	88
262.407	86
262.64	66
262.872	77
263.105	80
263.337	90
263.57	79
263.802	84
264.035	87
264.267	77
264.499	85
264.732	84
264.964	81
265.197	86
265.429	89
265.661	72
265.894	81
266.126	81
266.358	80
266.591	77
266.823	85
267.055	81
267.287	75
267.52	82
267.752	90
267.984	78
268.216	75
268.448	83
268.681	84
268.913	85
269.145	81
269.377	108
269.609	84
269.841	74
270.073	79
270.306	80
270.538	82
270.77	74
271.002	90
271.234	96
271.466	81
271.698	80
271.93	78
272.162	72
272.394	84
272.626	81
272.858	87
273.09	69
273.322	82
273.553	90
273.785	76
274.017	84
274.249	84
274.481	87
274.713	82
274.945	85
275.176	82
275.408	92
275.64	86
275.872	87
276.104	81
276.335	83
276.567	83
276.799	81
277.031	95
277.262	78
277.494	88
277.726	99
277.957	90
278.189	86
278.421	86
278.652	74
278.884	82
279.115	102
279.347	86
279.579	87
279.81	77
280.042	71
280.273	77
280.505	78
280.736	85
280.968	94
281.199	82
281.431	79
281.662	85
281.894	86
282.125	83
282.356	80
282.588	78
282.819	86
283.051	89
283.282	80
283.513	101
283.745	79
283.976	100
284.207	67
284.439	89
284.67	88
284.901	76
285.132	76
285.364	91
285.595	72
285.826	88
286.057	87
286.288	74
286.52	80
286.751	72
286.982	95
287.213	105
287.444	77
287.675	85
287.906	77
288.138	76
288.369	76
288.6	76
288.831	80
289.062	97
289.293	91
289.524	78
289.755	92
289.986	83
290.217	87
290.448	79
290.679	82
290.91	84
291.141	64
291.371	95
291.602	80
291.833	85
292.064	70
292.295	84
292.526	84
292.757	91
292.987	94
293.218	96
293.449	88
293.68	86
293.91	89
294.141	87
294.372	80
294.603	89
294.833	98
295.064	90
295.295	74
295.525	82
295.756	91
295.987	77
296.217	77
296.448	88
296.679	79
296.909	90
297.14	80
297.37	82
297.601	77
297.831	84
298.062	80
298.292	93
298.523	88
298.753	81
298.984	91
299.214	77
299.445	87
299.675	92
299.905	89
300.136	90
300.366	91
300.597	83
300.827	94
301.057	94
301.288	91
301.518	105
301.748	92
301.979	92
302.209	86
302.439	91
302.669	82
302.9	81
303.13	77
303.36	87
303.59	91
303.82	85
304.051	86
304.281	86
304.511	85
304.741	92
304.971	82
305.201	78
305.431	85
305.661	100
305.891	81
306.121	88
306.352	77
306.582	76
306.812	84
307.042	96
307.272	83
307.502	92
307.731	89
307.961	96
308.191	78
308.421	91
308.651	81
308.881	83
309.111	92
309.341	82
309.571	91
309.8	87
310.03	92
310.26	86
310.49	91
310.72	80
310.949	82
311.179	78
311.409	83
311.639	80
311.868	85
312.098	78
312.328	82
312.557	88
312.787	83
313.017	90
313.246	89
313.476	88
313.706	81
313.935	82
314.165	88
314.394	83
314.624	89
314.853	93
315.083	86
315.312	80
315.542	83
315.771	84
316.001	93
316.23	75
316.46	74
316.689	87
316.919	76
317.148	84
317.377	84
317.607	92
317.836	95
318.065	87
318.295	93
318.524	82
318.753	82
318.983	83
319.212	84
319.441	72
319.67	93
319.9	92
320.129	85
320.358	92
320.587	93
320.816	89
321.046	80
321.275	77
321.504	83
321.733	80
321.962	81
322.191	96
322.42	96
322.649	91
322.878	101
323.108	87
323.337	104
323.566	79
323.795	84
324.024	84
324.253	87
324.482	84
324.71	88
324.939	86
325.168	68
325.397	96
325.626	80
325.855	82
326.084	87
326.313	81
326.542	77
326.77	99
326.999	85
327.228	84
327.457	100
327.686	98
327.914	102
328.143	80
328.372	92
328.6	90
328.829	90
329.058	89
329.287	76
329.515	69
329.744	90
329.972	90
330.201	87
330.43	89
330.658	87
330.887	103
331.115	97
331.344	77
331.572	85
331.801	81
332.03	86
332.258	96
332.486	85
332.715	83
332.943	89
333.172	89
333.4	83
333.629	81
333.857	86
334.085	81
334.314	87
334.542	78
334.771	93
334.999	94
335.227	86
335.455	89
335.684	101
335.912	89
336.14	81
336.369	85
336.597	95
336.825	88
337.053	80
337.281	73
337.51	84
337.738	91
337.966	86
338.194	84
338.422	85
338.65	77
338.878	85
339.106	75
339.334	90
339.562	92
339.79	82
340.018	82
340.246	72
340.474	87
340.702	95
340.93	85
341.158	82
341.386	98
341.614	87
341.842	92
342.07	83
342.298	90
342.526	86
342.754	102
342.981	88
343.209	74
343.437	84
343.665	88
343.893	81
344.12	97
344.348	92
344.576	74
344.804	94
345.031	88
345.259	81
345.487	93
345.714	66
345.942	88
346.17	81
346.397	97
346.625	82
346.853	92
347.08	82
347.308	92
347.535	93
347.763	72
347.99	80
348.218	96
348.445	99
348.673	77
348.9	90
349.128	96
349.355	89
349.583	76
349.81	80
350.037	77
350.265	91
350.492	89
350.72	93
350.947	83
351.174	88
351.402	89
351.629	84
351.856	91
352.083	81
352.311	87
352.538	79
352.765	81
352.992	93
353.22	82
353.447	94
353.674	82
353.901	81
354.128	85
354.355	101
354.583	81
354.81	95
355.037	85
355.264	74
355.491	87
355.718	84
355.945	79
356.172	84
356.399	95
356.626	75
356.853	80
357.08	88
357.307	106
357.534	100
357.761	90
357.988	81
358.215	95
358.441	86
358.668	84
358.895	91
359.122	79
359.349	87
359.576	76
359.802	92
360.029	83
360.256	85
360.483	87
360.709	80
360.936	84
361.163	88
361.39	84
361.616	83
361.843	93
362.07	93
362.296	77
362.523	98
362.749	72
362.976	90
363.203	95
363.429	90
363.656	83
363.882	90
364.109	92
364.335	101
364.562	94
364.788	91
365.015	94
365.241	84
365.468	86
365.694	80
365.92	89
366.147	86
366.373	87
366.599	83
366.826	89
367.052	84
367.278	83
367.505	100
367.731	74
367.957	84
368.184	98
368.41	87
368.636	87
368.862	90
369.089	79
369.315	90
369.541	103
369.767	83
369.993	93
370.219	81
370.445	102
370.672	84
370.898	94
371.124	96
371.35	94
371.576	79
371.802	92
372.028	83
372.254	84
372.48	82
372.706	79
372.932	94
373.158	86
373.384	92
373.61	95
373.835	86
374.061	100
374.287	115
374.513	83
374.739	93
374.965	88
375.191	100
375.416	96
375.642	92
375.868	88
376.094	93
376.319	82
376.545	88
376.771	92
376.997	98
377.222	84
377.448	90
377.674	97
377.899	93
378.125	89
378.35	104
378.576	108
378.802	107
379.027	84
379.253	100
379.478	73
379.704	80
379.929	98
380.155	91
380.38	88
380.606	92
380.831	86
381.057	95
381.282	96
381.507	93
381.733	103
381.958	103
382.184	101
382.409	78
382.634	103
382.86	93
383.085	89
383.31	85
383.535	89
383.761	96
383.986	108
384.211	102
384.436	103
384.662	100
384.887	106
385.112	105
385.337	80
385.562	89
385.787	108
386.013	89
386.238	93
386.463	109
386.688	102
386.913	90
387.138	81
387.363	102
387.588	100
387.813	94
388.038	102
388.263	107
388.488	112
388.713	103
388.938	90
389.163	84
389.387	109
389.612	93
389.837	100
390.062	101
390.287	100
390.512	100
390.736	110
390.961	85
391.186	107
391.411	108
391.636	88
391.86	92
392.085	104
392.31	91
392.534	104
392.759	109
392.984	100
393.208	101
393.433	105
393.658	94
393.882	84
394.107	93
394.331	103
394.556	96
394.78	95
395.005	118
395.229	120
395.454	101
395.678	107
395.903	101
396.127	82
396.352	102
396.576	115
396.801	107
397.025	118
397.249	108
397.474	102
397.698	97
397.922	107
398.147	100
398.371	91
398.595	103
398.82	101
399.044	117
399.268	114
399.492	123
399.717	103
399.941	114
400.165	113
400.389	102
400.613	109
400.837	106
401.062	113
401.286	106
401.51	102
401.734	109
401.958	102
402.182	110
402.406	109
402.63	106
402.854	112
403.078	104
403.302	102
403.526	103
403.75	100
403.974	105
404.198	124
404.422	122
404.645	125
404.869	124
405.093	121
405.317	115
405.541	120
405.765	113
405.988	114
406.212	123
406.436	120
406.66	121
406.883	108
407.107	112
407.331	113
407.555	104
407.778	114
408.002	113
408.226	117
408.449	122
408.673	120
408.896	120
409.12	121
409.344	110
409.567	116
409.791	138
410.014	117
410.238	123
410.461	119
410.685	102
410.908	102
411.132	97
411.355	101
411.578	113
411.802	105
412.025	114
412.249	123
412.472	109
412.695	109
412.919	109
413.142	117
413.365	94
413.589	116
413.812	96
414.035	112
414.258	102
414.482	112
414.705	114
414.928	114
415.151	104
415.374	112
415.597	124
415.821	121
416.044	109
416.267	120
416.49	112
416.713	128
416.936	105
417.159	128
417.382	115
417.605	106
417.828	112
418.051	108
418.274	123
418.497	119
418.72	122
418.943	120
419.166	121
419.389	126
419.611	127
419.834	110
420.057	121
420.28	112
420.503	112
420.726	124
420.948	107
421.171	119
421.394	118
421.617	116
421.839	115
422.062	118
422.285	120
422.507	119
422.73	107
422.953	112
423.175	110
423.398	122
423.621	112
423.843	120
424.066	117
424.288	129
424.511	136
424.733	99
424.956	118
425.178	112
425.401	129
425.623	117
425.846	118
426.068	125
426.291	109
426.513	132
426.735	103
426.958	119
427.18	102
427.402	121
427.625	116
427.847	108
428.069	114
428.292	128
428.514	111
428.736	107
428.958	102
429.181	122
429.403	93
429.625	114
429.847	123
430.069	118
430.292	112
430.514	117
430.736	107
430.958	123
431.18	121
431.402	125
431.624	109
431.846	108
432.068	109
432.29	113
432.512	127
432.734	108
432.956	117
433.178	120
433.4	119
433.622	88
433.844	113
434.066	98
434.287	95
434.509	115
434.731	106
434.953	98
435.175	114
435.397	112
435.618	112
435.84	109
436.062	119
436.284	98
436.505	122
436.727	113
436.949	120
437.17	103
437.392	102
437.614	108
437.835	108
438.057	105
438.278	114
438.5	119
438.721	101
438.943	109
439.165	115
439.386	115
439.608	115
439.829	119
440.05	117
440.272	105
440.493	96
440.715	114
440.936	132
441.158	122
441.379	128
441.6	136
441.822	123
442.043	124
442.264	109
442.486	114
442.707	130
442.928	106
443.149	110
443.371	117
443.592	123
443.813	122
444.034	123
444.255	107
444.476	128
444.698	122
444.919	140
445.14	255
445.361	184
445.582	117
445.803	126
446.024	131
446.245	127
446.466	124
446.687	143
446.908	123
447.129	112
447.35	130
447.571	125
447.792	120
448.013	117
448.234	130
448.455	120
448.675	116
448.896	119
449.117	116
449.338	112
449.559	101
449.779	129
450	122
450.221	122
450.442	96
450.662	133
450.883	102
451.104	116
451.324	103
451.545	109
451.766	123
451.986	122
452.207	123
452.428	107
452.648	104
452.869	106
453.089	114
453.31	105
453.53	99
453.751	114
453.971	108
454.192	87
454.412	118
454.633	105
454.853	106
455.073	130
455.294	112
455.514	120
455.734	100
455.955	122
456.175	109
456.395	92
456.616	99
456.836	116
457.056	104
457.276	101
457.497	109
457.717	115
457.937	94
458.157	98
458.377	112
458.598	100
458.818	109
459.038	100
459.258	100
459.478	108
459.698	98
459.918	116
460.138	122
460.358	127
460.578	117
460.798	131
461.018	126
461.238	132
461.458	129
461.678	117
461.898	116
462.118	127
462.338	122
462.558	126
462.777	120
462.997	126
463.217	142
463.437	125
463.657	114
463.876	124
464.096	120
464.316	123
464.536	129
464.755	129
464.975	117
465.195	115
465.414	135
465.634	125
465.854	106
466.073	106
466.293	131
466.512	125
466.732	107
466.951	114
467.171	126
467.391	125
467.61	97
467.829	119
468.049	109
468.268	108
468.488	123
468.707	123
468.927	116
469.146	126
469.365	100
469.585	122
469.804	120
470.023	117
470.243	121
470.462	132
470.681	128
470.901	121
471.12	128
471.339	133
471.558	121
471.777	125
471.997	128
472.216	115
472.435	100
472.654	98
472.873	118
473.092	121
473.311	120
473.53	102
473.749	123
473.968	123
474.187	96
474.406	118
474.625	120
474.844	121
475.063	116
475.282	112
475.501	100
475.72	125
475.939	114
476.158	108
476.377	112
476.596	112
476.814	116
477.033	120
477.252	120
477.471	121
477.69	128
477.908	132
478.127	122
478.346	124
478.564	126
478.783	143
479.002	138
479.22	136
479.439	124
479.658	133
479.876	128
480.095	130
480.313	136
480.532	129
480.751	126
480.969	124
481.188	116
481.406	117
481.624	104
481.843	102
482.061	107
482.28	130
482.498	107
482.717	125
482.935	129
483.153	128
483.372	140
483.59	128
483.808	130
484.027	117
484.245	132
484.463	122
484.681	130
484.9	135
485.118	123
485.336	118
485.554	119
485.772	115
485.99	114
486.209	107
486.427	129
486.645	126
486.863	140
487.081	127
487.299	135
487.517	130
487.735	147
487.953	133
488.171	145
488.389	152
488.607	140
488.825	126
489.043	126
489.261	127
489.479	132
489.696	131
489.914	118
490.132	142
490.35	144
490.568	146
490.786	167
491.003	137
491.221	156
491.439	155
491.657	152
491.874	170
492.092	179
492.31	170
492.527	162
492.745	153
492.963	149
493.18	157
493.398	140
493.615	166
493.833	164
494.05	151
494.268	149
494.485	148
494.703	133
494.92	152
495.138	141
495.355	157
495.573	134
495.79	157
496.008	145
496.225	161
496.442	136
496.66	140
496.877	144
497.094	162
497.312	145
497.529	144
497.746	141
497.963	156
498.181	141
498.398	137
498.615	131
498.832	139
499.049	156
499.267	166
499.484	169
499.701	189
499.918	180
500.135	198
500.352	231
500.569	233
500.786	236
501.003	202
501.22	195
501.437	189
501.654	176
501.871	157
502.088	164
502.305	148
502.522	151
502.739	139
502.956	141
503.172	140
503.389	119
503.606	137
503.823	128
504.04	140
504.256	137
504.473	130
504.69	131
504.907	130
505.123	110
505.34	130
505.557	114
505.773	136
505.99	137
506.207	121
506.423	129
506.64	132
506.856	140
507.073	128
507.289	139
507.506	122
507.722	127
507.939	125
508.155	119
508.372	113
508.588	120
508.805	125
509.021	108
509.238	116
509.454	118
509.67	109
509.887	108
510.103	104
510.319	118
510.536	108
510.752	110
510.968	126
511.184	111
511.401	116
511.617	116
511.833	106
512.049	108
512.265	116
512.481	106
512.698	107
512.914	120
513.13	114
513.346	120
513.562	112
513.778	113
513.994	116
514.21	111
514.426	122
514.642	116
514.858	119
515.074	121
515.29	125
515.506	129
515.721	117
515.937	114
516.153	105
516.369	119
516.585	118
516.801	121
517.016	124
517.232	128
517.448	118
517.664	120
517.879	136
518.095	128
518.311	135
518.527	122
518.742	128
518.958	124
519.173	128
519.389	126
519.605	117
519.82	120
520.036	122
520.251	115
520.467	136
520.682	118
520.898	120
521.113	112
521.329	106
521.544	104
521.76	120
521.975	100
522.19	114
522.406	107
522.621	116
522.836	109
523.052	105
523.267	123
523.482	130
523.698	128
523.913	115
524.128	110
524.343	116
524.559	116
524.774	116
524.989	134
525.204	135
525.419	123
525.634	118
525.849	109
526.064	114
526.28	109
526.495	101
526.71	94
526.925	112
527.14	125
527.355	130
527.57	122
527.785	118
527.999	114
528.214	113
528.429	135
528.644	123
528.859	120
529.074	126
529.289	128
529.503	135
529.718	123
529.933	122
530.148	119
530.363	112
530.577	106
530.792	110
531.007	107
531.221	110
531.436	122
531.651	117
531.865	109
532.08	107
532.295	116
532.509	89
532.724	109
532.938	114
533.153	112
533.367	123
533.582	123
533.796	120
534.011	117
534.225	109
534.44	105
534.654	105
534.868	125
535.083	108
535.297	98
535.511	116
535.726	98
535.94	123
536.154	122
536.369	117
536.583	112
536.797	112
537.011	104
537.225	96
537.44	102
537.654	106
537.868	104
538.082	101
538.296	109
538.51	100
538.724	115
538.938	122
539.153	120
539.367	121
539.581	109
539.795	109
540.009	110
540.222	96
540.436	105
540.65	123
540.864	132
541.078	138
541.292	125
541.506	129
541.72	127
541.934	141
542.147	143
542.361	134
542.575	119
542.789	121
543.002	110
543.216	125
543.43	129
543.644	129
543.857	129
544.071	141
544.285	117
544.498	128
544.712	146
544.925	139
545.139	137
545.352	140
545.566	138
545.779	141
545.993	141
546.206	133
546.42	136
546.633	146
546.847	123
547.06	127
547.274	131
547.487	147
547.7	138
547.914	142
548.127	132
548.34	137
548.554	152
548.767	132
548.98	126
549.193	126
549.407	145
549.62	116
549.833	125
550.046	130
550.259	133
550.473	128
550.686	128
550.899	123
551.112	124
551.325	117
551.538	128
551.751	126
551.964	126
552.177	108
552.39	109
552.603	138
552.816	147
553.029	136
553.242	136
553.455	132
553.667	133
553.88	137
554.093	130
554.306	124
554.519	126
554.732	121
554.944	137
555.157	122
555.37	116
555.583	100
555.795	120
556.008	115
556.221	114
556.433	121
556.646	118
556.859	130
557.071	122
557.284	127
557.496	116
557.709	121
557.921	114
558.134	108
558.346	106
558.559	121
558.771	110
558.984	119
559.196	122
559.409	117
559.621	112
559.833	107
560.046	122
560.258	112
560.47	124
560.683	109
560.895	126
561.107	123
561.32	125
561.532	125
561.744	116
561.956	122
562.168	110
562.381	121
562.593	104
562.805	124
563.017	99
563.229	116
563.441	108
563.653	124
563.865	106
564.077	97
564.289	120
564.501	120
564.713	108
564.925	97
565.137	112
565.349	119
565.561	108
565.773	115
565.985	110
566.197	112
566.408	118
566.62	119
566.832	122
567.044	113
567.255	124
567.467	131
567.679	129
567.891	123
568.102	133
568.314	130
568.526	114
568.737	109
568.949	103
569.161	91
569.372	94
569.584	105
569.795	81
570.007	97
570.218	100
570.43	101
570.641	96
570.853	97
571.064	89
571.276	90
571.487	104
571.698	100
571.91	94
572.121	104
572.333	98
572.544	90
572.755	105
572.966	109
573.178	92
573.389	102
573.6	90
573.811	98
574.023	95
574.234	96
574.445	79
574.656	112
574.867	101
575.078	105
575.289	93
575.501	93
575.712	85
575.923	104
576.134	96
576.345	87
576.556	91
576.767	93
576.978	98
577.188	106
577.399	93
577.61	89
577.821	101
578.032	91
578.243	84
578.454	106
578.665	99
578.875	96
579.086	102
579.297	90
579.508	96
579.718	96
579.929	103
580.14	101
580.35	88
580.561	85
580.772	90
580.982	102
581.193	90
581.403	92
581.614	93
581.825	96
582.035	92
582.246	114
582.456	97
582.667	86
582.877	106
583.087	106
583.298	82
583.508	83
583.719	108
583.929	96
584.139	94
584.35	95
584.56	90
584.77	98
584.981	88
585.191	88
585.401	98
585.611	101
585.821	99
586.032	97
586.242	101
586.452	91
586.662	99
586.872	84
587.082	92
587.292	88
587.502	83
587.713	89
587.923	92
588.133	88
588.343	94
588.553	87
588.762	95
588.972	91
589.182	92
589.392	88
589.602	93
589.812	97
590.022	83
590.232	82
590.441	99
590.651	106
590.861	83
591.071	97
591.281	89
591.49	93
591.7	100
591.91	87
592.119	102
592.329	96
592.539	102
592.748	96
592.958	93
593.167	99
593.377	91
593.587	100
593.796	109
594.006	93
594.215	95
594.424	89
594.634	94
594.843	103
595.053	101
595.262	104
595.472	90
595.681	84
595.89	90
596.1	95
596.309	94
596.518	99
596.727	88
596.937	107
597.146	104
597.355	88
597.564	72
597.774	94
597.983	104
598.192	99
598.401	101
598.61	94
598.819	90
599.028	104
599.237	84
599.446	100
599.655	97
599.864	91
600.073	97
600.282	104
600.491	91
600.7	95
600.909	93
601.118	88
601.327	81
601.536	89
601.745	81
601.953	100
602.162	96
602.371	100
602.58	99
602.789	92
602.997	80
603.206	89
603.415	94
603.623	96
603.832	91
604.041	101
604.249	92
604.458	93
604.666	97
604.875	102
605.084	97
605.292	81
605.501	80
605.709	96
605.918	96
606.126	91
606.334	102
606.543	97
606.751	84
606.96	84
607.168	96
607.376	85
607.585	78
607.793	90
608.001	97
608.21	93
608.418	77
608.626	108
608.834	89
609.043	90
609.251	106
609.459	92
609.667	107
609.875	89
610.083	99
610.291	106
610.499	96
610.707	94
610.916	117
611.124	89
611.332	92
611.54	114
611.748	86
611.955	88
612.163	97
612.371	89
612.579	77
612.787	94
612.995	101
613.203	104
613.411	103
613.618	98
613.826	99
614.034	94
614.242	104
614.449	96
614.657	88
614.865	99
615.072	85
615.28	99
615.488	83
615.695	92
615.903	100
616.111	96
616.318	92
616.526	78
616.733	97
616.941	103
617.148	89
617.356	107
617.563	95
617.771	93
617.978	79
618.185	101
618.393	94
618.6	110
618.807	110
619.015	101
619.222	97
619.429	99
619.637	103
619.844	92
620.051	104
620.258	88
620.466	85
620.673	87
620.88	92
621.087	87
621.294	91
621.501	96
621.708	87
621.915	91
622.122	85
622.329	100
622.536	85
622.743	93
622.95	93
623.157	80
623.364	78
623.571	104
623.778	104
623.985	93
624.192	103
624.399	94
624.606	90
624.812	109
625.019	89
625.226	89
625.433	77
625.639	91
625.846	93
626.053	84
626.259	94
626.466	90
626.673	97
626.879	96
627.086	96
627.293	89
627.499	94
627.706	90
627.912	94
628.119	106
628.325	94
628.532	101
628.738	84
628.945	90
629.151	100
629.357	88
629.564	98
629.77	91
629.976	88
630.183	95
630.389	91
630.595	87
630.802	95
631.008	84
631.214	88
631.42	93
631.627	107
631.833	74
632.039	92
632.245	95
632.451	100
632.657	85
632.863	84
633.069	92
633.275	84
633.481	93
633.688	82
633.893	93
634.099	91
634.305	88
634.511	78
634.717	92
634.923	92
635.129	81
635.335	87
635.541	92
635.747	94
635.952	98
636.158	95
636.364	88
636.57	85
636.775	90
636.981	92
637.187	84
637.392	86
637.598	93
637.804	84
638.009	96
638.215	99
638.421	100
638.626	90
638.832	78
639.037	90
639.243	105
639.448	90
639.654	97
639.859	85
640.065	87
640.27	94
640.475	88
640.681	94
640.886	86
641.091	85
641.297	94
641.502	78
641.707	85
641.913	99
642.118	83
642.323	85
642.528	97
642.733	84
642.939	85
643.144	88
643.349	82
643.554	94
643.759	94
643.964	98
644.169	87
644.374	93
644.579	84
644.784	91
644.989	76
645.194	86
645.399	77
645.604	78
645.809	96
646.014	77
646.219	81
646.423	81
646.628	83
646.833	103
647.038	112
647.243	96
647.447	100
647.652	102
647.857	86
648.062	79
648.266	89
648.471	100
648.676	86
648.88	82
649.085	88
649.289	95
649.494	74
649.698	84
649.903	90
650.107	96
650.312	85
650.516	86
650.721	88
650.925	90
651.13	84
651.334	92
651.539	80
651.743	79
651.947	91
652.152	111
652.356	91
652.56	98
652.764	93
652.969	87
653.173	78
653.377	91
653.581	87
653.785	89
653.99	92
654.194	105
654.398	82
654.602	80
654.806	77
655.01	92
655.214	102
655.418	95
655.622	84
655.826	85
656.03	88
656.234	92
656.438	81
656.642	78
656.846	82
657.049	76
657.253	96
657.457	90
657.661	82
657.865	82
658.068	83
658.272	92
658.476	95
658.68	108
658.883	99
659.087	83
659.291	88
659.494	75
659.698	81
659.901	100
660.105	86
660.309	98
660.512	85
660.716	75
660.919	81
661.123	89
661.326	84
661.53	83
661.733	86
661.936	91
662.14	90
662.343	79
662.546	77
662.75	84
662.953	95
663.156	77
663.36	80
663.563	78
663.766	71
663.969	96
664.173	86
664.376	84
664.579	99
664.782	75
664.985	78
665.188	94
665.391	81
665.594	82
665.797	68
666	97
666.203	85
666.406	78
666.609	85
666.812	86
667.015	87
667.218	85
667.421	87
667.624	75
667.827	100
668.03	86
668.232	78
668.435	91
668.638	79
668.841	86
669.043	76
669.246	88
669.449	91
669.651	88
669.854	82
670.057	81
670.259	81
670.462	89
670.665	76
670.867	87
671.07	76
671.272	78
671.475	91
671.677	84
671.88	93
672.082	79
672.284	92
672.487	74
672.689	78
672.892	72
