Data from StandardFe(NO3)3.TAE.3%Agarose.FlatLispGreen.Lamp.Energy10.07252019_HRD10591_11-53-21-439.txt Node
Date: Thu Jul 25 11:53:21 EDT 2019
User: cochatt
Spectrometer: HR+D1059
Trigger mode: 1
Integration Time (sec): 1.000000E-1
Scans to average: 1
Electric dark correction enabled: true
Nonlinearity correction enabled: false
Boxcar width: 0
XAxis mode: Wavelengths
Number of Pixels in Spectrum: 2048
>>>>>Begin Spectral Data<<<<<
223.165	-7
223.4	-7
223.635	-7
223.869	-17
224.104	-16
224.338	-19
224.573	-16
224.808	-30
225.042	0
225.277	-8
225.511	2
225.746	10
225.98	12
226.215	11
226.449	14
226.683	13
226.918	17
227.152	34
227.387	38
227.621	36
227.856	45
228.09	54
228.324	48
228.559	60
228.793	77
229.027	66
229.262	76
229.496	65
229.73	84
229.964	73
230.199	72
230.433	61
230.667	69
230.901	76
231.136	79
231.37	94
231.604	89
231.838	65
232.072	101
232.306	83
232.541	80
232.775	100
233.009	82
233.243	103
233.477	93
233.711	91
233.945	82
234.179	72
234.413	87
234.647	88
234.881	100
235.115	77
235.349	88
235.583	85
235.817	86
236.051	80
236.285	103
236.519	75
236.753	85
236.987	78
237.221	87
237.455	71
237.689	90
237.922	71
238.156	80
238.39	71
238.624	84
238.858	74
239.091	74
239.325	82
239.559	77
239.793	78
240.027	82
240.26	79
240.494	63
240.728	85
240.961	81
241.195	76
241.429	93
241.662	91
241.896	86
242.13	73
242.363	87
242.597	89
242.83	88
243.064	83
243.298	74
243.531	74
243.765	82
243.998	90
244.232	79
244.465	76
244.699	84
244.932	70
245.166	73
245.399	90
245.633	83
245.866	82
246.099	82
246.333	75
246.566	79
246.8	86
247.033	86
247.266	89
247.5	85
247.733	82
247.966	76
248.2	82
248.433	81
248.666	73
248.899	95
249.133	89
249.366	93
249.599	95
249.832	81
250.066	81
250.299	85
250.532	94
250.765	87
250.998	77
251.231	88
251.465	78
251.698	88
251.931	93
252.164	80
252.397	74
252.63	84
252.863	89
253.096	86
253.329	79
253.562	90
253.795	77
254.028	81
254.261	86
254.494	74
254.727	85
254.96	85
255.193	87
255.426	77
255.659	86
255.892	81
256.124	82
256.357	88
256.59	95
256.823	73
257.056	71
257.289	86
257.521	68
257.754	66
257.987	78
258.22	100
258.452	88
258.685	93
258.918	92
259.151	80
259.383	81
259.616	92
259.849	94
260.081	96
260.314	97
260.547	82
260.779	87
261.012	97
261.244	90
261.477	78
261.71	76
261.942	79
262.175	86
262.407	88
262.64	77
262.872	88
263.105	90
263.337	87
263.57	92
263.802	85
264.035	86
264.267	85
264.499	87
264.732	84
264.964	78
265.197	88
265.429	93
265.661	81
265.894	90
266.126	97
266.358	91
266.591	81
266.823	86
267.055	90
267.287	85
267.52	93
267.752	83
267.984	93
268.216	76
268.448	92
268.681	95
268.913	77
269.145	95
269.377	96
269.609	79
269.841	96
270.073	72
270.306	97
270.538	68
270.77	65
271.002	94
271.234	82
271.466	86
271.698	84
271.93	72
272.162	79
272.394	98
272.626	96
272.858	78
273.09	95
273.322	93
273.553	96
273.785	82
274.017	89
274.249	85
274.481	85
274.713	90
274.945	77
275.176	97
275.408	83
275.64	86
275.872	86
276.104	94
276.335	88
276.567	85
276.799	79
277.031	88
277.262	98
277.494	90
277.726	96
277.957	79
278.189	90
278.421	84
278.652	93
278.884	95
279.115	85
279.347	87
279.579	83
279.81	91
280.042	88
280.273	96
280.505	87
280.736	86
280.968	79
281.199	89
281.431	100
281.662	82
281.894	80
282.125	80
282.356	87
282.588	81
282.819	93
283.051	79
283.282	81
283.513	90
283.745	83
283.976	91
284.207	81
284.439	98
284.67	78
284.901	95
285.132	81
285.364	87
285.595	85
285.826	70
286.057	79
286.288	110
286.52	86
286.751	94
286.982	102
287.213	96
287.444	92
287.675	89
287.906	95
288.138	88
288.369	100
288.6	88
288.831	85
289.062	90
289.293	74
289.524	90
289.755	86
289.986	95
290.217	88
290.448	87
290.679	108
290.91	107
291.141	117
291.371	98
291.602	100
291.833	82
292.064	86
292.295	77
292.526	89
292.757	104
292.987	89
293.218	100
293.449	100
293.68	104
293.91	97
294.141	96
294.372	84
294.603	85
294.833	89
295.064	90
295.295	110
295.525	95
295.756	105
295.987	89
296.217	92
296.448	85
296.679	82
296.909	93
297.14	90
297.37	96
297.601	70
297.831	95
298.062	89
298.292	82
298.523	85
298.753	88
298.984	107
299.214	91
299.445	75
299.675	105
299.905	83
300.136	105
300.366	89
300.597	97
300.827	94
301.057	100
301.288	97
301.518	80
301.748	81
301.979	81
302.209	93
302.439	100
302.669	95
302.9	90
303.13	88
303.36	91
303.59	86
303.82	92
304.051	108
304.281	89
304.511	96
304.741	80
304.971	83
305.201	100
305.431	88
305.661	84
305.891	92
306.121	96
306.352	90
306.582	93
306.812	82
307.042	96
307.272	77
307.502	90
307.731	98
307.961	87
308.191	89
308.421	88
308.651	92
308.881	84
309.111	88
309.341	74
309.571	95
309.8	86
310.03	86
310.26	96
310.49	88
310.72	79
310.949	96
311.179	90
311.409	102
311.639	92
311.868	80
312.098	98
312.328	93
312.557	100
312.787	81
313.017	78
313.246	84
313.476	86
313.706	90
313.935	89
314.165	81
314.394	92
314.624	98
314.853	78
315.083	88
315.312	95
315.542	88
315.771	80
316.001	79
316.23	84
316.46	76
316.689	84
316.919	99
317.148	90
317.377	94
317.607	93
317.836	89
318.065	82
318.295	92
318.524	93
318.753	95
318.983	101
319.212	92
319.441	82
319.67	94
319.9	81
320.129	81
320.358	105
320.587	87
320.816	101
321.046	86
321.275	98
321.504	98
321.733	101
321.962	83
322.191	89
322.42	104
322.649	105
322.878	103
323.108	102
323.337	99
323.566	90
323.795	92
324.024	98
324.253	85
324.482	90
324.71	96
324.939	76
325.168	85
325.397	90
325.626	86
325.855	84
326.084	87
326.313	105
326.542	97
326.77	91
326.999	68
327.228	82
327.457	94
327.686	79
327.914	87
328.143	87
328.372	92
328.6	90
328.829	82
329.058	85
329.287	102
329.515	88
329.744	90
329.972	101
330.201	74
330.43	90
330.658	94
330.887	100
331.115	99
331.344	95
331.572	84
331.801	95
332.03	100
332.258	82
332.486	84
332.715	98
332.943	95
333.172	87
333.4	100
333.629	91
333.857	78
334.085	84
334.314	83
334.542	93
334.771	93
334.999	80
335.227	95
335.455	81
335.684	96
335.912	88
336.14	103
336.369	109
336.597	91
336.825	88
337.053	93
337.281	86
337.51	87
337.738	92
337.966	76
338.194	77
338.422	95
338.65	88
338.878	87
339.106	93
339.334	99
339.562	89
339.79	79
340.018	80
340.246	97
340.474	110
340.702	101
340.93	91
341.158	88
341.386	92
341.614	93
341.842	82
342.07	89
342.298	95
342.526	93
342.754	86
342.981	84
343.209	82
343.437	92
343.665	88
343.893	96
344.12	102
344.348	94
344.576	97
344.804	106
345.031	94
345.259	96
345.487	87
345.714	86
345.942	92
346.17	106
346.397	101
346.625	93
346.853	90
347.08	89
347.308	106
347.535	96
347.763	87
347.99	108
348.218	89
348.445	96
348.673	96
348.9	101
349.128	87
349.355	97
349.583	99
349.81	85
350.037	97
350.265	105
350.492	85
350.72	88
350.947	90
351.174	95
351.402	98
351.629	80
351.856	84
352.083	101
352.311	94
352.538	88
352.765	91
352.992	86
353.22	98
353.447	92
353.674	96
353.901	101
354.128	88
354.355	80
354.583	95
354.81	98
355.037	89
355.264	82
355.491	98
355.718	104
355.945	86
356.172	92
356.399	93
356.626	97
356.853	87
357.08	90
357.307	82
357.534	94
357.761	89
357.988	96
358.215	106
358.441	96
358.668	88
358.895	101
359.122	71
359.349	93
359.576	96
359.802	96
360.029	93
360.256	89
360.483	83
360.709	104
360.936	94
361.163	84
361.39	82
361.616	100
361.843	81
362.07	81
362.296	96
362.523	81
362.749	75
362.976	82
363.203	95
363.429	86
363.656	87
363.882	95
364.109	88
364.335	91
364.562	87
364.788	82
365.015	92
365.241	98
365.468	98
365.694	82
365.92	105
366.147	98
366.373	98
366.599	100
366.826	90
367.052	91
367.278	87
367.505	96
367.731	93
367.957	85
368.184	92
368.41	84
368.636	98
368.862	92
369.089	94
369.315	95
369.541	79
369.767	97
369.993	95
370.219	100
370.445	83
370.672	83
370.898	102
371.124	79
371.35	97
371.576	80
371.802	90
372.028	106
372.254	101
372.48	93
372.706	95
372.932	110
373.158	93
373.384	89
373.61	95
373.835	100
374.061	90
374.287	100
374.513	97
374.739	93
374.965	94
375.191	105
375.416	98
375.642	92
375.868	86
376.094	106
376.319	96
376.545	79
376.771	95
376.997	95
377.222	93
377.448	118
377.674	91
377.899	93
378.125	107
378.35	104
378.576	90
378.802	96
379.027	97
379.253	97
379.478	90
379.704	85
379.929	97
380.155	97
380.38	97
380.606	94
380.831	100
381.057	89
381.282	106
381.507	102
381.733	75
381.958	101
382.184	107
382.409	92
382.634	88
382.86	102
383.085	111
383.31	107
383.535	92
383.761	90
383.986	105
384.211	94
384.436	96
384.662	102
384.887	92
385.112	91
385.337	107
385.562	107
385.787	107
386.013	106
386.238	93
386.463	90
386.688	100
386.913	83
387.138	103
387.363	95
387.588	109
387.813	94
388.038	105
388.263	119
388.488	90
388.713	97
388.938	110
389.163	96
389.387	91
389.612	104
389.837	109
390.062	99
390.287	105
390.512	99
390.736	92
390.961	109
391.186	99
391.411	86
391.636	100
391.86	110
392.085	105
392.31	108
392.534	107
392.759	110
392.984	98
393.208	107
393.433	101
393.658	109
393.882	109
394.107	102
394.331	103
394.556	94
394.78	111
395.005	104
395.229	98
395.454	101
395.678	105
395.903	129
396.127	110
396.352	106
396.576	112
396.801	103
397.025	92
397.249	95
397.474	109
397.698	113
397.922	119
398.147	98
398.371	118
398.595	106
398.82	118
399.044	114
399.268	111
399.492	112
399.717	119
399.941	126
400.165	110
400.389	113
400.613	108
400.837	93
401.062	97
401.286	97
401.51	97
401.734	96
401.958	100
402.182	105
402.406	110
402.63	97
402.854	107
403.078	107
403.302	120
403.526	103
403.75	118
403.974	117
404.198	125
404.422	124
404.645	130
404.869	121
405.093	118
405.317	111
405.541	109
405.765	104
405.988	120
406.212	120
406.436	108
406.66	120
406.883	116
407.107	123
407.331	126
407.555	121
407.778	125
408.002	118
408.226	103
408.449	123
408.673	122
408.896	134
409.12	103
409.344	116
409.567	108
409.791	134
410.014	121
410.238	100
410.461	124
410.685	105
410.908	107
411.132	127
411.355	113
411.578	122
411.802	126
412.025	111
412.249	118
412.472	108
412.695	113
412.919	121
413.142	120
413.365	117
413.589	116
413.812	125
414.035	132
414.258	128
414.482	126
414.705	126
414.928	123
415.151	121
415.374	119
415.597	125
415.821	118
416.044	116
416.267	114
416.49	111
416.713	100
416.936	129
417.159	106
417.382	122
417.605	108
417.828	122
418.051	123
418.274	128
418.497	126
418.72	119
418.943	119
419.166	140
419.389	138
419.611	125
419.834	113
420.057	122
420.28	122
420.503	121
420.726	124
420.948	114
421.171	103
421.394	124
421.617	127
421.839	130
422.062	137
422.285	115
422.507	109
422.73	116
422.953	121
423.175	109
423.398	105
423.621	125
423.843	103
424.066	127
424.288	138
424.511	137
424.733	120
424.956	127
425.178	120
425.401	139
425.623	122
425.846	122
426.068	133
426.291	118
426.513	108
426.735	95
426.958	116
427.18	109
427.402	110
427.625	106
427.847	120
428.069	120
428.292	129
428.514	121
428.736	106
428.958	126
429.181	122
429.403	117
429.625	128
429.847	110
430.069	126
430.292	118
430.514	125
430.736	111
430.958	125
431.18	116
431.402	125
431.624	124
431.846	109
432.068	99
432.29	118
432.512	126
432.734	120
432.956	109
433.178	119
433.4	118
433.622	143
433.844	136
434.066	128
434.287	109
434.509	101
434.731	101
434.953	112
435.175	119
435.397	120
435.618	110
435.84	116
436.062	118
436.284	121
436.505	114
436.727	111
436.949	127
437.17	116
437.392	136
437.614	109
437.835	114
438.057	106
438.278	106
438.5	121
438.721	102
438.943	110
439.165	124
439.386	115
439.608	122
439.829	126
440.05	124
440.272	126
440.493	132
440.715	128
440.936	117
441.158	138
441.379	125
441.6	129
441.822	117
442.043	137
442.264	132
442.486	128
442.707	124
442.928	126
443.149	127
443.371	130
443.592	128
443.813	135
444.034	122
444.255	126
444.476	124
444.698	136
444.919	133
445.14	264
445.361	193
445.582	125
445.803	134
446.024	130
446.245	136
446.466	138
446.687	121
446.908	123
447.129	126
447.35	114
447.571	132
447.792	113
448.013	124
448.234	128
448.455	119
448.675	118
448.896	125
449.117	124
449.338	115
449.559	121
449.779	118
450	106
450.221	107
450.442	121
450.662	122
450.883	111
451.104	116
451.324	118
451.545	104
451.766	122
451.986	112
452.207	114
452.428	120
452.648	125
452.869	108
453.089	108
453.31	108
453.53	121
453.751	120
453.971	103
454.192	117
454.412	110
454.633	112
454.853	101
455.073	110
455.294	109
455.514	119
455.734	123
455.955	118
456.175	109
456.395	105
456.616	109
456.836	119
457.056	113
457.276	102
457.497	110
457.717	112
457.937	117
458.157	122
458.377	111
458.598	100
458.818	118
459.038	113
459.258	114
459.478	106
459.698	115
459.918	110
460.138	120
460.358	127
460.578	123
460.798	133
461.018	131
461.238	140
461.458	125
461.678	123
461.898	138
462.118	127
462.338	120
462.558	127
462.777	126
462.997	134
463.217	129
463.437	152
463.657	119
463.876	120
464.096	122
464.316	133
464.536	122
464.755	129
464.975	142
465.195	138
465.414	131
465.634	136
465.854	120
466.073	113
466.293	122
466.512	114
466.732	121
466.951	126
467.171	116
467.391	110
467.61	125
467.829	114
468.049	128
468.268	130
468.488	128
468.707	111
468.927	129
469.146	125
469.365	126
469.585	116
469.804	122
470.023	116
470.243	129
470.462	135
470.681	133
470.901	130
471.12	126
471.339	120
471.558	122
471.777	128
471.997	123
472.216	124
472.435	128
472.654	120
472.873	112
473.092	122
473.311	130
473.53	131
473.749	126
473.968	113
474.187	128
474.406	116
474.625	125
474.844	126
475.063	131
475.282	119
475.501	125
475.72	127
475.939	119
476.158	98
476.377	111
476.596	130
476.814	116
477.033	122
477.252	108
477.471	113
477.69	140
477.908	129
478.127	143
478.346	118
478.564	140
478.783	123
479.002	112
479.22	144
479.439	138
479.658	132
479.876	109
480.095	126
480.313	128
480.532	131
480.751	145
480.969	127
481.188	129
481.406	122
481.624	111
481.843	116
482.061	108
482.28	128
482.498	105
482.717	106
482.935	125
483.153	124
483.372	139
483.59	135
483.808	141
484.027	124
484.245	134
484.463	117
484.681	140
484.9	129
485.118	133
485.336	94
485.554	110
485.772	126
485.99	130
486.209	127
486.427	125
486.645	137
486.863	140
487.081	125
487.299	136
487.517	136
487.735	140
487.953	140
488.171	153
488.389	146
488.607	140
488.825	136
489.043	117
489.261	124
489.479	135
489.696	153
489.914	137
490.132	131
490.35	150
490.568	144
490.786	148
491.003	150
491.221	152
491.439	171
491.657	154
491.874	167
492.092	166
492.31	175
492.527	180
492.745	166
492.963	158
493.18	149
493.398	150
493.615	145
493.833	154
494.05	161
494.268	144
494.485	155
494.703	154
494.92	153
495.138	161
495.355	153
495.573	146
495.79	152
496.008	152
496.225	169
496.442	150
496.66	159
496.877	149
497.094	150
497.312	145
497.529	161
497.746	157
497.963	160
498.181	145
498.398	152
498.615	153
498.832	149
499.049	149
499.267	165
499.484	175
499.701	196
499.918	216
500.135	214
500.352	235
500.569	233
500.786	225
501.003	218
501.22	197
501.437	184
501.654	182
501.871	182
502.088	165
502.305	150
502.522	156
502.739	164
502.956	153
503.172	142
503.389	156
503.606	149
503.823	146
504.04	142
504.256	137
504.473	143
504.69	142
504.907	148
505.123	131
505.34	131
505.557	146
505.773	126
505.99	136
506.207	134
506.423	118
506.64	126
506.856	122
507.073	124
507.289	129
507.506	135
507.722	120
507.939	128
508.155	135
508.372	118
508.588	140
508.805	130
509.021	127
509.238	122
509.454	131
509.67	120
509.887	124
510.103	122
510.319	106
510.536	127
510.752	107
510.968	113
511.184	121
511.401	114
511.617	128
511.833	111
512.049	109
512.265	128
512.481	113
512.698	116
512.914	127
513.13	132
513.346	118
513.562	123
513.778	120
513.994	123
514.21	101
514.426	126
514.642	111
514.858	120
515.074	126
515.29	122
515.506	121
515.721	121
515.937	121
516.153	118
516.369	112
516.585	121
516.801	122
517.016	114
517.232	123
517.448	120
517.664	139
517.879	127
518.095	131
518.311	134
518.527	144
518.742	122
518.958	136
519.173	140
519.389	141
519.605	124
519.82	127
520.036	130
520.251	130
520.467	132
520.682	113
520.898	120
521.113	120
521.329	120
521.544	129
521.76	127
521.975	108
522.19	114
522.406	124
522.621	115
522.836	112
523.052	108
523.267	121
523.482	120
523.698	126
523.913	105
524.128	113
524.343	128
524.559	126
524.774	125
524.989	142
525.204	108
525.419	105
525.634	134
525.849	126
526.064	122
526.28	126
526.495	117
526.71	123
526.925	126
527.14	101
527.355	95
527.57	106
527.785	111
527.999	108
528.214	111
528.429	118
528.644	118
528.859	128
529.074	148
529.289	130
529.503	128
529.718	131
529.933	109
530.148	109
530.363	113
530.577	125
530.792	122
531.007	112
531.221	109
531.436	109
531.651	113
531.865	124
532.08	107
532.295	120
532.509	99
532.724	115
532.938	110
533.153	108
533.367	120
533.582	124
533.796	128
534.011	112
534.225	102
534.44	111
534.654	112
534.868	118
535.083	133
535.297	118
535.511	123
535.726	118
535.94	129
536.154	114
536.369	107
536.583	121
536.797	116
537.011	118
537.225	123
537.44	116
537.654	115
537.868	110
538.082	114
538.296	120
538.51	107
538.724	127
538.938	125
539.153	111
539.367	127
539.581	120
539.795	117
540.009	112
540.222	116
540.436	116
540.65	119
540.864	121
541.078	122
541.292	128
541.506	145
541.72	145
541.934	153
542.147	134
542.361	132
542.575	133
542.789	130
543.002	124
543.216	131
543.43	132
543.644	137
543.857	139
544.071	140
544.285	119
544.498	129
544.712	128
544.925	127
545.139	129
545.352	136
545.566	147
545.779	146
545.993	147
546.206	142
546.42	140
546.633	139
546.847	124
547.06	123
547.274	130
547.487	152
547.7	138
547.914	132
548.127	149
548.34	138
548.554	135
548.767	144
548.98	144
549.193	132
549.407	129
549.62	137
549.833	137
550.046	128
550.259	136
550.473	132
550.686	146
550.899	142
551.112	134
551.325	134
551.538	133
551.751	123
551.964	122
552.177	122
552.39	127
552.603	136
552.816	141
553.029	142
553.242	137
553.455	134
553.667	124
553.88	114
554.093	146
554.306	141
554.519	130
554.732	136
554.944	129
555.157	136
555.37	122
555.583	125
555.795	128
556.008	122
556.221	132
556.433	138
556.646	126
556.859	119
557.071	120
557.284	130
557.496	132
557.709	118
557.921	143
558.134	127
558.346	126
558.559	120
558.771	122
558.984	127
559.196	124
559.409	126
559.621	133
559.833	126
560.046	104
560.258	113
560.47	120
560.683	113
560.895	106
561.107	124
561.32	118
561.532	126
561.744	127
561.956	129
562.168	98
562.381	121
562.593	118
562.805	114
563.017	127
563.229	125
563.441	119
563.653	114
563.865	110
564.077	111
564.289	133
564.501	120
564.713	116
564.925	126
565.137	104
565.349	122
565.561	113
565.773	113
565.985	132
566.197	113
566.408	117
566.62	118
566.832	142
567.044	126
567.255	118
567.467	132
567.679	131
567.891	131
568.102	132
568.314	134
568.526	132
568.737	111
568.949	100
569.161	114
569.372	107
569.584	109
569.795	123
570.007	117
570.218	120
570.43	113
570.641	112
570.853	102
571.064	108
571.276	98
571.487	118
571.698	101
571.91	97
572.121	101
572.333	107
572.544	95
572.755	110
572.966	100
573.178	111
573.389	109
573.6	102
573.811	109
574.023	104
574.234	126
574.445	96
574.656	89
574.867	103
575.078	101
575.289	90
575.501	90
575.712	97
575.923	93
576.134	92
576.345	106
576.556	95
576.767	101
576.978	95
577.188	110
577.399	108
577.61	110
577.821	105
578.032	106
578.243	98
578.454	104
578.665	86
578.875	99
579.086	91
579.297	105
579.508	110
579.718	110
579.929	109
580.14	113
580.35	103
580.561	90
580.772	99
580.982	110
581.193	95
581.403	95
581.614	103
581.825	108
582.035	99
582.246	105
582.456	108
582.667	96
582.877	96
583.087	89
583.298	97
583.508	102
583.719	105
583.929	108
584.139	103
584.35	104
584.56	107
584.77	98
584.981	109
585.191	103
585.401	97
585.611	97
585.821	94
586.032	106
586.242	93
586.452	111
586.662	100
586.872	96
587.082	81
587.292	111
587.502	82
587.713	97
587.923	105
588.133	93
588.343	108
588.553	103
588.762	93
588.972	104
589.182	104
589.392	91
589.602	92
589.812	101
590.022	100
590.232	100
590.441	96
590.651	91
590.861	91
591.071	101
591.281	107
591.49	98
591.7	94
591.91	91
592.119	109
592.329	100
592.539	97
592.748	110
592.958	102
593.167	88
593.377	95
593.587	96
593.796	114
594.006	94
594.215	95
594.424	100
594.634	102
594.843	95
595.053	96
595.262	100
595.472	110
595.681	94
595.89	90
596.1	93
596.309	102
596.518	104
596.727	81
596.937	92
597.146	84
597.355	95
597.564	97
597.774	108
597.983	124
598.192	108
598.401	103
598.61	93
598.819	97
599.028	101
599.237	98
599.446	88
599.655	96
599.864	94
600.073	79
600.282	95
600.491	112
600.7	94
600.909	87
601.118	92
601.327	100
601.536	90
601.745	95
601.953	100
602.162	109
602.371	106
602.58	111
602.789	95
602.997	106
603.206	93
603.415	111
603.623	100
603.832	97
604.041	100
604.249	103
604.458	98
604.666	98
604.875	103
605.084	96
605.292	91
605.501	92
605.709	95
605.918	93
606.126	101
606.334	102
606.543	98
606.751	109
606.96	95
607.168	102
607.376	108
607.585	98
607.793	85
608.001	104
608.21	95
608.418	99
608.626	102
608.834	94
609.043	109
609.251	80
609.459	103
609.667	108
609.875	92
610.083	101
610.291	102
610.499	98
610.707	92
610.916	104
611.124	98
611.332	105
611.54	97
611.748	103
611.955	109
612.163	95
612.371	104
612.579	97
612.787	109
612.995	111
613.203	100
613.411	96
613.618	96
613.826	97
614.034	98
614.242	89
614.449	100
614.657	92
614.865	95
615.072	96
615.28	97
615.488	102
615.695	102
615.903	96
616.111	91
616.318	109
616.526	96
616.733	100
616.941	103
617.148	98
617.356	98
617.563	109
617.771	112
617.978	102
618.185	97
618.393	100
618.6	109
618.807	92
619.015	98
619.222	96
619.429	87
619.637	105
619.844	97
620.051	95
620.258	106
620.466	109
620.673	97
620.88	105
621.087	110
621.294	97
621.501	111
621.708	86
621.915	100
622.122	103
622.329	105
622.536	95
622.743	93
622.95	89
623.157	96
623.364	94
623.571	103
623.778	102
623.985	98
624.192	99
624.399	91
624.606	92
624.812	79
625.019	100
625.226	106
625.433	106
625.639	110
625.846	104
626.053	94
626.259	98
626.466	94
626.673	82
626.879	101
627.086	111
627.293	100
627.499	100
627.706	113
627.912	96
628.119	103
628.325	93
628.532	105
628.738	93
628.945	95
629.151	111
629.357	115
629.564	100
629.77	106
629.976	93
630.183	92
630.389	76
630.595	88
630.802	93
631.008	108
631.214	97
631.42	97
631.627	81
631.833	91
632.039	99
632.245	89
632.451	97
632.657	94
632.863	96
633.069	100
633.275	91
633.481	105
633.688	94
633.893	105
634.099	88
634.305	92
634.511	89
634.717	93
634.923	80
635.129	95
635.335	95
635.541	95
635.747	93
635.952	87
636.158	101
636.364	98
636.57	92
636.775	100
636.981	93
637.187	109
637.392	95
637.598	103
637.804	89
638.009	92
638.215	86
638.421	98
638.626	110
638.832	100
639.037	81
639.243	93
639.448	108
639.654	100
639.859	103
640.065	99
640.27	92
640.475	100
640.681	87
640.886	103
641.091	93
641.297	84
641.502	98
641.707	93
641.913	97
642.118	97
642.323	94
642.528	102
642.733	107
642.939	91
643.144	108
643.349	81
643.554	92
643.759	93
643.964	94
644.169	93
644.374	96
644.579	81
644.784	98
644.989	89
645.194	96
645.399	91
645.604	93
645.809	90
646.014	103
646.219	97
646.423	85
646.628	111
646.833	92
647.038	102
647.243	99
647.447	101
647.652	88
647.857	99
648.062	87
648.266	98
648.471	97
648.676	81
648.88	87
649.085	96
649.289	89
649.494	91
649.698	102
649.903	103
650.107	92
650.312	90
650.516	90
650.721	92
650.925	92
651.13	92
651.334	73
651.539	82
651.743	101
651.947	102
652.152	91
652.356	82
652.56	97
652.764	99
652.969	94
653.173	88
653.377	81
653.581	81
653.785	86
653.99	79
654.194	95
654.398	100
654.602	87
654.806	109
655.01	94
655.214	89
655.418	88
655.622	105
655.826	66
656.03	86
656.234	98
656.438	80
656.642	91
656.846	93
657.049	93
657.253	89
657.457	104
657.661	92
657.865	79
658.068	84
658.272	89
658.476	89
658.68	86
658.883	88
659.087	98
659.291	78
659.494	81
659.698	78
659.901	99
660.105	90
660.309	80
660.512	81
660.716	99
660.919	80
661.123	87
661.326	67
661.53	83
661.733	109
661.936	94
662.14	86
662.343	77
662.546	93
662.75	95
662.953	78
663.156	84
663.36	70
663.563	87
663.766	87
663.969	94
664.173	97
664.376	79
664.579	90
664.782	81
664.985	88
665.188	78
665.391	103
665.594	93
665.797	80
666	80
666.203	81
666.406	94
666.609	83
666.812	88
667.015	85
667.218	81
667.421	77
667.624	82
667.827	88
668.03	90
668.232	94
668.435	80
668.638	89
668.841	97
669.043	100
669.246	80
669.449	86
669.651	83
669.854	82
670.057	94
670.259	72
670.462	75
670.665	79
670.867	83
671.07	83
671.272	82
671.475	105
671.677	80
671.88	86
672.082	83
672.284	84
672.487	98
672.689	83
672.892	84
