Data from StandardFe(NO3)3.TAE.3%Agarose.FlatLispGreen.Lamp.Energy10.07252019_HRD10591_11-53-38-439.txt Node
Date: Thu Jul 25 11:53:38 EDT 2019
User: cochatt
Spectrometer: HR+D1059
Trigger mode: 1
Integration Time (sec): 1.000000E-1
Scans to average: 1
Electric dark correction enabled: true
Nonlinearity correction enabled: false
Boxcar width: 0
XAxis mode: Wavelengths
Number of Pixels in Spectrum: 2048
>>>>>Begin Spectral Data<<<<<
223.165	-14
223.4	-14
223.635	-14
223.869	-11
224.104	-11
224.338	-24
224.573	-10
224.808	-18
225.042	-4
225.277	-3
225.511	1
225.746	1
225.98	11
226.215	2
226.449	20
226.683	17
226.918	17
227.152	26
227.387	22
227.621	42
227.856	57
228.09	56
228.324	50
228.559	66
228.793	66
229.027	68
229.262	54
229.496	86
229.73	73
229.964	71
230.199	69
230.433	89
230.667	85
230.901	73
231.136	84
231.37	88
231.604	72
231.838	61
232.072	78
232.306	92
232.541	103
232.775	76
233.009	81
233.243	94
233.477	79
233.711	72
233.945	94
234.179	88
234.413	98
234.647	86
234.881	91
235.115	78
235.349	89
235.583	87
235.817	87
236.051	71
236.285	80
236.519	85
236.753	86
236.987	101
237.221	86
237.455	71
237.689	76
237.922	68
238.156	81
238.39	75
238.624	70
238.858	63
239.091	92
239.325	80
239.559	83
239.793	74
240.027	86
240.26	88
240.494	89
240.728	85
240.961	80
241.195	90
241.429	76
241.662	65
241.896	68
242.13	72
242.363	73
242.597	85
242.83	81
243.064	89
243.298	78
243.531	88
243.765	91
243.998	88
244.232	91
244.465	79
244.699	66
244.932	78
245.166	79
245.399	85
245.633	88
245.866	81
246.099	81
246.333	88
246.566	86
246.8	94
247.033	92
247.266	80
247.5	91
247.733	76
247.966	97
248.2	93
248.433	95
248.666	84
248.899	97
249.133	81
249.366	106
249.599	87
249.832	71
250.066	86
250.299	82
250.532	82
250.765	91
250.998	85
251.231	64
251.465	76
251.698	68
251.931	85
252.164	70
252.397	88
252.63	77
252.863	75
253.096	91
253.329	88
253.562	92
253.795	85
254.028	88
254.261	70
254.494	90
254.727	90
254.96	85
255.193	97
255.426	92
255.659	74
255.892	84
256.124	81
256.357	87
256.59	90
256.823	92
257.056	90
257.289	99
257.521	109
257.754	91
257.987	86
258.22	91
258.452	74
258.685	85
258.918	84
259.151	66
259.383	88
259.616	75
259.849	90
260.081	92
260.314	89
260.547	86
260.779	94
261.012	71
261.244	93
261.477	93
261.71	85
261.942	85
262.175	85
262.407	89
262.64	80
262.872	102
263.105	80
263.337	88
263.57	73
263.802	96
264.035	94
264.267	88
264.499	98
264.732	107
264.964	93
265.197	88
265.429	101
265.661	86
265.894	96
266.126	78
266.358	96
266.591	90
266.823	84
267.055	82
267.287	82
267.52	84
267.752	84
267.984	92
268.216	91
268.448	78
268.681	95
268.913	91
269.145	86
269.377	90
269.609	81
269.841	92
270.073	88
270.306	89
270.538	75
270.77	81
271.002	87
271.234	93
271.466	85
271.698	95
271.93	72
272.162	85
272.394	96
272.626	89
272.858	87
273.09	93
273.322	103
273.553	78
273.785	92
274.017	90
274.249	90
274.481	77
274.713	94
274.945	93
275.176	92
275.408	86
275.64	79
275.872	102
276.104	92
276.335	83
276.567	88
276.799	96
277.031	87
277.262	68
277.494	88
277.726	95
277.957	89
278.189	100
278.421	85
278.652	90
278.884	93
279.115	90
279.347	103
279.579	92
279.81	92
280.042	83
280.273	86
280.505	92
280.736	85
280.968	88
281.199	92
281.431	100
281.662	86
281.894	89
282.125	86
282.356	93
282.588	98
282.819	87
283.051	83
283.282	80
283.513	91
283.745	98
283.976	91
284.207	88
284.439	86
284.67	93
284.901	86
285.132	90
285.364	94
285.595	87
285.826	93
286.057	100
286.288	78
286.52	87
286.751	91
286.982	74
287.213	81
287.444	95
287.675	86
287.906	87
288.138	83
288.369	90
288.6	85
288.831	90
289.062	78
289.293	80
289.524	87
289.755	87
289.986	89
290.217	86
290.448	91
290.679	101
290.91	104
291.141	89
291.371	86
291.602	92
291.833	83
292.064	83
292.295	77
292.526	85
292.757	95
292.987	88
293.218	85
293.449	91
293.68	90
293.91	75
294.141	95
294.372	96
294.603	84
294.833	79
295.064	92
295.295	79
295.525	90
295.756	86
295.987	90
296.217	91
296.448	85
296.679	92
296.909	88
297.14	105
297.37	91
297.601	85
297.831	85
298.062	88
298.292	88
298.523	96
298.753	95
298.984	91
299.214	81
299.445	90
299.675	94
299.905	77
300.136	98
300.366	91
300.597	97
300.827	103
301.057	97
301.288	86
301.518	105
301.748	88
301.979	105
302.209	89
302.439	91
302.669	101
302.9	90
303.13	87
303.36	94
303.59	95
303.82	100
304.051	85
304.281	89
304.511	83
304.741	94
304.971	87
305.201	95
305.431	107
305.661	87
305.891	79
306.121	81
306.352	100
306.582	101
306.812	90
307.042	96
307.272	75
307.502	79
307.731	93
307.961	81
308.191	92
308.421	77
308.651	93
308.881	97
309.111	82
309.341	91
309.571	80
309.8	81
310.03	85
310.26	85
310.49	90
310.72	81
310.949	88
311.179	89
311.409	89
311.639	91
311.868	87
312.098	102
312.328	100
312.557	105
312.787	89
313.017	103
313.246	98
313.476	86
313.706	92
313.935	92
314.165	87
314.394	100
314.624	107
314.853	104
315.083	91
315.312	91
315.542	68
315.771	90
316.001	92
316.23	92
316.46	107
316.689	72
316.919	94
317.148	86
317.377	73
317.607	82
317.836	97
318.065	82
318.295	86
318.524	85
318.753	85
318.983	81
319.212	78
319.441	96
319.67	80
319.9	90
320.129	92
320.358	86
320.587	83
320.816	96
321.046	80
321.275	85
321.504	87
321.733	85
321.962	105
322.191	94
322.42	90
322.649	88
322.878	94
323.108	102
323.337	84
323.566	92
323.795	91
324.024	99
324.253	86
324.482	91
324.71	92
324.939	91
325.168	101
325.397	99
325.626	89
325.855	105
326.084	94
326.313	103
326.542	94
326.77	101
326.999	96
327.228	84
327.457	81
327.686	92
327.914	84
328.143	95
328.372	92
328.6	87
328.829	86
329.058	87
329.287	86
329.515	82
329.744	91
329.972	88
330.201	96
330.43	86
330.658	77
330.887	81
331.115	64
331.344	86
331.572	104
331.801	96
332.03	93
332.258	84
332.486	90
332.715	97
332.943	88
333.172	98
333.4	92
333.629	89
333.857	88
334.085	84
334.314	76
334.542	92
334.771	92
334.999	87
335.227	95
335.455	95
335.684	92
335.912	84
336.14	78
336.369	84
336.597	86
336.825	88
337.053	86
337.281	85
337.51	93
337.738	99
337.966	92
338.194	77
338.422	78
338.65	91
338.878	93
339.106	84
339.334	98
339.562	79
339.79	88
340.018	101
340.246	79
340.474	77
340.702	93
340.93	102
341.158	86
341.386	89
341.614	80
341.842	86
342.07	84
342.298	89
342.526	99
342.754	90
342.981	87
343.209	92
343.437	86
343.665	88
343.893	90
344.12	103
344.348	86
344.576	91
344.804	91
345.031	98
345.259	89
345.487	81
345.714	86
345.942	84
346.17	88
346.397	90
346.625	85
346.853	98
347.08	88
347.308	87
347.535	84
347.763	90
347.99	85
348.218	91
348.445	85
348.673	80
348.9	95
349.128	108
349.355	76
349.583	103
349.81	98
350.037	85
350.265	86
350.492	90
350.72	98
350.947	93
351.174	87
351.402	83
351.629	98
351.856	98
352.083	89
352.311	98
352.538	104
352.765	95
352.992	80
353.22	89
353.447	78
353.674	86
353.901	86
354.128	96
354.355	82
354.583	98
354.81	78
355.037	77
355.264	80
355.491	83
355.718	88
355.945	81
356.172	86
356.399	99
356.626	101
356.853	99
357.08	86
357.307	86
357.534	87
357.761	91
357.988	97
358.215	98
358.441	77
358.668	86
358.895	96
359.122	78
359.349	92
359.576	93
359.802	88
360.029	91
360.256	85
360.483	89
360.709	80
360.936	102
361.163	94
361.39	73
361.616	91
361.843	86
362.07	85
362.296	80
362.523	84
362.749	79
362.976	89
363.203	96
363.429	87
363.656	83
363.882	87
364.109	92
364.335	89
364.562	81
364.788	91
365.015	107
365.241	92
365.468	95
365.694	85
365.92	75
366.147	93
366.373	95
366.599	76
366.826	79
367.052	86
367.278	91
367.505	99
367.731	89
367.957	101
368.184	86
368.41	87
368.636	101
368.862	94
369.089	89
369.315	93
369.541	79
369.767	87
369.993	85
370.219	95
370.445	89
370.672	101
370.898	88
371.124	83
371.35	100
371.576	93
371.802	105
372.028	94
372.254	86
372.48	69
372.706	96
372.932	84
373.158	90
373.384	100
373.61	80
373.835	91
374.061	84
374.287	94
374.513	100
374.739	93
374.965	96
375.191	91
375.416	93
375.642	100
375.868	104
376.094	94
376.319	94
376.545	77
376.771	94
376.997	89
377.222	100
377.448	90
377.674	89
377.899	78
378.125	85
378.35	108
378.576	104
378.802	86
379.027	98
379.253	113
379.478	111
379.704	92
379.929	95
380.155	77
380.38	91
380.606	92
380.831	87
381.057	95
381.282	100
381.507	102
381.733	92
381.958	105
382.184	85
382.409	94
382.634	93
382.86	98
383.085	93
383.31	102
383.535	93
383.761	93
383.986	91
384.211	96
384.436	101
384.662	86
384.887	93
385.112	87
385.337	88
385.562	105
385.787	92
386.013	88
386.238	104
386.463	96
386.688	102
386.913	102
387.138	102
387.363	87
387.588	104
387.813	105
388.038	77
388.263	102
388.488	95
388.713	89
388.938	99
389.163	102
389.387	99
389.612	94
389.837	108
390.062	104
390.287	105
390.512	104
390.736	87
390.961	106
391.186	100
391.411	100
391.636	89
391.86	105
392.085	105
392.31	101
392.534	116
392.759	93
392.984	105
393.208	105
393.433	90
393.658	103
393.882	95
394.107	104
394.331	91
394.556	105
394.78	104
395.005	96
395.229	100
395.454	108
395.678	109
395.903	100
396.127	110
396.352	111
396.576	96
396.801	105
397.025	100
397.249	115
397.474	113
397.698	107
397.922	109
398.147	90
398.371	118
398.595	116
398.82	108
399.044	127
399.268	107
399.492	125
399.717	137
399.941	119
400.165	113
400.389	110
400.613	97
400.837	121
401.062	122
401.286	111
401.51	100
401.734	120
401.958	121
402.182	120
402.406	99
402.63	105
402.854	107
403.078	111
403.302	137
403.526	111
403.75	122
403.974	108
404.198	110
404.422	107
404.645	117
404.869	110
405.093	108
405.317	105
405.541	115
405.765	128
405.988	99
406.212	103
406.436	120
406.66	123
406.883	126
407.107	109
407.331	98
407.555	110
407.778	110
408.002	121
408.226	111
408.449	113
408.673	102
408.896	116
409.12	125
409.344	127
409.567	97
409.791	113
410.014	96
410.238	132
410.461	123
410.685	107
410.908	102
411.132	120
411.355	124
411.578	125
411.802	111
412.025	113
412.249	118
412.472	119
412.695	111
412.919	116
413.142	126
413.365	107
413.589	107
413.812	112
414.035	97
414.258	128
414.482	116
414.705	126
414.928	126
415.151	121
415.374	119
415.597	107
415.821	124
416.044	132
416.267	126
416.49	108
416.713	122
416.936	118
417.159	108
417.382	117
417.605	130
417.828	129
418.051	124
418.274	120
418.497	130
418.72	109
418.943	124
419.166	136
419.389	129
419.611	117
419.834	139
420.057	120
420.28	121
420.503	128
420.726	126
420.948	126
421.171	131
421.394	126
421.617	127
421.839	123
422.062	127
422.285	114
422.507	139
422.73	128
422.953	130
423.175	130
423.398	125
423.621	126
423.843	128
424.066	119
424.288	127
424.511	137
424.733	119
424.956	128
425.178	130
425.401	113
425.623	124
425.846	118
426.068	125
426.291	120
426.513	105
426.735	110
426.958	143
427.18	122
427.402	123
427.625	119
427.847	113
428.069	113
428.292	123
428.514	128
428.736	112
428.958	132
429.181	128
429.403	109
429.625	111
429.847	118
430.069	126
430.292	104
430.514	129
430.736	128
430.958	126
431.18	110
431.402	105
431.624	109
431.846	125
432.068	116
432.29	108
432.512	120
432.734	113
432.956	127
433.178	121
433.4	116
433.622	130
433.844	124
434.066	130
434.287	125
434.509	120
434.731	107
434.953	116
435.175	103
435.397	130
435.618	113
435.84	113
436.062	110
436.284	114
436.505	122
436.727	122
436.949	123
437.17	119
437.392	98
437.614	130
437.835	120
438.057	111
438.278	113
438.5	114
438.721	108
438.943	120
439.165	118
439.386	120
439.608	127
439.829	117
440.05	127
440.272	139
440.493	126
440.715	128
440.936	128
441.158	127
441.379	125
441.6	126
441.822	140
442.043	128
442.264	117
442.486	129
442.707	110
442.928	119
443.149	125
443.371	118
443.592	93
443.813	113
444.034	128
444.255	125
444.476	128
444.698	145
444.919	130
445.14	263
445.361	194
445.582	123
445.803	138
446.024	124
446.245	132
446.466	132
446.687	133
446.908	128
447.129	128
447.35	126
447.571	109
447.792	125
448.013	118
448.234	113
448.455	112
448.675	118
448.896	110
449.117	129
449.338	116
449.559	120
449.779	133
450	113
450.221	125
450.442	113
450.662	124
450.883	141
451.104	137
451.324	127
451.545	110
451.766	125
451.986	112
452.207	118
452.428	108
452.648	109
452.869	116
453.089	101
453.31	112
453.53	105
453.751	106
453.971	102
454.192	100
454.412	119
454.633	100
454.853	110
455.073	135
455.294	121
455.514	108
455.734	127
455.955	116
456.175	127
456.395	116
456.616	100
456.836	128
457.056	103
457.276	116
457.497	101
457.717	106
457.937	112
458.157	129
458.377	113
458.598	103
458.818	115
459.038	103
459.258	96
459.478	105
459.698	117
459.918	128
460.138	122
460.358	123
460.578	127
460.798	122
461.018	118
461.238	132
461.458	125
461.678	132
461.898	132
462.118	134
462.338	117
462.558	138
462.777	126
462.997	135
463.217	146
463.437	125
463.657	129
463.876	125
464.096	133
464.316	114
464.536	134
464.755	118
464.975	116
465.195	129
465.414	125
465.634	113
465.854	113
466.073	121
466.293	121
466.512	108
466.732	122
466.951	110
467.171	105
467.391	122
467.61	136
467.829	125
468.049	120
468.268	127
468.488	126
468.707	127
468.927	131
469.146	124
469.365	120
469.585	119
469.804	120
470.023	136
470.243	127
470.462	140
470.681	139
470.901	127
471.12	117
471.339	127
471.558	125
471.777	126
471.997	129
472.216	116
472.435	117
472.654	111
472.873	124
473.092	115
473.311	121
473.53	123
473.749	125
473.968	126
474.187	105
474.406	138
474.625	123
474.844	116
475.063	126
475.282	138
475.501	114
475.72	112
475.939	126
476.158	119
476.377	132
476.596	135
476.814	114
477.033	126
477.252	124
477.471	123
477.69	140
477.908	133
478.127	138
478.346	135
478.564	128
478.783	138
479.002	133
479.22	110
479.439	128
479.658	142
479.876	122
480.095	135
480.313	107
480.532	130
480.751	130
480.969	118
481.188	123
481.406	119
481.624	120
481.843	122
482.061	124
482.28	116
482.498	111
482.717	113
482.935	129
483.153	128
483.372	136
483.59	142
483.808	118
484.027	136
484.245	142
484.463	135
484.681	157
484.9	132
485.118	127
485.336	130
485.554	130
485.772	121
485.99	123
486.209	130
486.427	130
486.645	123
486.863	150
487.081	136
487.299	118
487.517	128
487.735	138
487.953	156
488.171	158
488.389	153
488.607	142
488.825	145
489.043	132
489.261	128
489.479	137
489.696	140
489.914	144
490.132	153
490.35	150
490.568	149
490.786	137
491.003	165
491.221	151
491.439	145
491.657	160
491.874	166
492.092	174
492.31	180
492.527	164
492.745	170
492.963	160
493.18	154
493.398	154
493.615	166
493.833	165
494.05	143
494.268	170
494.485	132
494.703	156
494.92	152
495.138	170
495.355	160
495.573	164
495.79	144
496.008	156
496.225	153
496.442	150
496.66	157
496.877	145
497.094	159
497.312	162
497.529	146
497.746	176
497.963	151
498.181	132
498.398	172
498.615	136
498.832	146
499.049	150
499.267	165
499.484	170
499.701	198
499.918	189
500.135	192
500.352	236
500.569	225
500.786	241
501.003	214
501.22	207
501.437	192
501.654	180
501.871	171
502.088	166
502.305	163
502.522	152
502.739	152
502.956	134
503.172	146
503.389	158
503.606	146
503.823	150
504.04	146
504.256	137
504.473	152
504.69	136
504.907	147
505.123	137
505.34	150
505.557	140
505.773	127
505.99	134
506.207	132
506.423	135
506.64	134
506.856	133
507.073	129
507.289	134
507.506	137
507.722	142
507.939	127
508.155	150
508.372	113
508.588	134
508.805	129
509.021	145
509.238	134
509.454	126
509.67	118
509.887	128
510.103	132
510.319	130
510.536	112
510.752	98
510.968	128
511.184	112
511.401	113
511.617	120
511.833	119
512.049	106
512.265	117
512.481	124
512.698	125
512.914	141
513.13	118
513.346	111
513.562	120
513.778	128
513.994	109
514.21	124
514.426	128
514.642	130
514.858	123
515.074	122
515.29	125
515.506	113
515.721	120
515.937	120
516.153	128
516.369	110
516.585	119
516.801	134
517.016	133
517.232	129
517.448	128
517.664	134
517.879	152
518.095	142
518.311	119
518.527	131
518.742	130
518.958	125
519.173	138
519.389	132
519.605	134
519.82	132
520.036	144
520.251	136
520.467	130
520.682	138
520.898	123
521.113	129
521.329	124
521.544	101
521.76	130
521.975	123
522.19	126
522.406	126
522.621	104
522.836	125
523.052	112
523.267	126
523.482	112
523.698	130
523.913	144
524.128	117
524.343	136
524.559	129
524.774	119
524.989	138
525.204	143
525.419	116
525.634	126
525.849	132
526.064	116
526.28	125
526.495	123
526.71	118
526.925	104
527.14	132
527.355	122
527.57	121
527.785	121
527.999	129
528.214	117
528.429	124
528.644	134
528.859	130
529.074	140
529.289	141
529.503	131
529.718	125
529.933	128
530.148	136
530.363	110
530.577	100
530.792	117
531.007	118
531.221	117
531.436	106
531.651	118
531.865	113
532.08	120
532.295	125
532.509	110
532.724	107
532.938	116
533.153	106
533.367	112
533.582	134
533.796	130
534.011	124
534.225	115
534.44	108
534.654	112
534.868	104
535.083	117
535.297	122
535.511	118
535.726	116
535.94	121
536.154	122
536.369	112
536.583	106
536.797	108
537.011	116
537.225	121
537.44	112
537.654	116
537.868	99
538.082	116
538.296	108
538.51	110
538.724	120
538.938	131
539.153	124
539.367	116
539.581	123
539.795	117
540.009	119
540.222	117
540.436	101
540.65	118
540.864	130
541.078	126
541.292	141
541.506	147
541.72	142
541.934	150
542.147	149
542.361	138
542.575	129
542.789	123
543.002	136
543.216	126
543.43	123
543.644	122
543.857	130
544.071	134
544.285	153
544.498	133
544.712	131
544.925	144
545.139	142
545.352	134
545.566	132
545.779	140
545.993	147
546.206	139
546.42	133
546.633	145
546.847	145
547.06	137
547.274	144
547.487	129
547.7	138
547.914	137
548.127	130
548.34	141
548.554	126
548.767	125
548.98	141
549.193	136
549.407	140
549.62	140
549.833	145
550.046	127
550.259	129
550.473	131
550.686	124
550.899	123
551.112	125
551.325	128
551.538	126
551.751	118
551.964	125
552.177	151
552.39	136
552.603	128
552.816	125
553.029	135
553.242	140
553.455	144
553.667	142
553.88	145
554.093	140
554.306	136
554.519	131
554.732	144
554.944	133
555.157	120
555.37	130
555.583	139
555.795	126
556.008	132
556.221	117
556.433	130
556.646	116
556.859	123
557.071	125
557.284	141
557.496	122
557.709	124
557.921	125
558.134	128
558.346	124
558.559	128
558.771	130
558.984	126
559.196	119
559.409	130
559.621	129
559.833	125
560.046	116
560.258	113
560.47	132
560.683	130
560.895	109
561.107	124
561.32	126
561.532	120
561.744	121
561.956	119
562.168	125
562.381	121
562.593	124
562.805	91
563.017	114
563.229	121
563.441	120
563.653	124
563.865	113
564.077	113
564.289	124
564.501	132
564.713	123
564.925	119
565.137	122
565.349	112
565.561	121
565.773	120
565.985	112
566.197	120
566.408	125
566.62	126
566.832	123
567.044	132
567.255	130
567.467	130
567.679	126
567.891	136
568.102	137
568.314	129
568.526	119
568.737	123
568.949	111
569.161	120
569.372	111
569.584	112
569.795	107
570.007	93
570.218	119
570.43	109
570.641	104
570.853	104
571.064	117
571.276	107
571.487	120
571.698	99
571.91	101
572.121	114
572.333	104
572.544	121
572.755	103
572.966	97
573.178	100
573.389	108
573.6	86
573.811	93
574.023	95
574.234	105
574.445	105
574.656	100
574.867	94
575.078	95
575.289	96
575.501	101
575.712	97
575.923	103
576.134	103
576.345	73
576.556	94
576.767	108
576.978	112
577.188	105
577.399	113
577.61	96
577.821	107
578.032	106
578.243	102
578.454	102
578.665	112
578.875	94
579.086	105
579.297	104
579.508	92
579.718	113
579.929	102
580.14	101
580.35	107
580.561	109
580.772	80
580.982	101
581.193	90
581.403	105
581.614	108
581.825	107
582.035	99
582.246	110
582.456	105
582.667	96
582.877	106
583.087	104
583.298	93
583.508	108
583.719	93
583.929	105
584.139	99
584.35	104
584.56	93
584.77	110
584.981	110
585.191	98
585.401	104
585.611	104
585.821	110
586.032	106
586.242	107
586.452	104
586.662	103
586.872	90
587.082	94
587.292	114
587.502	116
587.713	96
587.923	100
588.133	102
588.343	98
588.553	96
588.762	103
588.972	96
589.182	92
589.392	94
589.602	98
589.812	103
590.022	88
590.232	87
590.441	87
590.651	95
590.861	93
591.071	107
591.281	91
591.49	90
591.7	100
591.91	103
592.119	78
592.329	92
592.539	95
592.748	105
592.958	88
593.167	93
593.377	100
593.587	117
593.796	105
594.006	97
594.215	100
594.424	101
594.634	106
594.843	94
595.053	92
595.262	105
595.472	102
595.681	101
595.89	100
596.1	108
596.309	97
596.518	104
596.727	100
596.937	93
597.146	85
597.355	102
597.564	93
597.774	98
597.983	98
598.192	96
598.401	90
598.61	85
598.819	92
599.028	104
599.237	98
599.446	97
599.655	94
599.864	105
600.073	104
600.282	102
600.491	76
600.7	96
600.909	87
601.118	97
601.327	104
601.536	105
601.745	107
601.953	105
602.162	104
602.371	98
602.58	93
602.789	103
602.997	104
603.206	106
603.415	108
603.623	89
603.832	106
604.041	94
604.249	92
604.458	100
604.666	83
604.875	88
605.084	98
605.292	106
605.501	92
605.709	101
605.918	101
606.126	97
606.334	105
606.543	104
606.751	105
606.96	103
607.168	92
607.376	109
607.585	94
607.793	103
608.001	105
608.21	91
608.418	92
608.626	100
608.834	110
609.043	108
609.251	92
609.459	101
609.667	93
609.875	108
610.083	93
610.291	111
610.499	114
610.707	100
610.916	101
611.124	91
611.332	94
611.54	110
611.748	99
611.955	112
612.163	91
612.371	106
612.579	103
612.787	106
612.995	105
613.203	121
613.411	94
613.618	90
613.826	109
614.034	84
614.242	97
614.449	106
614.657	102
614.865	97
615.072	99
615.28	109
615.488	92
615.695	116
615.903	104
616.111	89
616.318	107
616.526	107
616.733	103
616.941	97
617.148	107
617.356	91
617.563	95
617.771	103
617.978	106
618.185	100
618.393	98
618.6	102
618.807	110
619.015	93
619.222	100
619.429	95
619.637	106
619.844	90
620.051	101
620.258	109
620.466	97
620.673	117
620.88	93
621.087	101
621.294	113
621.501	99
621.708	107
621.915	105
622.122	97
622.329	88
622.536	100
622.743	88
622.95	98
623.157	103
623.364	92
623.571	96
623.778	101
623.985	98
624.192	93
624.399	105
624.606	92
624.812	90
625.019	89
625.226	99
625.433	110
625.639	96
625.846	97
626.053	88
626.259	100
626.466	101
626.673	99
626.879	91
627.086	98
627.293	88
627.499	106
627.706	104
627.912	88
628.119	96
628.325	96
628.532	111
628.738	89
628.945	90
629.151	85
629.357	97
629.564	93
629.77	90
629.976	92
630.183	96
630.389	85
630.595	92
630.802	98
631.008	88
631.214	89
631.42	86
631.627	81
631.833	98
632.039	103
632.245	101
632.451	94
632.657	100
632.863	100
633.069	99
633.275	113
633.481	92
633.688	89
633.893	112
634.099	87
634.305	97
634.511	94
634.717	86
634.923	95
635.129	103
635.335	76
635.541	72
635.747	83
635.952	92
636.158	104
636.364	94
636.57	100
636.775	95
636.981	96
637.187	95
637.392	80
637.598	76
637.804	77
638.009	102
638.215	100
638.421	97
638.626	92
638.832	92
639.037	91
639.243	91
639.448	99
639.654	103
639.859	90
640.065	92
640.27	107
640.475	95
640.681	105
640.886	103
641.091	99
641.297	90
641.502	100
641.707	104
641.913	103
642.118	100
642.323	95
642.528	114
642.733	99
642.939	100
643.144	98
643.349	93
643.554	104
643.759	93
643.964	91
644.169	90
644.374	83
644.579	103
644.784	83
644.989	89
645.194	105
645.399	106
645.604	98
645.809	92
646.014	92
646.219	89
646.423	97
646.628	88
646.833	89
647.038	89
647.243	92
647.447	95
647.652	103
647.857	88
648.062	95
648.266	96
648.471	87
648.676	100
648.88	74
649.085	82
649.289	91
649.494	83
649.698	91
649.903	100
650.107	92
650.312	91
650.516	97
650.721	112
650.925	89
651.13	89
651.334	86
651.539	95
651.743	78
651.947	82
652.152	88
652.356	100
652.56	98
652.764	86
652.969	91
653.173	96
653.377	83
653.581	100
653.785	91
653.99	86
654.194	102
654.398	98
654.602	101
654.806	100
655.01	91
655.214	93
655.418	96
655.622	94
655.826	90
656.03	88
656.234	92
656.438	100
656.642	90
656.846	94
657.049	89
657.253	90
657.457	96
657.661	101
657.865	92
658.068	94
658.272	97
658.476	95
658.68	100
658.883	91
659.087	102
659.291	93
659.494	95
659.698	89
659.901	82
660.105	88
660.309	77
660.512	84
660.716	96
660.919	95
661.123	91
661.326	92
661.53	90
661.733	85
661.936	96
662.14	88
662.343	87
662.546	76
662.75	95
662.953	71
663.156	79
663.36	82
663.563	90
663.766	94
663.969	91
664.173	99
664.376	93
664.579	83
664.782	82
664.985	89
665.188	71
665.391	89
665.594	86
665.797	85
666	94
666.203	80
666.406	82
666.609	89
666.812	82
667.015	91
667.218	93
667.421	83
667.624	79
667.827	93
668.03	96
668.232	88
668.435	82
668.638	94
668.841	88
669.043	97
669.246	81
669.449	75
669.651	90
669.854	96
670.057	92
670.259	84
670.462	84
670.665	77
670.867	83
671.07	104
671.272	72
671.475	95
671.677	89
671.88	83
672.082	85
672.284	85
672.487	91
672.689	78
672.892	95
