Data from StandardFe(NO3)3.TAE.3%Agarose.FlatLispGreen.Lamp.Energy10.07252019_HRD10591_11-54-34-440.txt Node
Date: Thu Jul 25 11:54:34 EDT 2019
User: cochatt
Spectrometer: HR+D1059
Trigger mode: 1
Integration Time (sec): 1.000000E-1
Scans to average: 1
Electric dark correction enabled: true
Nonlinearity correction enabled: false
Boxcar width: 0
XAxis mode: Wavelengths
Number of Pixels in Spectrum: 2048
>>>>>Begin Spectral Data<<<<<
223.165	-23
223.4	-23
223.635	-23
223.869	-20
224.104	-9
224.338	-14
224.573	-13
224.808	-10
225.042	-12
225.277	1
225.511	8
225.746	0
225.98	-9
226.215	7
226.449	24
226.683	14
226.918	27
227.152	29
227.387	32
227.621	38
227.856	44
228.09	39
228.324	60
228.559	56
228.793	60
229.027	58
229.262	85
229.496	69
229.73	58
229.964	64
230.199	67
230.433	85
230.667	79
230.901	87
231.136	70
231.37	84
231.604	89
231.838	73
232.072	85
232.306	68
232.541	82
232.775	93
233.009	74
233.243	87
233.477	91
233.711	97
233.945	88
234.179	90
234.413	84
234.647	77
234.881	88
235.115	88
235.349	83
235.583	88
235.817	87
236.051	69
236.285	78
236.519	80
236.753	84
236.987	87
237.221	76
237.455	71
237.689	84
237.922	78
238.156	79
238.39	92
238.624	75
238.858	77
239.091	80
239.325	79
239.559	96
239.793	88
240.027	93
240.26	68
240.494	90
240.728	88
240.961	85
241.195	68
241.429	76
241.662	66
241.896	77
242.13	66
242.363	81
242.597	73
242.83	77
243.064	78
243.298	71
243.531	77
243.765	71
243.998	86
244.232	74
244.465	67
244.699	77
244.932	88
245.166	88
245.399	75
245.633	76
245.866	66
246.099	79
246.333	91
246.566	87
246.8	87
247.033	69
247.266	80
247.5	67
247.733	84
247.966	99
248.2	90
248.433	84
248.666	77
248.899	66
249.133	83
249.366	85
249.599	76
249.832	82
250.066	81
250.299	72
250.532	85
250.765	88
250.998	92
251.231	85
251.465	66
251.698	79
251.931	60
252.164	79
252.397	79
252.63	87
252.863	78
253.096	72
253.329	86
253.562	91
253.795	88
254.028	100
254.261	87
254.494	80
254.727	82
254.96	86
255.193	86
255.426	83
255.659	71
255.892	94
256.124	86
256.357	92
256.59	90
256.823	81
257.056	86
257.289	77
257.521	82
257.754	84
257.987	87
258.22	100
258.452	80
258.685	77
258.918	80
259.151	88
259.383	89
259.616	84
259.849	84
260.081	81
260.314	76
260.547	81
260.779	89
261.012	73
261.244	89
261.477	85
261.71	79
261.942	94
262.175	93
262.407	82
262.64	78
262.872	100
263.105	90
263.337	89
263.57	84
263.802	92
264.035	91
264.267	80
264.499	96
264.732	91
264.964	81
265.197	89
265.429	73
265.661	83
265.894	90
266.126	89
266.358	95
266.591	80
266.823	82
267.055	86
267.287	90
267.52	66
267.752	78
267.984	83
268.216	89
268.448	79
268.681	104
268.913	98
269.145	94
269.377	78
269.609	86
269.841	80
270.073	98
270.306	74
270.538	81
270.77	78
271.002	84
271.234	74
271.466	87
271.698	84
271.93	80
272.162	89
272.394	83
272.626	83
272.858	74
273.09	77
273.322	95
273.553	87
273.785	89
274.017	88
274.249	90
274.481	75
274.713	84
274.945	85
275.176	91
275.408	76
275.64	89
275.872	89
276.104	83
276.335	95
276.567	89
276.799	70
277.031	87
277.262	78
277.494	82
277.726	89
277.957	82
278.189	78
278.421	70
278.652	79
278.884	79
279.115	89
279.347	79
279.579	82
279.81	90
280.042	87
280.273	81
280.505	87
280.736	87
280.968	84
281.199	94
281.431	92
281.662	75
281.894	88
282.125	86
282.356	87
282.588	80
282.819	95
283.051	93
283.282	84
283.513	90
283.745	90
283.976	86
284.207	79
284.439	74
284.67	78
284.901	107
285.132	79
285.364	77
285.595	94
285.826	82
286.057	79
286.288	95
286.52	85
286.751	95
286.982	82
287.213	79
287.444	88
287.675	73
287.906	80
288.138	89
288.369	83
288.6	92
288.831	84
289.062	93
289.293	90
289.524	84
289.755	93
289.986	78
290.217	94
290.448	101
290.679	76
290.91	89
291.141	100
291.371	88
291.602	70
291.833	82
292.064	90
292.295	90
292.526	83
292.757	79
292.987	84
293.218	92
293.449	91
293.68	75
293.91	89
294.141	86
294.372	88
294.603	76
294.833	89
295.064	96
295.295	82
295.525	95
295.756	76
295.987	80
296.217	92
296.448	90
296.679	75
296.909	98
297.14	83
297.37	69
297.601	88
297.831	90
298.062	76
298.292	86
298.523	94
298.753	85
298.984	89
299.214	87
299.445	91
299.675	89
299.905	91
300.136	93
300.366	90
300.597	87
300.827	80
301.057	88
301.288	102
301.518	109
301.748	81
301.979	85
302.209	92
302.439	84
302.669	97
302.9	93
303.13	86
303.36	74
303.59	84
303.82	99
304.051	99
304.281	90
304.511	90
304.741	78
304.971	94
305.201	80
305.431	90
305.661	87
305.891	94
306.121	74
306.352	87
306.582	91
306.812	84
307.042	92
307.272	99
307.502	85
307.731	95
307.961	92
308.191	90
308.421	94
308.651	79
308.881	82
309.111	94
309.341	95
309.571	91
309.8	91
310.03	94
310.26	93
310.49	85
310.72	86
310.949	86
311.179	85
311.409	83
311.639	86
311.868	85
312.098	91
312.328	90
312.557	98
312.787	88
313.017	73
313.246	90
313.476	82
313.706	85
313.935	75
314.165	90
314.394	91
314.624	79
314.853	94
315.083	92
315.312	85
315.542	83
315.771	88
316.001	70
316.23	76
316.46	89
316.689	85
316.919	80
317.148	75
317.377	102
317.607	105
317.836	84
318.065	86
318.295	92
318.524	72
318.753	81
318.983	100
319.212	88
319.441	95
319.67	103
319.9	87
320.129	86
320.358	94
320.587	84
320.816	86
321.046	86
321.275	84
321.504	86
321.733	82
321.962	84
322.191	87
322.42	94
322.649	88
322.878	92
323.108	102
323.337	79
323.566	80
323.795	106
324.024	96
324.253	82
324.482	93
324.71	87
324.939	97
325.168	92
325.397	77
325.626	88
325.855	84
326.084	70
326.313	90
326.542	95
326.77	80
326.999	95
327.228	82
327.457	90
327.686	88
327.914	84
328.143	79
328.372	73
328.6	84
328.829	84
329.058	82
329.287	87
329.515	86
329.744	90
329.972	90
330.201	103
330.43	91
330.658	80
330.887	78
331.115	90
331.344	83
331.572	73
331.801	90
332.03	87
332.258	99
332.486	86
332.715	76
332.943	87
333.172	94
333.4	96
333.629	94
333.857	79
334.085	79
334.314	80
334.542	86
334.771	94
334.999	81
335.227	81
335.455	101
335.684	96
335.912	97
336.14	86
336.369	95
336.597	99
336.825	92
337.053	84
337.281	80
337.51	93
337.738	93
337.966	88
338.194	87
338.422	106
338.65	82
338.878	86
339.106	75
339.334	87
339.562	93
339.79	86
340.018	86
340.246	86
340.474	87
340.702	78
340.93	103
341.158	69
341.386	72
341.614	75
341.842	83
342.07	87
342.298	79
342.526	88
342.754	78
342.981	88
343.209	91
343.437	95
343.665	86
343.893	85
344.12	96
344.348	96
344.576	84
344.804	84
345.031	88
345.259	80
345.487	93
345.714	93
345.942	93
346.17	83
346.397	93
346.625	77
346.853	91
347.08	79
347.308	83
347.535	91
347.763	80
347.99	74
348.218	85
348.445	86
348.673	83
348.9	87
349.128	91
349.355	93
349.583	87
349.81	80
350.037	86
350.265	79
350.492	88
350.72	64
350.947	94
351.174	86
351.402	86
351.629	89
351.856	81
352.083	79
352.311	85
352.538	81
352.765	83
352.992	78
353.22	88
353.447	81
353.674	100
353.901	96
354.128	93
354.355	84
354.583	94
354.81	89
355.037	96
355.264	92
355.491	95
355.718	90
355.945	97
356.172	85
356.399	88
356.626	93
356.853	91
357.08	76
357.307	76
357.534	92
357.761	83
357.988	96
358.215	86
358.441	90
358.668	85
358.895	83
359.122	76
359.349	81
359.576	86
359.802	70
360.029	92
360.256	91
360.483	92
360.709	97
360.936	99
361.163	78
361.39	90
361.616	74
361.843	66
362.07	93
362.296	94
362.523	87
362.749	86
362.976	89
363.203	85
363.429	103
363.656	88
363.882	99
364.109	82
364.335	85
364.562	79
364.788	84
365.015	98
365.241	84
365.468	90
365.694	93
365.92	78
366.147	84
366.373	92
366.599	87
366.826	88
367.052	83
367.278	86
367.505	85
367.731	84
367.957	99
368.184	90
368.41	92
368.636	96
368.862	78
369.089	85
369.315	80
369.541	88
369.767	93
369.993	88
370.219	91
370.445	76
370.672	79
370.898	79
371.124	87
371.35	87
371.576	88
371.802	95
372.028	92
372.254	79
372.48	100
372.706	99
372.932	77
373.158	80
373.384	80
373.61	80
373.835	93
374.061	100
374.287	84
374.513	95
374.739	100
374.965	85
375.191	89
375.416	84
375.642	86
375.868	83
376.094	89
376.319	90
376.545	92
376.771	85
376.997	106
377.222	96
377.448	107
377.674	92
377.899	92
378.125	93
378.35	95
378.576	105
378.802	88
379.027	87
379.253	103
379.478	107
379.704	87
379.929	100
380.155	91
380.38	91
380.606	99
380.831	96
381.057	92
381.282	95
381.507	101
381.733	86
381.958	94
382.184	102
382.409	95
382.634	107
382.86	94
383.085	87
383.31	95
383.535	79
383.761	91
383.986	95
384.211	92
384.436	88
384.662	115
384.887	99
385.112	97
385.337	92
385.562	95
385.787	106
386.013	99
386.238	94
386.463	99
386.688	100
386.913	83
387.138	85
387.363	107
387.588	100
387.813	99
388.038	98
388.263	92
388.488	103
388.713	82
388.938	100
389.163	95
389.387	92
389.612	101
389.837	92
390.062	87
390.287	102
390.512	101
390.736	93
390.961	94
391.186	102
391.411	91
391.636	102
391.86	90
392.085	100
392.31	86
392.534	95
392.759	99
392.984	96
393.208	89
393.433	106
393.658	102
393.882	102
394.107	95
394.331	100
394.556	94
394.78	108
395.005	92
395.229	94
395.454	91
395.678	102
395.903	85
396.127	106
396.352	98
396.576	102
396.801	105
397.025	83
397.249	93
397.474	106
397.698	111
397.922	94
398.147	100
398.371	103
398.595	98
398.82	117
399.044	104
399.268	114
399.492	124
399.717	119
399.941	125
400.165	104
400.389	111
400.613	106
400.837	120
401.062	109
401.286	110
401.51	127
401.734	118
401.958	100
402.182	104
402.406	116
402.63	116
402.854	108
403.078	120
403.302	103
403.526	102
403.75	121
403.974	103
404.198	104
404.422	111
404.645	108
404.869	100
405.093	121
405.317	114
405.541	124
405.765	138
405.988	126
406.212	103
406.436	114
406.66	122
406.883	113
407.107	126
407.331	119
407.555	121
407.778	115
408.002	110
408.226	128
408.449	126
408.673	119
408.896	90
409.12	116
409.344	117
409.567	130
409.791	117
410.014	118
410.238	96
410.461	114
410.685	118
410.908	102
411.132	118
411.355	107
411.578	118
411.802	112
412.025	111
412.249	110
412.472	108
412.695	117
412.919	113
413.142	119
413.365	96
413.589	116
413.812	102
414.035	117
414.258	110
414.482	107
414.705	102
414.928	123
415.151	109
415.374	109
415.597	107
415.821	103
416.044	108
416.267	107
416.49	115
416.713	110
416.936	122
417.159	122
417.382	109
417.605	116
417.828	118
418.051	124
418.274	109
418.497	118
418.72	108
418.943	130
419.166	114
419.389	111
419.611	116
419.834	130
420.057	133
420.28	128
420.503	119
420.726	125
420.948	115
421.171	112
421.394	122
421.617	103
421.839	119
422.062	134
422.285	114
422.507	128
422.73	101
422.953	122
423.175	114
423.398	114
423.621	120
423.843	124
424.066	124
424.288	131
424.511	118
424.733	136
424.956	117
425.178	118
425.401	112
425.623	126
425.846	106
426.068	114
426.291	117
426.513	126
426.735	118
426.958	122
427.18	123
427.402	124
427.625	116
427.847	117
428.069	114
428.292	103
428.514	108
428.736	106
428.958	114
429.181	110
429.403	114
429.625	99
429.847	109
430.069	109
430.292	110
430.514	103
430.736	111
430.958	134
431.18	115
431.402	118
431.624	110
431.846	96
432.068	114
432.29	96
432.512	109
432.734	99
432.956	119
433.178	128
433.4	122
433.622	129
433.844	126
434.066	122
434.287	107
434.509	100
434.731	93
434.953	113
435.175	126
435.397	125
435.618	138
435.84	118
436.062	121
436.284	123
436.505	109
436.727	128
436.949	120
437.17	127
437.392	115
437.614	123
437.835	111
438.057	120
438.278	108
438.5	108
438.721	127
438.943	130
439.165	136
439.386	130
439.608	129
439.829	129
440.05	107
440.272	98
440.493	115
440.715	133
440.936	125
441.158	110
441.379	124
441.6	126
441.822	123
442.043	129
442.264	122
442.486	123
442.707	117
442.928	110
443.149	121
443.371	117
443.592	121
443.813	110
444.034	128
444.255	128
444.476	119
444.698	129
444.919	146
445.14	254
445.361	183
445.582	131
445.803	122
446.024	126
446.245	140
446.466	125
446.687	127
446.908	134
447.129	131
447.35	116
447.571	131
447.792	122
448.013	125
448.234	125
448.455	117
448.675	128
448.896	122
449.117	135
449.338	103
449.559	116
449.779	119
450	122
450.221	114
450.442	105
450.662	111
450.883	108
451.104	103
451.324	115
451.545	107
451.766	114
451.986	110
452.207	110
452.428	109
452.648	114
452.869	126
453.089	114
453.31	101
453.53	94
453.751	114
453.971	110
454.192	100
454.412	111
454.633	95
454.853	122
455.073	123
455.294	109
455.514	110
455.734	95
455.955	102
456.175	114
456.395	108
456.616	106
456.836	98
457.056	116
457.276	108
457.497	107
457.717	111
457.937	103
458.157	122
458.377	110
458.598	100
458.818	100
459.038	100
459.258	116
459.478	101
459.698	101
459.918	113
460.138	114
460.358	96
460.578	112
460.798	121
461.018	114
461.238	116
461.458	126
461.678	128
461.898	130
462.118	123
462.338	126
462.558	124
462.777	123
462.997	127
463.217	133
463.437	137
463.657	126
463.876	115
464.096	117
464.316	125
464.536	130
464.755	129
464.975	129
465.195	134
465.414	118
465.634	137
465.854	122
466.073	111
466.293	123
466.512	126
466.732	131
466.951	134
467.171	122
467.391	114
467.61	114
467.829	130
468.049	122
468.268	127
468.488	124
468.707	122
468.927	121
469.146	115
469.365	131
469.585	130
469.804	115
470.023	139
470.243	121
470.462	131
470.681	118
470.901	112
471.12	114
471.339	125
471.558	124
471.777	117
471.997	126
472.216	111
472.435	101
472.654	106
472.873	118
473.092	112
473.311	122
473.53	120
473.749	114
473.968	122
474.187	119
474.406	115
474.625	117
474.844	130
475.063	110
475.282	113
475.501	121
475.72	105
475.939	126
476.158	120
476.377	110
476.596	120
476.814	102
477.033	122
477.252	116
477.471	104
477.69	120
477.908	150
478.127	143
478.346	115
478.564	133
478.783	135
479.002	134
479.22	120
479.439	123
479.658	102
479.876	104
480.095	118
480.313	130
480.532	128
480.751	127
480.969	116
481.188	108
481.406	130
481.624	105
481.843	121
482.061	120
482.28	128
482.498	130
482.717	120
482.935	133
483.153	142
483.372	132
483.59	126
483.808	126
484.027	138
484.245	116
484.463	120
484.681	153
484.9	119
485.118	135
485.336	123
485.554	126
485.772	119
485.99	114
486.209	121
486.427	126
486.645	110
486.863	130
487.081	146
487.299	138
487.517	133
487.735	132
487.953	157
488.171	140
488.389	140
488.607	143
488.825	125
489.043	131
489.261	130
489.479	134
489.696	136
489.914	130
490.132	136
490.35	142
490.568	144
490.786	153
491.003	148
491.221	140
491.439	152
491.657	152
491.874	167
492.092	158
492.31	169
492.527	158
492.745	157
492.963	174
493.18	160
493.398	152
493.615	169
493.833	168
494.05	167
494.268	135
494.485	150
494.703	154
494.92	150
495.138	150
495.355	140
495.573	166
495.79	171
496.008	146
496.225	159
496.442	150
496.66	155
496.877	171
497.094	147
497.312	146
497.529	155
497.746	150
497.963	139
498.181	150
498.398	153
498.615	136
498.832	144
499.049	153
499.267	172
499.484	178
499.701	171
499.918	186
500.135	213
500.352	225
500.569	244
500.786	213
501.003	211
501.22	198
501.437	202
501.654	183
501.871	163
502.088	156
502.305	159
502.522	159
502.739	140
502.956	161
503.172	147
503.389	142
503.606	128
503.823	130
504.04	149
504.256	148
504.473	134
504.69	134
504.907	145
505.123	154
505.34	133
505.557	148
505.773	133
505.99	138
506.207	134
506.423	138
506.64	124
506.856	130
507.073	132
507.289	118
507.506	133
507.722	115
507.939	118
508.155	112
508.372	127
508.588	108
508.805	120
509.021	117
509.238	125
509.454	124
509.67	110
509.887	124
510.103	117
510.319	116
510.536	124
510.752	120
510.968	119
511.184	106
511.401	114
511.617	121
511.833	106
512.049	124
512.265	116
512.481	121
512.698	125
512.914	134
513.13	124
513.346	109
513.562	111
513.778	129
513.994	111
514.21	125
514.426	119
514.642	115
514.858	98
515.074	119
515.29	118
515.506	123
515.721	118
515.937	130
516.153	130
516.369	109
516.585	117
516.801	106
517.016	116
517.232	124
517.448	137
517.664	135
517.879	126
518.095	143
518.311	132
518.527	125
518.742	119
518.958	116
519.173	125
519.389	110
519.605	131
519.82	130
520.036	140
520.251	122
520.467	125
520.682	118
520.898	118
521.113	125
521.329	121
521.544	108
521.76	116
521.975	118
522.19	119
522.406	114
522.621	118
522.836	117
523.052	114
523.267	119
523.482	122
523.698	118
523.913	119
524.128	123
524.343	132
524.559	122
524.774	128
524.989	126
525.204	117
525.419	117
525.634	126
525.849	116
526.064	121
526.28	118
526.495	123
526.71	113
526.925	118
527.14	112
527.355	115
527.57	114
527.785	114
527.999	126
528.214	125
528.429	119
528.644	126
528.859	126
529.074	128
529.289	143
529.503	138
529.718	130
529.933	123
530.148	120
530.363	112
530.577	106
530.792	111
531.007	106
531.221	112
531.436	116
531.651	105
531.865	107
532.08	114
532.295	109
532.509	109
532.724	119
532.938	108
533.153	109
533.367	99
533.582	129
533.796	121
534.011	115
534.225	121
534.44	102
534.654	106
534.868	126
535.083	121
535.297	116
535.511	117
535.726	103
535.94	122
536.154	110
536.369	113
536.583	119
536.797	111
537.011	121
537.225	102
537.44	109
537.654	111
537.868	104
538.082	96
538.296	130
538.51	110
538.724	122
538.938	129
539.153	126
539.367	114
539.581	116
539.795	119
540.009	120
540.222	117
540.436	113
540.65	128
540.864	130
541.078	105
541.292	125
541.506	112
541.72	138
541.934	150
542.147	142
542.361	126
542.575	133
542.789	135
543.002	117
543.216	126
543.43	129
543.644	120
543.857	136
544.071	148
544.285	139
544.498	137
544.712	133
544.925	130
545.139	160
545.352	124
545.566	135
545.779	137
545.993	140
546.206	141
546.42	145
546.633	144
546.847	145
547.06	156
547.274	143
547.487	127
547.7	147
547.914	147
548.127	136
548.34	140
548.554	146
548.767	139
548.98	122
549.193	141
549.407	140
549.62	117
549.833	135
550.046	130
550.259	129
550.473	150
550.686	134
550.899	120
551.112	144
551.325	126
551.538	116
551.751	125
551.964	114
552.177	125
552.39	124
552.603	132
552.816	135
553.029	140
553.242	145
553.455	138
553.667	133
553.88	126
554.093	148
554.306	137
554.519	132
554.732	134
554.944	134
555.157	131
555.37	123
555.583	115
555.795	132
556.008	133
556.221	106
556.433	114
556.646	116
556.859	132
557.071	120
557.284	117
557.496	120
557.709	128
557.921	131
558.134	123
558.346	125
558.559	131
558.771	142
558.984	123
559.196	121
559.409	135
559.621	130
559.833	122
560.046	117
560.258	106
560.47	110
560.683	119
560.895	132
561.107	119
561.32	119
561.532	111
561.744	122
561.956	119
562.168	130
562.381	126
562.593	106
562.805	116
563.017	129
563.229	116
563.441	111
563.653	113
563.865	127
564.077	122
564.289	120
564.501	120
564.713	111
564.925	113
565.137	124
565.349	106
565.561	116
565.773	130
565.985	126
566.197	128
566.408	126
566.62	134
566.832	130
567.044	131
567.255	124
567.467	126
567.679	129
567.891	127
568.102	116
568.314	126
568.526	123
568.737	108
568.949	122
569.161	116
569.372	110
569.584	110
569.795	105
570.007	106
570.218	104
570.43	106
570.641	98
570.853	109
571.064	104
571.276	103
571.487	99
571.698	119
571.91	100
572.121	115
572.333	108
572.544	92
572.755	114
572.966	87
573.178	97
573.389	106
573.6	100
573.811	103
574.023	101
574.234	108
574.445	99
574.656	101
574.867	108
575.078	115
575.289	109
575.501	101
575.712	101
575.923	108
576.134	103
576.345	96
576.556	99
576.767	107
576.978	100
577.188	103
577.399	94
577.61	98
577.821	109
578.032	91
578.243	99
578.454	94
578.665	104
578.875	89
579.086	100
579.297	102
579.508	98
579.718	103
579.929	111
580.14	94
580.35	98
580.561	110
580.772	88
580.982	97
581.193	93
581.403	104
581.614	111
581.825	96
582.035	98
582.246	91
582.456	95
582.667	109
582.877	100
583.087	89
583.298	103
583.508	99
583.719	94
583.929	100
584.139	93
584.35	94
584.56	96
584.77	101
584.981	90
585.191	100
585.401	91
585.611	93
585.821	99
586.032	99
586.242	101
586.452	109
586.662	90
586.872	103
587.082	106
587.292	97
587.502	107
587.713	110
587.923	92
588.133	92
588.343	98
588.553	103
588.762	95
588.972	100
589.182	96
589.392	99
589.602	98
589.812	93
590.022	104
590.232	94
590.441	81
590.651	93
590.861	110
591.071	88
591.281	101
591.49	101
591.7	109
591.91	94
592.119	92
592.329	93
592.539	103
592.748	100
592.958	103
593.167	94
593.377	99
593.587	91
593.796	111
594.006	102
594.215	90
594.424	108
594.634	104
594.843	100
595.053	87
595.262	86
595.472	99
595.681	107
595.89	104
596.1	98
596.309	99
596.518	115
596.727	87
596.937	100
597.146	84
597.355	110
597.564	103
597.774	105
597.983	89
598.192	94
598.401	86
598.61	97
598.819	90
599.028	100
599.237	87
599.446	100
599.655	92
599.864	103
600.073	91
600.282	93
600.491	97
600.7	104
600.909	96
601.118	106
601.327	107
601.536	95
601.745	87
601.953	105
602.162	106
602.371	101
602.58	99
602.789	105
602.997	99
603.206	108
603.415	92
603.623	79
603.832	92
604.041	96
604.249	79
604.458	96
604.666	78
604.875	88
605.084	93
605.292	87
605.501	95
605.709	103
605.918	92
606.126	114
606.334	106
606.543	107
606.751	98
606.96	116
607.168	107
607.376	103
607.585	109
607.793	99
608.001	106
608.21	104
608.418	90
608.626	96
608.834	85
609.043	97
609.251	91
609.459	94
609.667	90
609.875	93
610.083	89
610.291	98
610.499	97
610.707	95
610.916	99
611.124	96
611.332	104
611.54	95
611.748	96
611.955	112
612.163	100
612.371	81
612.579	98
612.787	80
612.995	99
613.203	107
613.411	114
613.618	88
613.826	98
614.034	85
614.242	103
614.449	98
614.657	96
614.865	92
615.072	96
615.28	95
615.488	94
615.695	95
615.903	105
616.111	93
616.318	105
616.526	88
616.733	109
616.941	103
617.148	114
617.356	96
617.563	100
617.771	91
617.978	92
618.185	104
618.393	92
618.6	100
618.807	104
619.015	99
619.222	90
619.429	99
619.637	92
619.844	77
620.051	96
620.258	91
620.466	103
620.673	99
620.88	96
621.087	99
621.294	85
621.501	97
621.708	96
621.915	94
622.122	99
622.329	98
622.536	116
622.743	99
622.95	100
623.157	101
623.364	98
623.571	98
623.778	89
623.985	81
624.192	98
624.399	103
624.606	114
624.812	102
625.019	96
625.226	92
625.433	89
625.639	86
625.846	91
626.053	101
626.259	90
626.466	98
626.673	96
626.879	92
627.086	91
627.293	96
627.499	100
627.706	104
627.912	88
628.119	97
628.325	102
628.532	90
628.738	84
628.945	101
629.151	89
629.357	76
629.564	93
629.77	94
629.976	93
630.183	88
630.389	100
630.595	83
630.802	105
631.008	91
631.214	96
631.42	94
631.627	87
631.833	90
632.039	90
632.245	100
632.451	97
632.657	95
632.863	86
633.069	103
633.275	98
633.481	92
633.688	90
633.893	95
634.099	100
634.305	85
634.511	100
634.717	93
634.923	93
635.129	100
635.335	85
635.541	85
635.747	102
635.952	89
636.158	106
636.364	89
636.57	84
636.775	104
636.981	88
637.187	92
637.392	80
637.598	75
637.804	85
638.009	84
638.215	97
638.421	103
638.626	106
638.832	82
639.037	92
639.243	100
639.448	96
639.654	100
639.859	82
640.065	88
640.27	104
640.475	89
640.681	93
640.886	95
641.091	80
641.297	86
641.502	93
641.707	87
641.913	89
642.118	95
642.323	97
642.528	108
642.733	101
642.939	98
643.144	104
643.349	88
643.554	70
643.759	90
643.964	94
644.169	88
644.374	82
644.579	99
644.784	101
644.989	94
645.194	86
645.399	111
645.604	101
645.809	107
646.014	87
646.219	77
646.423	86
646.628	99
646.833	95
647.038	81
647.243	85
647.447	88
647.652	86
647.857	89
648.062	95
648.266	104
648.471	84
648.676	80
648.88	85
649.085	79
649.289	92
649.494	90
649.698	78
649.903	91
650.107	100
650.312	111
650.516	88
650.721	95
650.925	87
651.13	87
651.334	83
651.539	95
651.743	96
651.947	90
652.152	100
652.356	100
652.56	89
652.764	92
652.969	100
653.173	86
653.377	88
653.581	104
653.785	91
653.99	89
654.194	90
654.398	88
654.602	90
654.806	80
655.01	88
655.214	99
655.418	82
655.622	97
655.826	79
656.03	98
656.234	89
656.438	76
656.642	90
656.846	90
657.049	88
657.253	94
657.457	99
657.661	100
657.865	93
658.068	75
658.272	90
658.476	82
658.68	82
658.883	78
659.087	83
659.291	82
659.494	87
659.698	74
659.901	72
660.105	79
660.309	98
660.512	78
660.716	88
660.919	84
661.123	84
661.326	88
661.53	77
661.733	87
661.936	95
662.14	84
662.343	80
662.546	102
662.75	75
662.953	88
663.156	81
663.36	87
663.563	92
663.766	79
663.969	82
664.173	94
664.376	76
664.579	83
664.782	83
664.985	89
665.188	80
665.391	85
665.594	95
665.797	81
666	94
666.203	81
666.406	81
666.609	68
666.812	84
667.015	81
667.218	77
667.421	89
667.624	91
667.827	93
668.03	90
668.232	87
668.435	79
668.638	86
668.841	82
669.043	74
669.246	82
669.449	92
669.651	94
669.854	85
670.057	81
670.259	79
670.462	80
670.665	78
670.867	88
671.07	92
671.272	91
671.475	95
671.677	75
671.88	83
672.082	81
672.284	86
672.487	86
672.689	83
672.892	96
