Data from StandardFe(NO3)3.TAE.3%Agarose.FlatLispGreen.Lamp.Energy10.07252019_HRD10591_11-53-53-440.txt Node
Date: Thu Jul 25 11:53:53 EDT 2019
User: cochatt
Spectrometer: HR+D1059
Trigger mode: 1
Integration Time (sec): 1.000000E-1
Scans to average: 1
Electric dark correction enabled: true
Nonlinearity correction enabled: false
Boxcar width: 0
XAxis mode: Wavelengths
Number of Pixels in Spectrum: 2048
>>>>>Begin Spectral Data<<<<<
223.165	-8
223.4	-8
223.635	-8
223.869	0
224.104	-19
224.338	-19
224.573	-16
224.808	-20
225.042	-20
225.277	-19
225.511	-2
225.746	9
225.98	6
226.215	11
226.449	21
226.683	21
226.918	27
227.152	28
227.387	34
227.621	44
227.856	45
228.09	44
228.324	50
228.559	54
228.793	64
229.027	68
229.262	59
229.496	49
229.73	68
229.964	75
230.199	77
230.433	78
230.667	87
230.901	88
231.136	73
231.37	77
231.604	78
231.838	75
232.072	76
232.306	88
232.541	71
232.775	84
233.009	87
233.243	84
233.477	97
233.711	75
233.945	85
234.179	91
234.413	82
234.647	75
234.881	84
235.115	84
235.349	72
235.583	83
235.817	77
236.051	70
236.285	76
236.519	85
236.753	75
236.987	78
237.221	90
237.455	78
237.689	85
237.922	86
238.156	80
238.39	73
238.624	82
238.858	69
239.091	76
239.325	89
239.559	80
239.793	86
240.027	84
240.26	74
240.494	54
240.728	74
240.961	70
241.195	74
241.429	69
241.662	80
241.896	77
242.13	72
242.363	80
242.597	85
242.83	68
243.064	67
243.298	85
243.531	80
243.765	86
243.998	75
244.232	72
244.465	74
244.699	89
244.932	81
245.166	93
245.399	76
245.633	82
245.866	77
246.099	77
246.333	70
246.566	84
246.8	83
247.033	78
247.266	79
247.5	89
247.733	78
247.966	92
248.2	77
248.433	76
248.666	91
248.899	83
249.133	75
249.366	82
249.599	90
249.832	77
250.066	86
250.299	68
250.532	79
250.765	81
250.998	87
251.231	84
251.465	73
251.698	78
251.931	92
252.164	76
252.397	68
252.63	81
252.863	75
253.096	80
253.329	87
253.562	76
253.795	81
254.028	92
254.261	92
254.494	70
254.727	80
254.96	78
255.193	77
255.426	76
255.659	90
255.892	84
256.124	80
256.357	86
256.59	79
256.823	76
257.056	75
257.289	92
257.521	91
257.754	87
257.987	81
258.22	86
258.452	83
258.685	69
258.918	89
259.151	75
259.383	78
259.616	83
259.849	80
260.081	86
260.314	77
260.547	86
260.779	85
261.012	81
261.244	76
261.477	90
261.71	87
261.942	90
262.175	93
262.407	87
262.64	89
262.872	74
263.105	85
263.337	87
263.57	79
263.802	81
264.035	86
264.267	69
264.499	84
264.732	90
264.964	90
265.197	78
265.429	95
265.661	74
265.894	90
266.126	94
266.358	83
266.591	92
266.823	82
267.055	72
267.287	84
267.52	82
267.752	76
267.984	85
268.216	83
268.448	90
268.681	71
268.913	79
269.145	76
269.377	88
269.609	89
269.841	82
270.073	98
270.306	86
270.538	88
270.77	68
271.002	71
271.234	51
271.466	84
271.698	71
271.93	75
272.162	85
272.394	89
272.626	82
272.858	77
273.09	80
273.322	97
273.553	85
273.785	81
274.017	88
274.249	94
274.481	103
274.713	100
274.945	88
275.176	85
275.408	82
275.64	85
275.872	93
276.104	78
276.335	74
276.567	92
276.799	72
277.031	81
277.262	95
277.494	79
277.726	80
277.957	79
278.189	74
278.421	86
278.652	88
278.884	86
279.115	85
279.347	87
279.579	81
279.81	84
280.042	77
280.273	93
280.505	88
280.736	79
280.968	76
281.199	80
281.431	86
281.662	78
281.894	90
282.125	75
282.356	93
282.588	78
282.819	103
283.051	86
283.282	68
283.513	93
283.745	86
283.976	77
284.207	86
284.439	92
284.67	82
284.901	89
285.132	77
285.364	77
285.595	86
285.826	82
286.057	91
286.288	81
286.52	82
286.751	92
286.982	102
287.213	101
287.444	91
287.675	81
287.906	84
288.138	83
288.369	91
288.6	87
288.831	89
289.062	89
289.293	91
289.524	83
289.755	83
289.986	88
290.217	104
290.448	76
290.679	76
290.91	81
291.141	84
291.371	90
291.602	96
291.833	87
292.064	87
292.295	83
292.526	85
292.757	95
292.987	92
293.218	84
293.449	91
293.68	88
293.91	81
294.141	75
294.372	89
294.603	96
294.833	86
295.064	95
295.295	91
295.525	91
295.756	76
295.987	83
296.217	84
296.448	84
296.679	86
296.909	73
297.14	74
297.37	73
297.601	84
297.831	88
298.062	77
298.292	80
298.523	82
298.753	100
298.984	89
299.214	90
299.445	89
299.675	82
299.905	84
300.136	89
300.366	68
300.597	75
300.827	88
301.057	86
301.288	83
301.518	79
301.748	84
301.979	93
302.209	84
302.439	82
302.669	84
302.9	78
303.13	79
303.36	91
303.59	98
303.82	91
304.051	87
304.281	78
304.511	90
304.741	89
304.971	83
305.201	85
305.431	89
305.661	75
305.891	92
306.121	93
306.352	84
306.582	90
306.812	84
307.042	89
307.272	85
307.502	82
307.731	82
307.961	92
308.191	91
308.421	81
308.651	74
308.881	92
309.111	94
309.341	85
309.571	78
309.8	73
310.03	85
310.26	84
310.49	91
310.72	84
310.949	91
311.179	77
311.409	86
311.639	92
311.868	92
312.098	75
312.328	79
312.557	93
312.787	90
313.017	79
313.246	96
313.476	93
313.706	86
313.935	87
314.165	78
314.394	96
314.624	72
314.853	78
315.083	86
315.312	84
315.542	97
315.771	96
316.001	74
316.23	73
316.46	65
316.689	89
316.919	80
317.148	86
317.377	92
317.607	82
317.836	81
318.065	72
318.295	83
318.524	72
318.753	81
318.983	81
319.212	89
319.441	89
319.67	96
319.9	88
320.129	78
320.358	77
320.587	84
320.816	92
321.046	87
321.275	83
321.504	83
321.733	90
321.962	84
322.191	89
322.42	95
322.649	75
322.878	84
323.108	86
323.337	81
323.566	98
323.795	94
324.024	86
324.253	76
324.482	84
324.71	84
324.939	93
325.168	86
325.397	79
325.626	97
325.855	102
326.084	95
326.313	75
326.542	70
326.77	93
326.999	78
327.228	76
327.457	95
327.686	95
327.914	81
328.143	91
328.372	72
328.6	80
328.829	86
329.058	88
329.287	90
329.515	87
329.744	75
329.972	83
330.201	87
330.43	81
330.658	80
330.887	86
331.115	92
331.344	71
331.572	89
331.801	108
332.03	99
332.258	100
332.486	83
332.715	84
332.943	80
333.172	92
333.4	92
333.629	108
333.857	97
334.085	85
334.314	89
334.542	96
334.771	82
334.999	95
335.227	91
335.455	91
335.684	90
335.912	88
336.14	80
336.369	96
336.597	86
336.825	85
337.053	76
337.281	76
337.51	85
337.738	104
337.966	89
338.194	84
338.422	88
338.65	93
338.878	82
339.106	80
339.334	94
339.562	80
339.79	89
340.018	78
340.246	87
340.474	86
340.702	89
340.93	90
341.158	92
341.386	75
341.614	83
341.842	84
342.07	78
342.298	78
342.526	79
342.754	85
342.981	110
343.209	81
343.437	88
343.665	81
343.893	94
344.12	74
344.348	68
344.576	70
344.804	73
345.031	84
345.259	86
345.487	88
345.714	84
345.942	85
346.17	79
346.397	71
346.625	92
346.853	85
347.08	96
347.308	101
347.535	84
347.763	97
347.99	88
348.218	103
348.445	80
348.673	93
348.9	88
349.128	92
349.355	96
349.583	102
349.81	86
350.037	85
350.265	90
350.492	83
350.72	80
350.947	76
351.174	86
351.402	79
351.629	96
351.856	89
352.083	77
352.311	79
352.538	93
352.765	82
352.992	83
353.22	82
353.447	83
353.674	80
353.901	96
354.128	77
354.355	96
354.583	94
354.81	93
355.037	90
355.264	79
355.491	78
355.718	90
355.945	98
356.172	98
356.399	72
356.626	82
356.853	82
357.08	86
357.307	92
357.534	86
357.761	93
357.988	86
358.215	74
358.441	81
358.668	76
358.895	77
359.122	96
359.349	88
359.576	91
359.802	73
360.029	70
360.256	80
360.483	78
360.709	98
360.936	93
361.163	88
361.39	76
361.616	85
361.843	85
362.07	84
362.296	98
362.523	97
362.749	88
362.976	92
363.203	84
363.429	83
363.656	100
363.882	95
364.109	72
364.335	84
364.562	80
364.788	92
365.015	73
365.241	87
365.468	82
365.694	83
365.92	93
366.147	98
366.373	86
366.599	85
366.826	91
367.052	93
367.278	87
367.505	85
367.731	91
367.957	76
368.184	88
368.41	78
368.636	91
368.862	88
369.089	88
369.315	85
369.541	87
369.767	91
369.993	81
370.219	90
370.445	87
370.672	93
370.898	97
371.124	98
371.35	97
371.576	97
371.802	84
372.028	88
372.254	89
372.48	101
372.706	80
372.932	80
373.158	80
373.384	91
373.61	99
373.835	74
374.061	94
374.287	98
374.513	100
374.739	75
374.965	92
375.191	94
375.416	95
375.642	95
375.868	85
376.094	90
376.319	86
376.545	85
376.771	82
376.997	82
377.222	97
377.448	96
377.674	94
377.899	99
378.125	91
378.35	86
378.576	84
378.802	88
379.027	91
379.253	95
379.478	92
379.704	80
379.929	85
380.155	83
380.38	95
380.606	86
380.831	95
381.057	96
381.282	97
381.507	103
381.733	91
381.958	97
382.184	85
382.409	93
382.634	92
382.86	81
383.085	92
383.31	91
383.535	88
383.761	81
383.986	91
384.211	91
384.436	99
384.662	85
384.887	97
385.112	85
385.337	87
385.562	93
385.787	89
386.013	102
386.238	82
386.463	79
386.688	94
386.913	99
387.138	86
387.363	100
387.588	90
387.813	98
388.038	85
388.263	96
388.488	101
388.713	99
388.938	96
389.163	99
389.387	98
389.612	98
389.837	103
390.062	98
390.287	96
390.512	82
390.736	98
390.961	82
391.186	90
391.411	101
391.636	96
391.86	97
392.085	108
392.31	95
392.534	98
392.759	102
392.984	106
393.208	94
393.433	97
393.658	103
393.882	97
394.107	96
394.331	92
394.556	90
394.78	106
395.005	117
395.229	98
395.454	106
395.678	110
395.903	100
396.127	104
396.352	103
396.576	88
396.801	107
397.025	111
397.249	94
397.474	108
397.698	96
397.922	90
398.147	98
398.371	89
398.595	97
398.82	106
399.044	96
399.268	121
399.492	105
399.717	115
399.941	120
400.165	117
400.389	102
400.613	106
400.837	109
401.062	105
401.286	107
401.51	104
401.734	103
401.958	109
402.182	91
402.406	101
402.63	98
402.854	112
403.078	115
403.302	105
403.526	117
403.75	106
403.974	110
404.198	112
404.422	113
404.645	104
404.869	125
405.093	107
405.317	116
405.541	114
405.765	106
405.988	99
406.212	109
406.436	104
406.66	100
406.883	111
407.107	108
407.331	112
407.555	120
407.778	122
408.002	109
408.226	104
408.449	105
408.673	116
408.896	123
409.12	118
409.344	109
409.567	120
409.791	100
410.014	109
410.238	111
410.461	101
410.685	103
410.908	107
411.132	132
411.355	109
411.578	105
411.802	114
412.025	108
412.249	102
412.472	107
412.695	105
412.919	107
413.142	117
413.365	105
413.589	104
413.812	116
414.035	103
414.258	112
414.482	112
414.705	121
414.928	119
415.151	122
415.374	111
415.597	105
415.821	110
416.044	109
416.267	110
416.49	117
416.713	120
416.936	118
417.159	130
417.382	112
417.605	102
417.828	115
418.051	114
418.274	110
418.497	109
418.72	107
418.943	114
419.166	109
419.389	128
419.611	124
419.834	111
420.057	124
420.28	118
420.503	99
420.726	113
420.948	119
421.171	105
421.394	113
421.617	125
421.839	109
422.062	105
422.285	124
422.507	114
422.73	107
422.953	128
423.175	118
423.398	113
423.621	129
423.843	116
424.066	123
424.288	124
424.511	116
424.733	109
424.956	114
425.178	128
425.401	115
425.623	110
425.846	125
426.068	99
426.291	115
426.513	112
426.735	116
426.958	101
427.18	114
427.402	108
427.625	114
427.847	114
428.069	122
428.292	130
428.514	108
428.736	118
428.958	115
429.181	106
429.403	107
429.625	113
429.847	109
430.069	93
430.292	113
430.514	116
430.736	125
430.958	123
431.18	122
431.402	116
431.624	128
431.846	114
432.068	95
432.29	115
432.512	122
432.734	120
432.956	109
433.178	114
433.4	112
433.622	122
433.844	125
434.066	103
434.287	113
434.509	108
434.731	104
434.953	120
435.175	117
435.397	125
435.618	131
435.84	118
436.062	124
436.284	115
436.505	113
436.727	99
436.949	120
437.17	110
437.392	117
437.614	116
437.835	104
438.057	103
438.278	99
438.5	98
438.721	126
438.943	109
439.165	113
439.386	118
439.608	123
439.829	122
440.05	112
440.272	127
440.493	127
440.715	117
440.936	136
441.158	113
441.379	129
441.6	104
441.822	118
442.043	126
442.264	113
442.486	109
442.707	103
442.928	120
443.149	112
443.371	115
443.592	119
443.813	122
444.034	116
444.255	126
444.476	124
444.698	136
444.919	137
445.14	239
445.361	151
445.582	126
445.803	122
446.024	131
446.245	130
446.466	124
446.687	127
446.908	115
447.129	135
447.35	113
447.571	122
447.792	124
448.013	113
448.234	133
448.455	119
448.675	114
448.896	114
449.117	110
449.338	117
449.559	118
449.779	109
450	88
450.221	122
450.442	123
450.662	120
450.883	114
451.104	124
451.324	121
451.545	118
451.766	113
451.986	104
452.207	103
452.428	113
452.648	113
452.869	103
453.089	91
453.31	110
453.53	93
453.751	113
453.971	124
454.192	102
454.412	105
454.633	119
454.853	104
455.073	109
455.294	114
455.514	110
455.734	106
455.955	108
456.175	117
456.395	103
456.616	91
456.836	116
457.056	93
457.276	104
457.497	108
457.717	106
457.937	110
458.157	101
458.377	100
458.598	101
458.818	104
459.038	101
459.258	104
459.478	97
459.698	105
459.918	115
460.138	104
460.358	118
460.578	112
460.798	123
461.018	125
461.238	117
461.458	120
461.678	91
461.898	117
462.118	108
462.338	104
462.558	117
462.777	119
462.997	124
463.217	113
463.437	125
463.657	127
463.876	110
464.096	126
464.316	114
464.536	122
464.755	118
464.975	120
465.195	126
465.414	113
465.634	118
465.854	122
466.073	123
466.293	130
466.512	122
466.732	115
466.951	106
467.171	117
467.391	116
467.61	128
467.829	113
468.049	118
468.268	112
468.488	129
468.707	115
468.927	121
469.146	109
469.365	116
469.585	108
469.804	122
470.023	138
470.243	136
470.462	126
470.681	133
470.901	105
471.12	113
471.339	129
471.558	123
471.777	124
471.997	106
472.216	102
472.435	118
472.654	121
472.873	114
473.092	111
473.311	126
473.53	108
473.749	126
473.968	136
474.187	103
474.406	107
474.625	128
474.844	112
475.063	136
475.282	126
475.501	126
475.72	107
475.939	112
476.158	118
476.377	124
476.596	118
476.814	123
477.033	114
477.252	110
477.471	124
477.69	128
477.908	118
478.127	126
478.346	129
478.564	126
478.783	122
479.002	122
479.22	116
479.439	116
479.658	114
479.876	124
480.095	123
480.313	120
480.532	118
480.751	121
480.969	110
481.188	118
481.406	102
481.624	112
481.843	119
482.061	108
482.28	121
482.498	120
482.717	120
482.935	124
483.153	132
483.372	124
483.59	136
483.808	134
484.027	116
484.245	120
484.463	126
484.681	124
484.9	128
485.118	128
485.336	132
485.554	118
485.772	106
485.99	132
486.209	124
486.427	122
486.645	129
486.863	142
487.081	137
487.299	132
487.517	127
487.735	140
487.953	141
488.171	136
488.389	129
488.607	122
488.825	130
489.043	122
489.261	132
489.479	125
489.696	140
489.914	137
490.132	130
490.35	150
490.568	129
490.786	147
491.003	159
491.221	144
491.439	141
491.657	156
491.874	150
492.092	159
492.31	166
492.527	161
492.745	167
492.963	165
493.18	134
493.398	152
493.615	150
493.833	146
494.05	157
494.268	151
494.485	148
494.703	160
494.92	149
495.138	144
495.355	140
495.573	152
495.79	144
496.008	155
496.225	148
496.442	145
496.66	162
496.877	141
497.094	158
497.312	158
497.529	153
497.746	137
497.963	142
498.181	144
498.398	130
498.615	127
498.832	132
499.049	148
499.267	147
499.484	177
499.701	168
499.918	186
500.135	189
500.352	206
500.569	225
500.786	213
501.003	194
501.22	194
501.437	185
501.654	165
501.871	160
502.088	142
502.305	149
502.522	140
502.739	150
502.956	151
503.172	148
503.389	137
503.606	140
503.823	120
504.04	145
504.256	133
504.473	130
504.69	124
504.907	141
505.123	132
505.34	133
505.557	122
505.773	117
505.99	138
506.207	137
506.423	134
506.64	126
506.856	129
507.073	109
507.289	134
507.506	122
507.722	109
507.939	114
508.155	131
508.372	132
508.588	122
508.805	121
509.021	118
509.238	126
509.454	123
509.67	97
509.887	99
510.103	101
510.319	103
510.536	100
510.752	106
510.968	125
511.184	113
511.401	114
511.617	115
511.833	100
512.049	114
512.265	120
512.481	130
512.698	124
512.914	116
513.13	113
513.346	117
513.562	102
513.778	121
513.994	129
514.21	114
514.426	118
514.642	101
514.858	106
515.074	107
515.29	119
515.506	104
515.721	116
515.937	108
516.153	109
516.369	126
516.585	110
516.801	109
517.016	110
517.232	128
517.448	120
517.664	106
517.879	122
518.095	130
518.311	118
518.527	128
518.742	118
518.958	136
519.173	127
519.389	117
519.605	128
519.82	121
520.036	128
520.251	110
520.467	119
520.682	116
520.898	104
521.113	116
521.329	112
521.544	116
521.76	108
521.975	112
522.19	124
522.406	119
522.621	112
522.836	116
523.052	121
523.267	106
523.482	125
523.698	120
523.913	111
524.128	112
524.343	130
524.559	113
524.774	123
524.989	118
525.204	124
525.419	117
525.634	123
525.849	128
526.064	127
526.28	125
526.495	120
526.71	96
526.925	112
527.14	107
527.355	98
527.57	123
527.785	120
527.999	116
528.214	116
528.429	104
528.644	106
528.859	121
529.074	117
529.289	125
529.503	149
529.718	120
529.933	118
530.148	110
530.363	124
530.577	112
530.792	104
531.007	101
531.221	101
531.436	113
531.651	105
531.865	115
532.08	106
532.295	109
532.509	108
532.724	107
532.938	118
533.153	110
533.367	122
533.582	120
533.796	117
534.011	132
534.225	110
534.44	115
534.654	114
534.868	101
535.083	106
535.297	119
535.511	118
535.726	120
535.94	106
536.154	112
536.369	104
536.583	108
536.797	100
537.011	120
537.225	105
537.44	98
537.654	108
537.868	114
538.082	98
538.296	101
538.51	116
538.724	123
538.938	121
539.153	106
539.367	114
539.581	117
539.795	118
540.009	126
540.222	112
540.436	115
540.65	108
540.864	117
541.078	130
541.292	133
541.506	120
541.72	136
541.934	146
542.147	160
542.361	144
542.575	121
542.789	122
543.002	122
543.216	124
543.43	123
543.644	111
543.857	138
544.071	134
544.285	124
544.498	133
544.712	122
544.925	125
545.139	145
545.352	124
545.566	141
545.779	139
545.993	141
546.206	142
546.42	140
546.633	151
546.847	131
547.06	138
547.274	139
547.487	138
547.7	150
547.914	138
548.127	139
548.34	142
548.554	129
548.767	135
548.98	125
549.193	135
549.407	124
549.62	140
549.833	129
550.046	136
550.259	122
550.473	130
550.686	129
550.899	140
551.112	131
551.325	117
551.538	116
551.751	117
551.964	112
552.177	118
552.39	128
552.603	134
552.816	125
553.029	143
553.242	136
553.455	132
553.667	123
553.88	137
554.093	127
554.306	128
554.519	132
554.732	137
554.944	114
555.157	116
555.37	147
555.583	123
555.795	122
556.008	123
556.221	132
556.433	124
556.646	113
556.859	135
557.071	109
557.284	114
557.496	118
557.709	122
557.921	119
558.134	126
558.346	122
558.559	118
558.771	116
558.984	107
559.196	126
559.409	115
559.621	121
559.833	119
560.046	118
560.258	109
560.47	124
560.683	105
560.895	105
561.107	107
561.32	100
561.532	112
561.744	122
561.956	124
562.168	132
562.381	121
562.593	103
562.805	115
563.017	111
563.229	117
563.441	107
563.653	102
563.865	119
564.077	100
564.289	116
564.501	121
564.713	101
564.925	122
565.137	108
565.349	119
565.561	121
565.773	124
565.985	119
566.197	113
566.408	105
566.62	108
566.832	121
567.044	128
567.255	121
567.467	115
567.679	133
567.891	122
568.102	122
568.314	117
568.526	112
568.737	112
568.949	105
569.161	106
569.372	116
569.584	104
569.795	108
570.007	101
570.218	109
570.43	98
570.641	107
570.853	110
571.064	92
571.276	95
571.487	96
571.698	107
571.91	99
572.121	102
572.333	93
572.544	90
572.755	99
572.966	101
573.178	88
573.389	102
573.6	96
573.811	89
574.023	90
574.234	108
574.445	90
574.656	93
574.867	109
575.078	91
575.289	102
575.501	101
575.712	90
575.923	108
576.134	100
576.345	97
576.556	109
576.767	102
576.978	99
577.188	98
577.399	112
577.61	88
577.821	108
578.032	110
578.243	89
578.454	105
578.665	106
578.875	88
579.086	95
579.297	84
579.508	100
579.718	100
579.929	100
580.14	102
580.35	97
580.561	97
580.772	104
580.982	98
581.193	96
581.403	92
581.614	93
581.825	95
582.035	108
582.246	97
582.456	99
582.667	101
582.877	96
583.087	86
583.298	97
583.508	98
583.719	92
583.929	91
584.139	89
584.35	93
584.56	96
584.77	97
584.981	101
585.191	96
585.401	94
585.611	99
585.821	91
586.032	92
586.242	98
586.452	92
586.662	87
586.872	87
587.082	93
587.292	93
587.502	96
587.713	99
587.923	113
588.133	115
588.343	99
588.553	95
588.762	107
588.972	79
589.182	116
589.392	90
589.602	105
589.812	92
590.022	99
590.232	89
590.441	92
590.651	96
590.861	81
591.071	78
591.281	103
591.49	87
591.7	85
591.91	101
592.119	94
592.329	87
592.539	102
592.748	102
592.958	99
593.167	91
593.377	94
593.587	107
593.796	102
594.006	112
594.215	96
594.424	97
594.634	91
594.843	96
595.053	88
595.262	105
595.472	106
595.681	95
595.89	80
596.1	103
596.309	97
596.518	89
596.727	112
596.937	77
597.146	92
597.355	97
597.564	104
597.774	104
597.983	92
598.192	98
598.401	86
598.61	77
598.819	80
599.028	98
599.237	101
599.446	109
599.655	96
599.864	92
600.073	100
600.282	103
600.491	99
600.7	101
600.909	106
601.118	91
601.327	89
601.536	97
601.745	90
601.953	97
602.162	112
602.371	94
602.58	96
602.789	80
602.997	104
603.206	94
603.415	97
603.623	86
603.832	93
604.041	99
604.249	87
604.458	95
604.666	103
604.875	98
605.084	102
605.292	86
605.501	84
605.709	94
605.918	103
606.126	108
606.334	88
606.543	83
606.751	85
606.96	109
607.168	101
607.376	94
607.585	107
607.793	106
608.001	94
608.21	104
608.418	91
608.626	95
608.834	104
609.043	98
609.251	88
609.459	96
609.667	105
609.875	99
610.083	98
610.291	93
610.499	92
610.707	92
610.916	92
611.124	98
611.332	89
611.54	99
611.748	85
611.955	88
612.163	99
612.371	95
612.579	89
612.787	97
612.995	96
613.203	94
613.411	90
613.618	95
613.826	97
614.034	103
614.242	107
614.449	96
614.657	102
614.865	87
615.072	92
615.28	113
615.488	89
615.695	101
615.903	99
616.111	105
616.318	99
616.526	93
616.733	88
616.941	89
617.148	93
617.356	83
617.563	95
617.771	101
617.978	101
618.185	91
618.393	99
618.6	98
618.807	95
619.015	86
619.222	115
619.429	91
619.637	95
619.844	103
620.051	97
620.258	91
620.466	99
620.673	101
620.88	97
621.087	115
621.294	102
621.501	90
621.708	88
621.915	93
622.122	90
622.329	86
622.536	85
622.743	99
622.95	89
623.157	88
623.364	90
623.571	102
623.778	104
623.985	100
624.192	80
624.399	97
624.606	97
624.812	117
625.019	83
625.226	99
625.433	90
625.639	85
625.846	92
626.053	88
626.259	105
626.466	106
626.673	88
626.879	99
627.086	91
627.293	88
627.499	116
627.706	86
627.912	81
628.119	100
628.325	96
628.532	82
628.738	93
628.945	100
629.151	90
629.357	87
629.564	100
629.77	89
629.976	97
630.183	93
630.389	94
630.595	78
630.802	94
631.008	96
631.214	92
631.42	95
631.627	100
631.833	87
632.039	82
632.245	92
632.451	90
632.657	96
632.863	100
633.069	96
633.275	93
633.481	74
633.688	88
633.893	82
634.099	95
634.305	90
634.511	85
634.717	92
634.923	87
635.129	78
635.335	95
635.541	96
635.747	88
635.952	103
636.158	91
636.364	90
636.57	96
636.775	88
636.981	100
637.187	98
637.392	92
637.598	100
637.804	79
638.009	98
638.215	90
638.421	94
638.626	85
638.832	84
639.037	96
639.243	91
639.448	88
639.654	85
639.859	93
640.065	86
640.27	96
640.475	89
640.681	100
640.886	91
641.091	98
641.297	88
641.502	100
641.707	93
641.913	86
642.118	92
642.323	81
642.528	98
642.733	91
642.939	80
643.144	90
643.349	83
643.554	93
643.759	79
643.964	79
644.169	103
644.374	79
644.579	86
644.784	79
644.989	99
645.194	78
645.399	99
645.604	101
645.809	87
646.014	93
646.219	75
646.423	80
646.628	85
646.833	84
647.038	94
647.243	94
647.447	92
647.652	88
647.857	68
648.062	94
648.266	90
648.471	99
648.676	96
648.88	83
649.085	76
649.289	88
649.494	85
649.698	81
649.903	78
650.107	86
650.312	92
650.516	89
650.721	92
650.925	85
651.13	78
651.334	96
651.539	92
651.743	82
651.947	87
652.152	97
652.356	99
652.56	82
652.764	89
652.969	65
653.173	82
653.377	89
653.581	101
653.785	89
653.99	88
654.194	91
654.398	94
654.602	93
654.806	77
655.01	85
655.214	86
655.418	90
655.622	94
655.826	80
656.03	78
656.234	90
656.438	92
656.642	69
656.846	85
657.049	89
657.253	91
657.457	94
657.661	99
657.865	91
658.068	94
658.272	105
658.476	68
658.68	71
658.883	79
659.087	80
659.291	83
659.494	86
659.698	81
659.901	92
660.105	90
660.309	80
660.512	89
660.716	87
660.919	90
661.123	94
661.326	85
661.53	83
661.733	76
661.936	69
662.14	81
662.343	95
662.546	91
662.75	101
662.953	86
663.156	86
663.36	91
663.563	83
663.766	93
663.969	81
664.173	84
664.376	78
664.579	78
664.782	103
664.985	96
665.188	75
665.391	85
665.594	72
665.797	89
666	74
666.203	74
666.406	81
666.609	77
666.812	85
667.015	78
667.218	76
667.421	78
667.624	89
667.827	76
668.03	76
668.232	73
668.435	91
668.638	91
668.841	86
669.043	83
669.246	88
669.449	77
669.651	71
669.854	89
670.057	80
670.259	102
670.462	77
670.665	77
670.867	78
671.07	77
671.272	97
671.475	72
671.677	91
671.88	75
672.082	68
672.284	102
672.487	84
672.689	89
672.892	90
