Data from StandardFe(NO3)3.TAE.3%Agarose.FlatLispGreen.Lamp.Energy10.07252019_HRD10591_11-53-24-439.txt Node
Date: Thu Jul 25 11:53:24 EDT 2019
User: cochatt
Spectrometer: HR+D1059
Trigger mode: 1
Integration Time (sec): 1.000000E-1
Scans to average: 1
Electric dark correction enabled: true
Nonlinearity correction enabled: false
Boxcar width: 0
XAxis mode: Wavelengths
Number of Pixels in Spectrum: 2048
>>>>>Begin Spectral Data<<<<<
223.165	-20
223.4	-20
223.635	-20
223.869	-20
224.104	-10
224.338	-19
224.573	-22
224.808	-9
225.042	-18
225.277	-20
225.511	-3
225.746	21
225.98	12
226.215	11
226.449	17
226.683	22
226.918	30
227.152	28
227.387	33
227.621	45
227.856	41
228.09	49
228.324	59
228.559	63
228.793	59
229.027	55
229.262	74
229.496	70
229.73	76
229.964	67
230.199	91
230.433	76
230.667	78
230.901	75
231.136	72
231.37	84
231.604	87
231.838	74
232.072	77
232.306	80
232.541	97
232.775	82
233.009	68
233.243	95
233.477	85
233.711	71
233.945	83
234.179	85
234.413	86
234.647	92
234.881	78
235.115	80
235.349	83
235.583	80
235.817	85
236.051	82
236.285	83
236.519	66
236.753	86
236.987	92
237.221	77
237.455	77
237.689	80
237.922	69
238.156	65
238.39	78
238.624	72
238.858	88
239.091	83
239.325	93
239.559	91
239.793	79
240.027	78
240.26	73
240.494	80
240.728	86
240.961	78
241.195	79
241.429	83
241.662	87
241.896	79
242.13	78
242.363	82
242.597	85
242.83	66
243.064	89
243.298	83
243.531	73
243.765	79
243.998	84
244.232	74
244.465	83
244.699	63
244.932	64
245.166	67
245.399	82
245.633	87
245.866	99
246.099	78
246.333	80
246.566	89
246.8	83
247.033	65
247.266	78
247.5	84
247.733	82
247.966	75
248.2	82
248.433	74
248.666	77
248.899	74
249.133	89
249.366	69
249.599	87
249.832	89
250.066	96
250.299	90
250.532	78
250.765	83
250.998	79
251.231	75
251.465	83
251.698	96
251.931	87
252.164	85
252.397	95
252.63	83
252.863	93
253.096	89
253.329	86
253.562	85
253.795	80
254.028	78
254.261	84
254.494	77
254.727	87
254.96	86
255.193	79
255.426	75
255.659	64
255.892	85
256.124	62
256.357	78
256.59	90
256.823	80
257.056	88
257.289	96
257.521	88
257.754	83
257.987	79
258.22	98
258.452	79
258.685	87
258.918	79
259.151	86
259.383	94
259.616	100
259.849	85
260.081	77
260.314	86
260.547	90
260.779	81
261.012	85
261.244	85
261.477	96
261.71	77
261.942	81
262.175	94
262.407	86
262.64	86
262.872	82
263.105	86
263.337	83
263.57	79
263.802	82
264.035	85
264.267	78
264.499	79
264.732	106
264.964	75
265.197	78
265.429	79
265.661	90
265.894	87
266.126	90
266.358	81
266.591	100
266.823	80
267.055	91
267.287	76
267.52	81
267.752	83
267.984	88
268.216	90
268.448	95
268.681	83
268.913	86
269.145	85
269.377	79
269.609	89
269.841	95
270.073	86
270.306	102
270.538	69
270.77	86
271.002	83
271.234	71
271.466	94
271.698	74
271.93	85
272.162	75
272.394	86
272.626	89
272.858	81
273.09	99
273.322	96
273.553	72
273.785	92
274.017	88
274.249	82
274.481	101
274.713	81
274.945	92
275.176	73
275.408	79
275.64	83
275.872	96
276.104	83
276.335	78
276.567	95
276.799	87
277.031	70
277.262	79
277.494	88
277.726	94
277.957	94
278.189	80
278.421	80
278.652	79
278.884	77
279.115	82
279.347	95
279.579	79
279.81	88
280.042	77
280.273	78
280.505	95
280.736	86
280.968	79
281.199	82
281.431	89
281.662	84
281.894	89
282.125	87
282.356	99
282.588	71
282.819	85
283.051	83
283.282	91
283.513	90
283.745	87
283.976	86
284.207	97
284.439	85
284.67	93
284.901	90
285.132	89
285.364	97
285.595	86
285.826	89
286.057	88
286.288	92
286.52	96
286.751	98
286.982	94
287.213	82
287.444	95
287.675	85
287.906	101
288.138	86
288.369	89
288.6	86
288.831	81
289.062	78
289.293	88
289.524	93
289.755	83
289.986	83
290.217	88
290.448	86
290.679	92
290.91	99
291.141	90
291.371	94
291.602	86
291.833	80
292.064	79
292.295	83
292.526	97
292.757	83
292.987	98
293.218	80
293.449	85
293.68	101
293.91	86
294.141	72
294.372	87
294.603	91
294.833	96
295.064	95
295.295	77
295.525	86
295.756	81
295.987	90
296.217	85
296.448	83
296.679	89
296.909	89
297.14	83
297.37	111
297.601	89
297.831	89
298.062	78
298.292	89
298.523	86
298.753	87
298.984	83
299.214	94
299.445	94
299.675	73
299.905	98
300.136	90
300.366	85
300.597	78
300.827	98
301.057	83
301.288	88
301.518	86
301.748	86
301.979	77
302.209	101
302.439	93
302.669	94
302.9	84
303.13	91
303.36	92
303.59	81
303.82	98
304.051	73
304.281	99
304.511	86
304.741	70
304.971	82
305.201	87
305.431	92
305.661	87
305.891	83
306.121	75
306.352	84
306.582	92
306.812	104
307.042	88
307.272	101
307.502	102
307.731	84
307.961	97
308.191	88
308.421	99
308.651	85
308.881	80
309.111	86
309.341	84
309.571	92
309.8	92
310.03	85
310.26	85
310.49	90
310.72	81
310.949	83
311.179	71
311.409	85
311.639	90
311.868	87
312.098	102
312.328	78
312.557	87
312.787	87
313.017	87
313.246	97
313.476	99
313.706	104
313.935	96
314.165	87
314.394	91
314.624	88
314.853	93
315.083	87
315.312	90
315.542	101
315.771	95
316.001	92
316.23	85
316.46	87
316.689	86
316.919	81
317.148	89
317.377	82
317.607	85
317.836	85
318.065	96
318.295	82
318.524	75
318.753	95
318.983	93
319.212	85
319.441	80
319.67	82
319.9	84
320.129	79
320.358	92
320.587	77
320.816	86
321.046	94
321.275	88
321.504	80
321.733	93
321.962	98
322.191	92
322.42	83
322.649	91
322.878	88
323.108	92
323.337	93
323.566	98
323.795	95
324.024	92
324.253	79
324.482	84
324.71	85
324.939	92
325.168	102
325.397	83
325.626	98
325.855	77
326.084	96
326.313	93
326.542	96
326.77	91
326.999	96
327.228	93
327.457	81
327.686	94
327.914	93
328.143	84
328.372	77
328.6	75
328.829	99
329.058	82
329.287	70
329.515	78
329.744	84
329.972	87
330.201	87
330.43	84
330.658	95
330.887	82
331.115	96
331.344	90
331.572	95
331.801	87
332.03	94
332.258	87
332.486	90
332.715	94
332.943	92
333.172	77
333.4	86
333.629	86
333.857	91
334.085	85
334.314	81
334.542	69
334.771	93
334.999	82
335.227	86
335.455	94
335.684	90
335.912	91
336.14	88
336.369	89
336.597	88
336.825	93
337.053	82
337.281	93
337.51	106
337.738	96
337.966	93
338.194	87
338.422	108
338.65	87
338.878	94
339.106	97
339.334	80
339.562	76
339.79	81
340.018	74
340.246	92
340.474	83
340.702	89
340.93	81
341.158	80
341.386	83
341.614	90
341.842	77
342.07	83
342.298	84
342.526	94
342.754	72
342.981	79
343.209	82
343.437	89
343.665	87
343.893	82
344.12	84
344.348	87
344.576	91
344.804	87
345.031	86
345.259	92
345.487	87
345.714	76
345.942	94
346.17	90
346.397	102
346.625	93
346.853	85
347.08	90
347.308	85
347.535	97
347.763	97
347.99	78
348.218	98
348.445	97
348.673	90
348.9	89
349.128	77
349.355	91
349.583	78
349.81	83
350.037	91
350.265	94
350.492	79
350.72	85
350.947	93
351.174	86
351.402	89
351.629	101
351.856	93
352.083	90
352.311	97
352.538	86
352.765	99
352.992	79
353.22	89
353.447	77
353.674	83
353.901	75
354.128	93
354.355	80
354.583	89
354.81	79
355.037	87
355.264	94
355.491	78
355.718	83
355.945	93
356.172	95
356.399	84
356.626	73
356.853	92
357.08	79
357.307	85
357.534	83
357.761	76
357.988	91
358.215	85
358.441	95
358.668	91
358.895	94
359.122	93
359.349	97
359.576	99
359.802	88
360.029	84
360.256	101
360.483	92
360.709	59
360.936	87
361.163	87
361.39	98
361.616	98
361.843	81
362.07	95
362.296	89
362.523	90
362.749	89
362.976	82
363.203	90
363.429	81
363.656	101
363.882	90
364.109	88
364.335	90
364.562	95
364.788	81
365.015	87
365.241	79
365.468	89
365.694	69
365.92	91
366.147	77
366.373	85
366.599	93
366.826	96
367.052	81
367.278	95
367.505	100
367.731	90
367.957	76
368.184	84
368.41	88
368.636	84
368.862	94
369.089	105
369.315	82
369.541	92
369.767	88
369.993	97
370.219	98
370.445	101
370.672	103
370.898	103
371.124	84
371.35	83
371.576	90
371.802	98
372.028	95
372.254	86
372.48	79
372.706	88
372.932	89
373.158	94
373.384	95
373.61	97
373.835	99
374.061	88
374.287	94
374.513	91
374.739	82
374.965	88
375.191	85
375.416	86
375.642	98
375.868	91
376.094	86
376.319	85
376.545	101
376.771	107
376.997	101
377.222	89
377.448	85
377.674	86
377.899	86
378.125	92
378.35	87
378.576	89
378.802	97
379.027	89
379.253	89
379.478	87
379.704	87
379.929	94
380.155	95
380.38	113
380.606	85
380.831	103
381.057	100
381.282	100
381.507	98
381.733	117
381.958	95
382.184	90
382.409	90
382.634	89
382.86	89
383.085	102
383.31	90
383.535	89
383.761	86
383.986	105
384.211	97
384.436	98
384.662	96
384.887	97
385.112	83
385.337	96
385.562	104
385.787	85
386.013	101
386.238	114
386.463	87
386.688	76
386.913	98
387.138	93
387.363	92
387.588	102
387.813	97
388.038	101
388.263	101
388.488	100
388.713	98
388.938	92
389.163	93
389.387	95
389.612	100
389.837	94
390.062	102
390.287	109
390.512	117
390.736	85
390.961	102
391.186	99
391.411	97
391.636	103
391.86	112
392.085	110
392.31	105
392.534	114
392.759	95
392.984	99
393.208	99
393.433	101
393.658	102
393.882	109
394.107	109
394.331	111
394.556	99
394.78	90
395.005	98
395.229	104
395.454	90
395.678	97
395.903	110
396.127	105
396.352	109
396.576	102
396.801	87
397.025	102
397.249	118
397.474	116
397.698	109
397.922	101
398.147	109
398.371	97
398.595	110
398.82	93
399.044	99
399.268	99
399.492	99
399.717	123
399.941	118
400.165	121
400.389	105
400.613	109
400.837	108
401.062	102
401.286	104
401.51	118
401.734	114
401.958	117
402.182	102
402.406	88
402.63	104
402.854	97
403.078	130
403.302	116
403.526	113
403.75	120
403.974	111
404.198	113
404.422	100
404.645	110
404.869	136
405.093	117
405.317	106
405.541	107
405.765	109
405.988	101
406.212	114
406.436	112
406.66	106
406.883	114
407.107	115
407.331	124
407.555	105
407.778	126
408.002	124
408.226	111
408.449	119
408.673	105
408.896	117
409.12	117
409.344	123
409.567	116
409.791	108
410.014	97
410.238	107
410.461	123
410.685	119
410.908	126
411.132	115
411.355	113
411.578	111
411.802	119
412.025	102
412.249	124
412.472	101
412.695	124
412.919	118
413.142	117
413.365	118
413.589	115
413.812	115
414.035	115
414.258	107
414.482	114
414.705	111
414.928	116
415.151	98
415.374	114
415.597	116
415.821	114
416.044	113
416.267	121
416.49	109
416.713	115
416.936	117
417.159	106
417.382	107
417.605	107
417.828	130
418.051	122
418.274	107
418.497	117
418.72	109
418.943	126
419.166	109
419.389	104
419.611	106
419.834	120
420.057	126
420.28	114
420.503	126
420.726	123
420.948	119
421.171	123
421.394	118
421.617	132
421.839	115
422.062	120
422.285	116
422.507	115
422.73	129
422.953	114
423.175	105
423.398	115
423.621	131
423.843	110
424.066	119
424.288	116
424.511	129
424.733	127
424.956	125
425.178	118
425.401	131
425.623	119
425.846	109
426.068	104
426.291	114
426.513	108
426.735	123
426.958	117
427.18	122
427.402	127
427.625	119
427.847	119
428.069	118
428.292	124
428.514	113
428.736	132
428.958	121
429.181	118
429.403	121
429.625	117
429.847	126
430.069	113
430.292	119
430.514	113
430.736	104
430.958	117
431.18	111
431.402	117
431.624	107
431.846	109
432.068	123
432.29	115
432.512	105
432.734	113
432.956	114
433.178	126
433.4	121
433.622	118
433.844	104
434.066	110
434.287	122
434.509	102
434.731	108
434.953	101
435.175	116
435.397	107
435.618	117
435.84	113
436.062	130
436.284	123
436.505	107
436.727	113
436.949	104
437.17	117
437.392	113
437.614	105
437.835	109
438.057	109
438.278	95
438.5	131
438.721	110
438.943	113
439.165	107
439.386	109
439.608	118
439.829	117
440.05	129
440.272	118
440.493	117
440.715	119
440.936	133
441.158	127
441.379	123
441.6	126
441.822	127
442.043	124
442.264	119
442.486	129
442.707	133
442.928	141
443.149	117
443.371	124
443.592	124
443.813	119
444.034	122
444.255	126
444.476	128
444.698	133
444.919	126
445.14	263
445.361	168
445.582	140
445.803	117
446.024	123
446.245	119
446.466	119
446.687	120
446.908	127
447.129	132
447.35	111
447.571	105
447.792	108
448.013	115
448.234	123
448.455	122
448.675	114
448.896	118
449.117	116
449.338	121
449.559	115
449.779	118
450	120
450.221	119
450.442	124
450.662	114
450.883	114
451.104	118
451.324	107
451.545	116
451.766	103
451.986	101
452.207	107
452.428	112
452.648	117
452.869	107
453.089	121
453.31	110
453.53	119
453.751	102
453.971	102
454.192	111
454.412	114
454.633	93
454.853	103
455.073	107
455.294	108
455.514	107
455.734	125
455.955	109
456.175	111
456.395	105
456.616	105
456.836	113
457.056	114
457.276	99
457.497	103
457.717	103
457.937	106
458.157	109
458.377	113
458.598	108
458.818	95
459.038	100
459.258	100
459.478	96
459.698	106
459.918	101
460.138	116
460.358	115
460.578	113
460.798	120
461.018	113
461.238	126
461.458	116
461.678	110
461.898	137
462.118	125
462.338	131
462.558	107
462.777	113
462.997	135
463.217	133
463.437	121
463.657	115
463.876	116
464.096	113
464.316	122
464.536	118
464.755	113
464.975	114
465.195	125
465.414	124
465.634	121
465.854	131
466.073	121
466.293	110
466.512	122
466.732	129
466.951	117
467.171	119
467.391	131
467.61	123
467.829	105
468.049	137
468.268	125
468.488	125
468.707	121
468.927	116
469.146	134
469.365	118
469.585	116
469.804	116
470.023	129
470.243	130
470.462	146
470.681	127
470.901	116
471.12	137
471.339	127
471.558	124
471.777	125
471.997	123
472.216	126
472.435	136
472.654	101
472.873	121
473.092	118
473.311	119
473.53	123
473.749	120
473.968	118
474.187	119
474.406	129
474.625	120
474.844	131
475.063	127
475.282	120
475.501	127
475.72	131
475.939	126
476.158	122
476.377	138
476.596	120
476.814	125
477.033	111
477.252	113
477.471	120
477.69	121
477.908	122
478.127	127
478.346	144
478.564	122
478.783	121
479.002	127
479.22	120
479.439	131
479.658	131
479.876	140
480.095	129
480.313	105
480.532	123
480.751	120
480.969	114
481.188	109
481.406	104
481.624	107
481.843	124
482.061	103
482.28	114
482.498	118
482.717	117
482.935	131
483.153	137
483.372	124
483.59	133
483.808	139
484.027	129
484.245	126
484.463	129
484.681	126
484.9	122
485.118	135
485.336	133
485.554	128
485.772	113
485.99	113
486.209	113
486.427	128
486.645	130
486.863	124
487.081	123
487.299	131
487.517	126
487.735	143
487.953	153
488.171	161
488.389	139
488.607	125
488.825	123
489.043	119
489.261	134
489.479	146
489.696	135
489.914	142
490.132	133
490.35	142
490.568	128
490.786	149
491.003	147
491.221	149
491.439	162
491.657	147
491.874	178
492.092	171
492.31	173
492.527	181
492.745	151
492.963	161
493.18	176
493.398	159
493.615	159
493.833	150
494.05	150
494.268	153
494.485	149
494.703	148
494.92	146
495.138	127
495.355	150
495.573	162
495.79	148
496.008	158
496.225	154
496.442	155
496.66	159
496.877	140
497.094	161
497.312	155
497.529	157
497.746	162
497.963	134
498.181	137
498.398	133
498.615	153
498.832	163
499.049	138
499.267	152
499.484	167
499.701	185
499.918	196
500.135	206
500.352	242
500.569	233
500.786	234
501.003	239
501.22	200
501.437	189
501.654	177
501.871	159
502.088	162
502.305	167
502.522	154
502.739	151
502.956	156
503.172	147
503.389	133
503.606	134
503.823	128
504.04	147
504.256	129
504.473	137
504.69	140
504.907	149
505.123	140
505.34	137
505.557	133
505.773	126
505.99	135
506.207	139
506.423	123
506.64	129
506.856	126
507.073	121
507.289	129
507.506	137
507.722	115
507.939	147
508.155	120
508.372	133
508.588	125
508.805	119
509.021	129
509.238	112
509.454	122
509.67	92
509.887	107
510.103	118
510.319	129
510.536	101
510.752	106
510.968	123
511.184	107
511.401	116
511.617	108
511.833	125
512.049	114
512.265	102
512.481	104
512.698	114
512.914	118
513.13	121
513.346	130
513.562	122
513.778	105
513.994	115
514.21	125
514.426	123
514.642	117
514.858	122
515.074	114
515.29	126
515.506	98
515.721	122
515.937	116
516.153	117
516.369	108
516.585	127
516.801	121
517.016	122
517.232	116
517.448	139
517.664	129
517.879	133
518.095	124
518.311	129
518.527	131
518.742	140
518.958	123
519.173	121
519.389	111
519.605	117
519.82	134
520.036	115
520.251	115
520.467	122
520.682	115
520.898	116
521.113	108
521.329	124
521.544	113
521.76	112
521.975	105
522.19	124
522.406	115
522.621	129
522.836	117
523.052	110
523.267	127
523.482	111
523.698	133
523.913	127
524.128	121
524.343	117
524.559	122
524.774	129
524.989	114
525.204	125
525.419	139
525.634	121
525.849	120
526.064	116
526.28	115
526.495	114
526.71	104
526.925	102
527.14	105
527.355	120
527.57	125
527.785	105
527.999	119
528.214	126
528.429	106
528.644	131
528.859	151
529.074	131
529.289	132
529.503	156
529.718	121
529.933	121
530.148	121
530.363	103
530.577	90
530.792	106
531.007	104
531.221	120
531.436	118
531.651	105
531.865	118
532.08	111
532.295	115
532.509	111
532.724	121
532.938	105
533.153	122
533.367	133
533.582	117
533.796	125
534.011	127
534.225	107
534.44	115
534.654	113
534.868	102
535.083	114
535.297	113
535.511	115
535.726	138
535.94	118
536.154	101
536.369	101
536.583	117
536.797	119
537.011	103
537.225	108
537.44	103
537.654	115
537.868	121
538.082	118
538.296	109
538.51	112
538.724	112
538.938	117
539.153	122
539.367	124
539.581	123
539.795	122
540.009	115
540.222	114
540.436	117
540.65	103
540.864	132
541.078	120
541.292	125
541.506	130
541.72	148
541.934	146
542.147	148
542.361	141
542.575	129
542.789	141
543.002	125
543.216	106
543.43	111
543.644	126
543.857	120
544.071	142
544.285	131
544.498	151
544.712	132
544.925	133
545.139	136
545.352	145
545.566	137
545.779	138
545.993	139
546.206	153
546.42	147
546.633	145
546.847	131
547.06	137
547.274	127
547.487	133
547.7	134
547.914	140
548.127	136
548.34	138
548.554	127
548.767	147
548.98	129
549.193	139
549.407	133
549.62	137
549.833	133
550.046	137
550.259	149
550.473	129
550.686	138
550.899	131
551.112	122
551.325	129
551.538	135
551.751	118
551.964	131
552.177	119
552.39	115
552.603	136
552.816	135
553.029	135
553.242	126
553.455	143
553.667	141
553.88	123
554.093	132
554.306	130
554.519	124
554.732	147
554.944	129
555.157	117
555.37	126
555.583	133
555.795	121
556.008	126
556.221	105
556.433	114
556.646	122
556.859	129
557.071	113
557.284	113
557.496	126
557.709	122
557.921	130
558.134	133
558.346	121
558.559	117
558.771	116
558.984	110
559.196	125
559.409	121
559.621	116
559.833	119
560.046	126
560.258	120
560.47	119
560.683	119
560.895	110
561.107	120
561.32	109
561.532	122
561.744	116
561.956	125
562.168	121
562.381	114
562.593	117
562.805	121
563.017	116
563.229	129
563.441	122
563.653	129
563.865	115
564.077	109
564.289	116
564.501	124
564.713	126
564.925	113
565.137	117
565.349	115
565.561	131
565.773	110
565.985	115
566.197	114
566.408	121
566.62	128
566.832	125
567.044	125
567.255	117
567.467	135
567.679	126
567.891	130
568.102	129
568.314	119
568.526	129
568.737	116
568.949	118
569.161	111
569.372	109
569.584	97
569.795	119
570.007	106
570.218	104
570.43	100
570.641	108
570.853	109
571.064	102
571.276	121
571.487	129
571.698	108
571.91	93
572.121	117
572.333	117
572.544	100
572.755	108
572.966	93
573.178	99
573.389	119
573.6	100
573.811	105
574.023	100
574.234	93
574.445	90
574.656	98
574.867	101
575.078	108
575.289	99
575.501	94
575.712	93
575.923	100
576.134	93
576.345	109
576.556	89
576.767	102
576.978	102
577.188	101
577.399	100
577.61	99
577.821	100
578.032	97
578.243	101
578.454	93
578.665	108
578.875	114
579.086	105
579.297	105
579.508	99
579.718	96
579.929	104
580.14	95
580.35	110
580.561	103
580.772	99
580.982	99
581.193	94
581.403	99
581.614	108
581.825	109
582.035	96
582.246	99
582.456	101
582.667	101
582.877	92
583.087	86
583.298	95
583.508	101
583.719	77
583.929	93
584.139	101
584.35	96
584.56	101
584.77	92
584.981	115
585.191	81
585.401	110
585.611	99
585.821	84
586.032	93
586.242	90
586.452	85
586.662	92
586.872	109
587.082	109
587.292	97
587.502	115
587.713	110
587.923	110
588.133	93
588.343	86
588.553	78
588.762	101
588.972	93
589.182	92
589.392	103
589.602	106
589.812	95
590.022	106
590.232	97
590.441	101
590.651	97
590.861	89
591.071	103
591.281	99
591.49	92
591.7	99
591.91	95
592.119	101
592.329	84
592.539	111
592.748	110
592.958	96
593.167	99
593.377	107
593.587	112
593.796	101
594.006	101
594.215	99
594.424	93
594.634	104
594.843	117
595.053	113
595.262	104
595.472	103
595.681	105
595.89	100
596.1	82
596.309	93
596.518	108
596.727	104
596.937	94
597.146	99
597.355	90
597.564	84
597.774	101
597.983	91
598.192	97
598.401	101
598.61	106
598.819	96
599.028	103
599.237	87
599.446	91
599.655	102
599.864	90
600.073	97
600.282	107
600.491	104
600.7	97
600.909	78
601.118	100
601.327	106
601.536	89
601.745	91
601.953	91
602.162	93
602.371	99
602.58	99
602.789	93
602.997	114
603.206	85
603.415	92
603.623	76
603.832	103
604.041	116
604.249	79
604.458	102
604.666	104
604.875	85
605.084	105
605.292	85
605.501	96
605.709	95
605.918	113
606.126	94
606.334	104
606.543	103
606.751	102
606.96	106
607.168	94
607.376	94
607.585	92
607.793	94
608.001	107
608.21	102
608.418	93
608.626	107
608.834	94
609.043	107
609.251	94
609.459	102
609.667	109
609.875	92
610.083	87
610.291	94
610.499	93
610.707	102
610.916	97
611.124	92
611.332	104
611.54	94
611.748	102
611.955	106
612.163	72
612.371	83
612.579	96
612.787	85
612.995	85
613.203	94
613.411	98
613.618	102
613.826	103
614.034	109
614.242	101
614.449	100
614.657	98
614.865	98
615.072	107
615.28	85
615.488	106
615.695	93
615.903	110
616.111	108
616.318	95
616.526	95
616.733	99
616.941	97
617.148	108
617.356	106
617.563	100
617.771	100
617.978	114
618.185	95
618.393	100
618.6	102
618.807	93
619.015	109
619.222	102
619.429	95
619.637	101
619.844	82
620.051	94
620.258	92
620.466	98
620.673	110
620.88	88
621.087	96
621.294	78
621.501	83
621.708	108
621.915	95
622.122	107
622.329	104
622.536	94
622.743	107
622.95	90
623.157	86
623.364	88
623.571	85
623.778	85
623.985	89
624.192	98
624.399	102
624.606	99
624.812	94
625.019	108
625.226	89
625.433	105
625.639	103
625.846	98
626.053	92
626.259	90
626.466	95
626.673	88
626.879	100
627.086	84
627.293	106
627.499	86
627.706	102
627.912	98
628.119	84
628.325	102
628.532	82
628.738	91
628.945	100
629.151	99
629.357	86
629.564	95
629.77	95
629.976	110
630.183	85
630.389	89
630.595	110
630.802	99
631.008	90
631.214	92
631.42	88
631.627	92
631.833	93
632.039	93
632.245	103
632.451	89
632.657	85
632.863	95
633.069	93
633.275	85
633.481	96
633.688	97
633.893	93
634.099	80
634.305	92
634.511	90
634.717	98
634.923	86
635.129	91
635.335	81
635.541	91
635.747	93
635.952	91
636.158	87
636.364	89
636.57	81
636.775	97
636.981	95
637.187	99
637.392	99
637.598	110
637.804	94
638.009	78
638.215	96
638.421	106
638.626	101
638.832	101
639.037	90
639.243	103
639.448	102
639.654	100
639.859	78
640.065	90
640.27	121
640.475	95
640.681	113
640.886	95
641.091	89
641.297	93
641.502	93
641.707	98
641.913	103
642.118	104
642.323	87
642.528	92
642.733	102
642.939	100
643.144	91
643.349	87
643.554	87
643.759	84
643.964	82
644.169	93
644.374	102
644.579	84
644.784	94
644.989	86
645.194	88
645.399	77
645.604	99
645.809	100
646.014	89
646.219	93
646.423	101
646.628	110
646.833	96
647.038	93
647.243	85
647.447	95
647.652	101
647.857	75
648.062	98
648.266	101
648.471	97
648.676	95
648.88	100
649.085	103
649.289	98
649.494	104
649.698	90
649.903	88
650.107	93
650.312	97
650.516	88
650.721	88
650.925	74
651.13	69
651.334	98
651.539	82
651.743	101
651.947	97
652.152	89
652.356	89
652.56	83
652.764	79
652.969	87
653.173	94
653.377	97
653.581	97
653.785	90
653.99	89
654.194	92
654.398	91
654.602	87
654.806	83
655.01	83
655.214	76
655.418	95
655.622	101
655.826	82
656.03	94
656.234	99
656.438	83
656.642	79
656.846	93
657.049	92
657.253	104
657.457	97
657.661	95
657.865	90
658.068	81
658.272	93
658.476	86
658.68	94
658.883	79
659.087	84
659.291	94
659.494	95
659.698	102
659.901	79
660.105	82
660.309	68
660.512	86
660.716	89
660.919	91
661.123	84
661.326	91
661.53	91
661.733	85
661.936	86
662.14	85
662.343	77
662.546	76
662.75	89
662.953	82
663.156	79
663.36	87
663.563	94
663.766	89
663.969	98
664.173	81
664.376	91
664.579	84
664.782	88
664.985	86
665.188	89
665.391	81
665.594	94
665.797	84
666	79
666.203	94
666.406	79
666.609	79
666.812	95
667.015	92
667.218	75
667.421	88
667.624	76
667.827	81
668.03	81
668.232	75
668.435	81
668.638	87
668.841	91
669.043	79
669.246	85
669.449	94
669.651	82
669.854	85
670.057	79
670.259	82
670.462	80
670.665	93
670.867	87
671.07	96
671.272	99
671.475	82
671.677	99
671.88	81
672.082	86
672.284	84
672.487	83
672.689	78
672.892	101
