Data from StandardFe(NO3)3.TAE.3%Agarose.FlatLispGreen.Lamp.Energy10.07252019_HRD10591_11-55-19-440.txt Node
Date: Thu Jul 25 11:55:19 EDT 2019
User: cochatt
Spectrometer: HR+D1059
Trigger mode: 1
Integration Time (sec): 1.000000E-1
Scans to average: 1
Electric dark correction enabled: true
Nonlinearity correction enabled: false
Boxcar width: 0
XAxis mode: Wavelengths
Number of Pixels in Spectrum: 2048
>>>>>Begin Spectral Data<<<<<
223.165	-19
223.4	-19
223.635	-19
223.869	-19
224.104	-5
224.338	-14
224.573	-26
224.808	-5
225.042	-5
225.277	-10
225.511	1
225.746	-10
225.98	9
226.215	8
226.449	5
226.683	27
226.918	36
227.152	27
227.387	35
227.621	44
227.856	36
228.09	53
228.324	46
228.559	58
228.793	55
229.027	59
229.262	67
229.496	71
229.73	74
229.964	53
230.199	89
230.433	86
230.667	76
230.901	78
231.136	83
231.37	83
231.604	72
231.838	85
232.072	90
232.306	101
232.541	79
232.775	76
233.009	68
233.243	80
233.477	80
233.711	84
233.945	87
234.179	79
234.413	88
234.647	87
234.881	97
235.115	79
235.349	92
235.583	84
235.817	77
236.051	73
236.285	78
236.519	83
236.753	79
236.987	70
237.221	65
237.455	86
237.689	69
237.922	69
238.156	69
238.39	58
238.624	75
238.858	72
239.091	78
239.325	96
239.559	84
239.793	82
240.027	79
240.26	82
240.494	69
240.728	79
240.961	78
241.195	73
241.429	77
241.662	85
241.896	70
242.13	77
242.363	76
242.597	72
242.83	84
243.064	77
243.298	73
243.531	77
243.765	92
243.998	88
244.232	81
244.465	78
244.699	73
244.932	74
245.166	69
245.399	85
245.633	63
245.866	74
246.099	77
246.333	68
246.566	66
246.8	85
247.033	79
247.266	78
247.5	89
247.733	91
247.966	71
248.2	73
248.433	83
248.666	75
248.899	76
249.133	85
249.366	81
249.599	92
249.832	83
250.066	85
250.299	90
250.532	89
250.765	79
250.998	83
251.231	84
251.465	80
251.698	78
251.931	87
252.164	87
252.397	77
252.63	90
252.863	79
253.096	77
253.329	72
253.562	70
253.795	74
254.028	90
254.261	87
254.494	81
254.727	80
254.96	82
255.193	82
255.426	74
255.659	84
255.892	80
256.124	80
256.357	72
256.59	77
256.823	78
257.056	77
257.289	99
257.521	81
257.754	84
257.987	83
258.22	89
258.452	89
258.685	78
258.918	83
259.151	75
259.383	77
259.616	79
259.849	84
260.081	77
260.314	95
260.547	83
260.779	80
261.012	88
261.244	74
261.477	94
261.71	78
261.942	77
262.175	88
262.407	88
262.64	77
262.872	84
263.105	94
263.337	94
263.57	76
263.802	79
264.035	88
264.267	89
264.499	71
264.732	88
264.964	79
265.197	86
265.429	83
265.661	84
265.894	80
266.126	78
266.358	78
266.591	81
266.823	83
267.055	83
267.287	76
267.52	76
267.752	92
267.984	85
268.216	80
268.448	100
268.681	80
268.913	82
269.145	77
269.377	85
269.609	75
269.841	88
270.073	85
270.306	77
270.538	64
270.77	66
271.002	79
271.234	84
271.466	83
271.698	78
271.93	82
272.162	76
272.394	100
272.626	75
272.858	81
273.09	83
273.322	92
273.553	89
273.785	87
274.017	83
274.249	89
274.481	90
274.713	84
274.945	86
275.176	74
275.408	85
275.64	83
275.872	73
276.104	85
276.335	98
276.567	94
276.799	99
277.031	82
277.262	89
277.494	83
277.726	83
277.957	85
278.189	90
278.421	93
278.652	90
278.884	77
279.115	86
279.347	82
279.579	75
279.81	79
280.042	79
280.273	85
280.505	63
280.736	85
280.968	105
281.199	86
281.431	99
281.662	80
281.894	82
282.125	76
282.356	90
282.588	81
282.819	89
283.051	94
283.282	91
283.513	87
283.745	92
283.976	95
284.207	90
284.439	76
284.67	81
284.901	86
285.132	76
285.364	92
285.595	94
285.826	88
286.057	82
286.288	75
286.52	69
286.751	81
286.982	92
287.213	73
287.444	94
287.675	97
287.906	89
288.138	89
288.369	86
288.6	77
288.831	82
289.062	84
289.293	86
289.524	82
289.755	86
289.986	88
290.217	86
290.448	95
290.679	93
290.91	91
291.141	90
291.371	78
291.602	83
291.833	100
292.064	84
292.295	85
292.526	77
292.757	81
292.987	98
293.218	93
293.449	82
293.68	88
293.91	76
294.141	100
294.372	85
294.603	93
294.833	104
295.064	74
295.295	89
295.525	85
295.756	87
295.987	70
296.217	80
296.448	80
296.679	86
296.909	85
297.14	83
297.37	97
297.601	80
297.831	89
298.062	86
298.292	87
298.523	95
298.753	85
298.984	86
299.214	83
299.445	98
299.675	78
299.905	78
300.136	79
300.366	74
300.597	87
300.827	101
301.057	82
301.288	92
301.518	86
301.748	78
301.979	85
302.209	93
302.439	84
302.669	87
302.9	84
303.13	77
303.36	98
303.59	77
303.82	93
304.051	81
304.281	104
304.511	89
304.741	89
304.971	84
305.201	93
305.431	84
305.661	81
305.891	102
306.121	90
306.352	81
306.582	83
306.812	87
307.042	95
307.272	91
307.502	82
307.731	81
307.961	90
308.191	87
308.421	91
308.651	90
308.881	88
309.111	78
309.341	88
309.571	88
309.8	81
310.03	84
310.26	82
310.49	86
310.72	91
310.949	92
311.179	76
311.409	94
311.639	86
311.868	80
312.098	92
312.328	84
312.557	78
312.787	76
313.017	82
313.246	103
313.476	80
313.706	89
313.935	80
314.165	73
314.394	85
314.624	94
314.853	90
315.083	86
315.312	88
315.542	86
315.771	93
316.001	101
316.23	99
316.46	79
316.689	92
316.919	96
317.148	86
317.377	102
317.607	100
317.836	87
318.065	88
318.295	106
318.524	83
318.753	90
318.983	87
319.212	81
319.441	96
319.67	91
319.9	90
320.129	79
320.358	83
320.587	86
320.816	90
321.046	95
321.275	86
321.504	85
321.733	71
321.962	92
322.191	78
322.42	78
322.649	81
322.878	94
323.108	114
323.337	89
323.566	87
323.795	91
324.024	100
324.253	77
324.482	98
324.71	89
324.939	90
325.168	93
325.397	85
325.626	85
325.855	89
326.084	102
326.313	72
326.542	82
326.77	79
326.999	83
327.228	89
327.457	85
327.686	97
327.914	98
328.143	94
328.372	100
328.6	79
328.829	83
329.058	85
329.287	81
329.515	86
329.744	78
329.972	85
330.201	94
330.43	84
330.658	91
330.887	85
331.115	79
331.344	93
331.572	83
331.801	85
332.03	90
332.258	95
332.486	92
332.715	84
332.943	83
333.172	90
333.4	85
333.629	90
333.857	98
334.085	90
334.314	83
334.542	76
334.771	78
334.999	91
335.227	93
335.455	74
335.684	90
335.912	91
336.14	85
336.369	88
336.597	89
336.825	81
337.053	90
337.281	93
337.51	74
337.738	94
337.966	86
338.194	79
338.422	86
338.65	92
338.878	94
339.106	92
339.334	94
339.562	75
339.79	85
340.018	90
340.246	79
340.474	88
340.702	79
340.93	79
341.158	86
341.386	85
341.614	80
341.842	74
342.07	79
342.298	88
342.526	81
342.754	69
342.981	74
343.209	76
343.437	93
343.665	94
343.893	98
344.12	85
344.348	84
344.576	100
344.804	99
345.031	80
345.259	89
345.487	82
345.714	86
345.942	81
346.17	94
346.397	85
346.625	84
346.853	95
347.08	101
347.308	89
347.535	91
347.763	82
347.99	70
348.218	89
348.445	65
348.673	89
348.9	90
349.128	101
349.355	89
349.583	86
349.81	86
350.037	82
350.265	92
350.492	85
350.72	84
350.947	86
351.174	101
351.402	80
351.629	76
351.856	93
352.083	82
352.311	85
352.538	87
352.765	97
352.992	93
353.22	93
353.447	79
353.674	92
353.901	72
354.128	95
354.355	96
354.583	90
354.81	83
355.037	77
355.264	79
355.491	80
355.718	86
355.945	95
356.172	94
356.399	83
356.626	97
356.853	87
357.08	91
357.307	83
357.534	87
357.761	92
357.988	86
358.215	93
358.441	81
358.668	91
358.895	91
359.122	79
359.349	78
359.576	82
359.802	81
360.029	71
360.256	84
360.483	83
360.709	85
360.936	90
361.163	97
361.39	85
361.616	92
361.843	101
362.07	83
362.296	84
362.523	86
362.749	78
362.976	83
363.203	87
363.429	91
363.656	82
363.882	86
364.109	84
364.335	91
364.562	99
364.788	92
365.015	76
365.241	94
365.468	100
365.694	92
365.92	102
366.147	85
366.373	88
366.599	91
366.826	89
367.052	84
367.278	91
367.505	74
367.731	93
367.957	84
368.184	87
368.41	93
368.636	99
368.862	84
369.089	78
369.315	94
369.541	94
369.767	92
369.993	95
370.219	90
370.445	69
370.672	78
370.898	98
371.124	80
371.35	82
371.576	83
371.802	97
372.028	83
372.254	85
372.48	63
372.706	90
372.932	99
373.158	99
373.384	93
373.61	93
373.835	90
374.061	81
374.287	83
374.513	70
374.739	81
374.965	79
375.191	92
375.416	78
375.642	95
375.868	104
376.094	85
376.319	109
376.545	87
376.771	86
376.997	98
377.222	78
377.448	79
377.674	97
377.899	91
378.125	78
378.35	80
378.576	75
378.802	94
379.027	101
379.253	91
379.478	85
379.704	102
379.929	87
380.155	87
380.38	96
380.606	101
380.831	104
381.057	96
381.282	90
381.507	98
381.733	92
381.958	97
382.184	85
382.409	99
382.634	84
382.86	86
383.085	85
383.31	83
383.535	103
383.761	94
383.986	91
384.211	88
384.436	93
384.662	85
384.887	100
385.112	86
385.337	82
385.562	86
385.787	96
386.013	97
386.238	101
386.463	100
386.688	85
386.913	96
387.138	91
387.363	92
387.588	95
387.813	101
388.038	102
388.263	94
388.488	95
388.713	81
388.938	100
389.163	103
389.387	75
389.612	82
389.837	102
390.062	101
390.287	106
390.512	101
390.736	86
390.961	95
391.186	89
391.411	104
391.636	99
391.86	99
392.085	94
392.31	97
392.534	95
392.759	103
392.984	95
393.208	100
393.433	95
393.658	99
393.882	107
394.107	105
394.331	96
394.556	93
394.78	95
395.005	90
395.229	99
395.454	108
395.678	91
395.903	99
396.127	105
396.352	101
396.576	95
396.801	87
397.025	84
397.249	103
397.474	109
397.698	110
397.922	105
398.147	92
398.371	104
398.595	108
398.82	98
399.044	108
399.268	110
399.492	120
399.717	121
399.941	114
400.165	100
400.389	102
400.613	96
400.837	101
401.062	105
401.286	96
401.51	99
401.734	120
401.958	99
402.182	111
402.406	103
402.63	104
402.854	102
403.078	108
403.302	108
403.526	125
403.75	97
403.974	102
404.198	108
404.422	101
404.645	116
404.869	101
405.093	115
405.317	113
405.541	108
405.765	99
405.988	99
406.212	98
406.436	116
406.66	104
406.883	126
407.107	113
407.331	111
407.555	98
407.778	110
408.002	111
408.226	121
408.449	113
408.673	115
408.896	102
409.12	101
409.344	106
409.567	115
409.791	103
410.014	107
410.238	99
410.461	113
410.685	110
410.908	95
411.132	123
411.355	115
411.578	102
411.802	99
412.025	109
412.249	119
412.472	119
412.695	108
412.919	121
413.142	107
413.365	115
413.589	109
413.812	102
414.035	105
414.258	95
414.482	121
414.705	112
414.928	124
415.151	110
415.374	107
415.597	103
415.821	121
416.044	97
416.267	124
416.49	106
416.713	115
416.936	124
417.159	110
417.382	113
417.605	111
417.828	118
418.051	109
418.274	117
418.497	114
418.72	109
418.943	125
419.166	125
419.389	121
419.611	118
419.834	123
420.057	110
420.28	96
420.503	107
420.726	113
420.948	124
421.171	117
421.394	133
421.617	113
421.839	123
422.062	111
422.285	110
422.507	112
422.73	115
422.953	113
423.175	118
423.398	112
423.621	125
423.843	105
424.066	99
424.288	121
424.511	121
424.733	124
424.956	117
425.178	115
425.401	129
425.623	112
425.846	118
426.068	112
426.291	115
426.513	130
426.735	122
426.958	98
427.18	126
427.402	115
427.625	108
427.847	115
428.069	115
428.292	105
428.514	117
428.736	101
428.958	118
429.181	129
429.403	115
429.625	113
429.847	123
430.069	98
430.292	93
430.514	116
430.736	113
430.958	117
431.18	103
431.402	102
431.624	88
431.846	105
432.068	95
432.29	88
432.512	110
432.734	87
432.956	126
433.178	119
433.4	100
433.622	116
433.844	124
434.066	120
434.287	103
434.509	89
434.731	118
434.953	109
435.175	112
435.397	129
435.618	103
435.84	117
436.062	106
436.284	100
436.505	119
436.727	117
436.949	105
437.17	123
437.392	119
437.614	94
437.835	105
438.057	101
438.278	109
438.5	113
438.721	108
438.943	113
439.165	120
439.386	119
439.608	96
439.829	99
440.05	123
440.272	139
440.493	107
440.715	97
440.936	129
441.158	130
441.379	118
441.6	94
441.822	112
442.043	117
442.264	106
442.486	125
442.707	121
442.928	125
443.149	136
443.371	127
443.592	103
443.813	118
444.034	101
444.255	128
444.476	120
444.698	135
444.919	129
445.14	241
445.361	183
445.582	126
445.803	129
446.024	122
446.245	131
446.466	118
446.687	125
446.908	125
447.129	125
447.35	128
447.571	105
447.792	121
448.013	123
448.234	126
448.455	114
448.675	119
448.896	99
449.117	118
449.338	125
449.559	108
449.779	112
450	105
450.221	117
450.442	129
450.662	109
450.883	111
451.104	103
451.324	103
451.545	109
451.766	119
451.986	107
452.207	119
452.428	113
452.648	97
452.869	97
453.089	100
453.31	110
453.53	113
453.751	104
453.971	104
454.192	101
454.412	107
454.633	107
454.853	122
455.073	116
455.294	130
455.514	110
455.734	102
455.955	102
456.175	116
456.395	106
456.616	112
456.836	92
457.056	110
457.276	101
457.497	100
457.717	115
457.937	99
458.157	115
458.377	87
458.598	102
458.818	94
459.038	98
459.258	117
459.478	106
459.698	98
459.918	103
460.138	121
460.358	100
460.578	116
460.798	101
461.018	122
461.238	119
461.458	104
461.678	119
461.898	129
462.118	122
462.338	119
462.558	127
462.777	124
462.997	122
463.217	121
463.437	121
463.657	123
463.876	125
464.096	115
464.316	115
464.536	129
464.755	114
464.975	104
465.195	123
465.414	121
465.634	122
465.854	115
466.073	119
466.293	117
466.512	111
466.732	113
466.951	111
467.171	108
467.391	104
467.61	114
467.829	110
468.049	119
468.268	125
468.488	106
468.707	106
468.927	103
469.146	121
469.365	118
469.585	128
469.804	141
470.023	124
470.243	122
470.462	127
470.681	125
470.901	120
471.12	104
471.339	111
471.558	120
471.777	118
471.997	111
472.216	111
472.435	122
472.654	113
472.873	98
473.092	116
473.311	93
473.53	101
473.749	123
473.968	117
474.187	123
474.406	103
474.625	113
474.844	111
475.063	124
475.282	112
475.501	106
475.72	118
475.939	117
476.158	103
476.377	125
476.596	111
476.814	107
477.033	110
477.252	117
477.471	113
477.69	122
477.908	118
478.127	124
478.346	125
478.564	105
478.783	110
479.002	126
479.22	113
479.439	129
479.658	121
479.876	125
480.095	118
480.313	124
480.532	121
480.751	114
480.969	108
481.188	101
481.406	114
481.624	106
481.843	125
482.061	99
482.28	115
482.498	116
482.717	127
482.935	116
483.153	129
483.372	122
483.59	126
483.808	133
484.027	126
484.245	119
484.463	123
484.681	142
484.9	117
485.118	118
485.336	131
485.554	133
485.772	110
485.99	131
486.209	120
486.427	105
486.645	105
486.863	128
487.081	137
487.299	120
487.517	143
487.735	138
487.953	147
488.171	155
488.389	137
488.607	128
488.825	123
489.043	116
489.261	123
489.479	129
489.696	141
489.914	133
490.132	121
490.35	131
490.568	147
490.786	139
491.003	148
491.221	144
491.439	160
491.657	148
491.874	153
492.092	141
492.31	171
492.527	154
492.745	148
492.963	165
493.18	143
493.398	146
493.615	139
493.833	159
494.05	136
494.268	131
494.485	145
494.703	137
494.92	131
495.138	136
495.355	147
495.573	151
495.79	147
496.008	140
496.225	142
496.442	144
496.66	151
496.877	128
497.094	141
497.312	153
497.529	137
497.746	137
497.963	134
498.181	144
498.398	158
498.615	137
498.832	121
499.049	146
499.267	147
499.484	166
499.701	166
499.918	174
500.135	190
500.352	216
500.569	214
500.786	227
501.003	202
501.22	179
501.437	186
501.654	177
501.871	162
502.088	158
502.305	145
502.522	129
502.739	141
502.956	148
503.172	124
503.389	130
503.606	143
503.823	143
504.04	140
504.256	121
504.473	128
504.69	130
504.907	140
505.123	140
505.34	120
505.557	126
505.773	130
505.99	123
506.207	141
506.423	113
506.64	131
506.856	125
507.073	122
507.289	115
507.506	125
507.722	127
507.939	127
508.155	124
508.372	126
508.588	116
508.805	131
509.021	127
509.238	101
509.454	125
509.67	117
509.887	106
510.103	115
510.319	132
510.536	122
510.752	124
510.968	113
511.184	110
511.401	109
511.617	115
511.833	119
512.049	122
512.265	115
512.481	119
512.698	126
512.914	118
513.13	106
513.346	123
513.562	119
513.778	115
513.994	110
514.21	110
514.426	99
514.642	113
514.858	107
515.074	105
515.29	116
515.506	115
515.721	125
515.937	121
516.153	138
516.369	117
516.585	128
516.801	126
517.016	109
517.232	131
517.448	121
517.664	121
517.879	127
518.095	135
518.311	122
518.527	129
518.742	109
518.958	117
519.173	124
519.389	123
519.605	118
519.82	117
520.036	127
520.251	115
520.467	115
520.682	103
520.898	102
521.113	130
521.329	116
521.544	114
521.76	119
521.975	116
522.19	113
522.406	100
522.621	124
522.836	129
523.052	130
523.267	116
523.482	127
523.698	114
523.913	128
524.128	105
524.343	108
524.559	124
524.774	121
524.989	122
525.204	116
525.419	114
525.634	122
525.849	116
526.064	108
526.28	109
526.495	121
526.71	113
526.925	93
527.14	124
527.355	95
527.57	104
527.785	114
527.999	109
528.214	110
528.429	121
528.644	119
528.859	118
529.074	130
529.289	133
529.503	114
529.718	122
529.933	118
530.148	107
530.363	118
530.577	104
530.792	106
531.007	110
531.221	104
531.436	116
531.651	102
531.865	103
532.08	113
532.295	101
532.509	112
532.724	123
532.938	117
533.153	129
533.367	127
533.582	119
533.796	125
534.011	117
534.225	116
534.44	108
534.654	108
534.868	119
535.083	112
535.297	117
535.511	118
535.726	127
535.94	110
536.154	122
536.369	117
536.583	105
536.797	115
537.011	123
537.225	104
537.44	111
537.654	106
537.868	103
538.082	113
538.296	114
538.51	120
538.724	105
538.938	129
539.153	120
539.367	119
539.581	104
539.795	93
540.009	107
540.222	113
540.436	103
540.65	109
540.864	115
541.078	135
541.292	130
541.506	133
541.72	124
541.934	141
542.147	134
542.361	147
542.575	147
542.789	122
543.002	122
543.216	113
543.43	116
543.644	133
543.857	113
544.071	132
544.285	129
544.498	120
544.712	126
544.925	123
545.139	133
545.352	127
545.566	142
545.779	135
545.993	132
546.206	137
546.42	131
546.633	138
546.847	129
547.06	128
547.274	133
547.487	133
547.7	130
547.914	140
548.127	126
548.34	137
548.554	130
548.767	124
548.98	134
549.193	133
549.407	122
549.62	115
549.833	149
550.046	129
550.259	123
550.473	116
550.686	129
550.899	136
551.112	127
551.325	129
551.538	121
551.751	123
551.964	128
552.177	126
552.39	116
552.603	117
552.816	120
553.029	148
553.242	128
553.455	142
553.667	154
553.88	144
554.093	124
554.306	124
554.519	131
554.732	115
554.944	131
555.157	125
555.37	107
555.583	124
555.795	129
556.008	129
556.221	129
556.433	126
556.646	101
556.859	117
557.071	103
557.284	133
557.496	115
557.709	121
557.921	122
558.134	120
558.346	121
558.559	120
558.771	129
558.984	137
559.196	128
559.409	115
559.621	118
559.833	111
560.046	105
560.258	115
560.47	108
560.683	117
560.895	118
561.107	131
561.32	125
561.532	94
561.744	114
561.956	124
562.168	101
562.381	119
562.593	121
562.805	114
563.017	107
563.229	118
563.441	109
563.653	107
563.865	103
564.077	105
564.289	106
564.501	119
564.713	117
564.925	126
565.137	108
565.349	131
565.561	112
565.773	113
565.985	116
566.197	122
566.408	115
566.62	119
566.832	122
567.044	123
567.255	125
567.467	121
567.679	114
567.891	131
568.102	106
568.314	120
568.526	117
568.737	115
568.949	111
569.161	101
569.372	102
569.584	96
569.795	106
570.007	110
570.218	115
570.43	113
570.641	107
570.853	110
571.064	102
571.276	107
571.487	113
571.698	112
571.91	101
572.121	84
572.333	104
572.544	95
572.755	106
572.966	100
573.178	88
573.389	117
573.6	103
573.811	99
574.023	87
574.234	89
574.445	100
574.656	101
574.867	106
575.078	87
575.289	88
575.501	109
575.712	110
575.923	94
576.134	91
576.345	105
576.556	98
576.767	98
576.978	105
577.188	91
577.399	101
577.61	73
577.821	89
578.032	103
578.243	92
578.454	94
578.665	83
578.875	90
579.086	96
579.297	104
579.508	98
579.718	87
579.929	114
580.14	91
580.35	103
580.561	107
580.772	85
580.982	84
581.193	94
581.403	94
581.614	94
581.825	93
582.035	105
582.246	91
582.456	90
582.667	85
582.877	103
583.087	105
583.298	100
583.508	109
583.719	105
583.929	109
584.139	90
584.35	102
584.56	104
584.77	99
584.981	94
585.191	99
585.401	101
585.611	82
585.821	103
586.032	104
586.242	77
586.452	106
586.662	94
586.872	100
587.082	106
587.292	103
587.502	76
587.713	102
587.923	101
588.133	92
588.343	104
588.553	106
588.762	88
588.972	97
589.182	103
589.392	91
589.602	94
589.812	100
590.022	106
590.232	105
590.441	91
590.651	93
590.861	103
591.071	102
591.281	101
591.49	103
591.7	94
591.91	94
592.119	107
592.329	98
592.539	87
592.748	94
592.958	94
593.167	108
593.377	110
593.587	110
593.796	100
594.006	111
594.215	95
594.424	102
594.634	105
594.843	97
595.053	88
595.262	102
595.472	106
595.681	105
595.89	98
596.1	98
596.309	91
596.518	115
596.727	105
596.937	102
597.146	103
597.355	90
597.564	85
597.774	89
597.983	78
598.192	91
598.401	99
598.61	104
598.819	82
599.028	100
599.237	99
599.446	93
599.655	93
599.864	85
600.073	75
600.282	83
600.491	90
600.7	106
600.909	83
601.118	89
601.327	83
601.536	87
601.745	90
601.953	94
602.162	102
602.371	101
602.58	90
602.789	85
602.997	99
603.206	96
603.415	85
603.623	94
603.832	115
604.041	113
604.249	99
604.458	101
604.666	88
604.875	94
605.084	101
605.292	86
605.501	103
605.709	91
605.918	102
606.126	102
606.334	105
606.543	94
606.751	93
606.96	93
607.168	90
607.376	84
607.585	86
607.793	104
608.001	93
608.21	103
608.418	107
608.626	87
608.834	101
609.043	93
609.251	87
609.459	109
609.667	99
609.875	95
610.083	86
610.291	71
610.499	95
610.707	104
610.916	107
611.124	98
611.332	92
611.54	97
611.748	89
611.955	94
612.163	104
612.371	98
612.579	106
612.787	87
612.995	109
613.203	88
613.411	110
613.618	113
613.826	102
614.034	81
614.242	103
614.449	95
614.657	94
614.865	90
615.072	103
615.28	96
615.488	119
615.695	79
615.903	100
616.111	110
616.318	103
616.526	101
616.733	93
616.941	84
617.148	114
617.356	108
617.563	89
617.771	106
617.978	103
618.185	105
618.393	101
618.6	92
618.807	99
619.015	96
619.222	91
619.429	104
619.637	98
619.844	101
620.051	78
620.258	93
620.466	106
620.673	93
620.88	100
621.087	85
621.294	87
621.501	87
621.708	93
621.915	97
622.122	107
622.329	89
622.536	88
622.743	99
622.95	102
623.157	109
623.364	104
623.571	93
623.778	95
623.985	95
624.192	92
624.399	101
624.606	97
624.812	91
625.019	84
625.226	97
625.433	98
625.639	108
625.846	103
626.053	84
626.259	101
626.466	95
626.673	90
626.879	92
627.086	84
627.293	81
627.499	95
627.706	113
627.912	85
628.119	94
628.325	92
628.532	92
628.738	95
628.945	84
629.151	98
629.357	98
629.564	100
629.77	93
629.976	90
630.183	97
630.389	85
630.595	105
630.802	98
631.008	88
631.214	96
631.42	95
631.627	84
631.833	95
632.039	103
632.245	92
632.451	105
632.657	90
632.863	86
633.069	106
633.275	91
633.481	110
633.688	101
633.893	91
634.099	84
634.305	92
634.511	99
634.717	92
634.923	83
635.129	97
635.335	90
635.541	102
635.747	91
635.952	68
636.158	85
636.364	87
636.57	87
636.775	98
636.981	96
637.187	97
637.392	91
637.598	98
637.804	82
638.009	105
638.215	90
638.421	96
638.626	94
638.832	103
639.037	94
639.243	103
639.448	87
639.654	87
639.859	82
640.065	85
640.27	87
640.475	101
640.681	97
640.886	91
641.091	85
641.297	93
641.502	86
641.707	95
641.913	92
642.118	95
642.323	87
642.528	93
642.733	99
642.939	93
643.144	94
643.349	87
643.554	91
643.759	96
643.964	110
644.169	92
644.374	84
644.579	94
644.784	82
644.989	97
645.194	97
645.399	93
645.604	86
645.809	89
646.014	84
646.219	75
646.423	96
646.628	83
646.833	88
647.038	98
647.243	86
647.447	95
647.652	80
647.857	95
648.062	89
648.266	96
648.471	93
648.676	103
648.88	76
649.085	95
649.289	81
649.494	93
649.698	85
649.903	99
650.107	79
650.312	93
650.516	88
650.721	98
650.925	87
651.13	105
651.334	86
651.539	94
651.743	105
651.947	96
652.152	102
652.356	94
652.56	82
652.764	81
652.969	84
653.173	86
653.377	99
653.581	86
653.785	73
653.99	93
654.194	78
654.398	83
654.602	79
654.806	99
655.01	84
655.214	90
655.418	94
655.622	107
655.826	95
656.03	92
656.234	91
656.438	90
656.642	80
656.846	85
657.049	98
657.253	90
657.457	71
657.661	73
657.865	88
658.068	91
658.272	98
658.476	93
658.68	79
658.883	80
659.087	103
659.291	76
659.494	87
659.698	85
659.901	82
660.105	86
660.309	94
660.512	82
660.716	81
660.919	89
661.123	85
661.326	77
661.53	85
661.733	91
661.936	91
662.14	85
662.343	84
662.546	90
662.75	83
662.953	70
663.156	87
663.36	89
663.563	101
663.766	80
663.969	95
664.173	97
664.376	84
664.579	76
664.782	80
664.985	70
665.188	89
665.391	84
665.594	84
665.797	78
666	79
666.203	87
666.406	79
666.609	84
666.812	93
667.015	100
667.218	94
667.421	92
667.624	88
667.827	79
668.03	84
668.232	79
668.435	76
668.638	74
668.841	69
669.043	75
669.246	83
669.449	83
669.651	90
669.854	86
670.057	81
670.259	84
670.462	85
670.665	74
670.867	77
671.07	88
671.272	83
671.475	86
671.677	94
671.88	90
672.082	82
672.284	71
672.487	96
672.689	100
672.892	84
