Data from StandardFe(NO3)3.TAE.3%Agarose.FlatLispGreen.Lamp.Energy10.07252019_HRD10591_11-54-47-440.txt Node
Date: Thu Jul 25 11:54:47 EDT 2019
User: cochatt
Spectrometer: HR+D1059
Trigger mode: 1
Integration Time (sec): 1.000000E-1
Scans to average: 1
Electric dark correction enabled: true
Nonlinearity correction enabled: false
Boxcar width: 0
XAxis mode: Wavelengths
Number of Pixels in Spectrum: 2048
>>>>>Begin Spectral Data<<<<<
223.165	-11
223.4	-11
223.635	-11
223.869	-4
224.104	2
224.338	-29
224.573	-13
224.808	-30
225.042	-8
225.277	-12
225.511	-5
225.746	10
225.98	11
226.215	9
226.449	10
226.683	23
226.918	11
227.152	36
227.387	37
227.621	32
227.856	51
228.09	46
228.324	48
228.559	43
228.793	46
229.027	63
229.262	63
229.496	66
229.73	59
229.964	72
230.199	68
230.433	75
230.667	76
230.901	75
231.136	81
231.37	92
231.604	68
231.838	80
232.072	84
232.306	75
232.541	80
232.775	90
233.009	80
233.243	81
233.477	68
233.711	70
233.945	87
234.179	91
234.413	70
234.647	93
234.881	92
235.115	77
235.349	76
235.583	74
235.817	91
236.051	74
236.285	84
236.519	83
236.753	94
236.987	84
237.221	69
237.455	74
237.689	79
237.922	74
238.156	70
238.39	75
238.624	71
238.858	60
239.091	79
239.325	68
239.559	83
239.793	78
240.027	103
240.26	76
240.494	91
240.728	87
240.961	70
241.195	78
241.429	75
241.662	82
241.896	83
242.13	75
242.363	76
242.597	80
242.83	84
243.064	75
243.298	78
243.531	85
243.765	64
243.998	82
244.232	87
244.465	73
244.699	84
244.932	65
245.166	70
245.399	94
245.633	82
245.866	68
246.099	78
246.333	77
246.566	69
246.8	79
247.033	77
247.266	80
247.5	80
247.733	71
247.966	87
248.2	74
248.433	73
248.666	73
248.899	84
249.133	79
249.366	82
249.599	96
249.832	82
250.066	73
250.299	71
250.532	67
250.765	58
250.998	78
251.231	84
251.465	83
251.698	84
251.931	87
252.164	82
252.397	84
252.63	84
252.863	73
253.096	75
253.329	86
253.562	66
253.795	79
254.028	81
254.261	84
254.494	75
254.727	95
254.96	76
255.193	72
255.426	76
255.659	80
255.892	87
256.124	80
256.357	79
256.59	85
256.823	97
257.056	77
257.289	82
257.521	82
257.754	86
257.987	75
258.22	83
258.452	80
258.685	66
258.918	70
259.151	68
259.383	84
259.616	66
259.849	85
260.081	84
260.314	83
260.547	67
260.779	88
261.012	80
261.244	72
261.477	78
261.71	88
261.942	90
262.175	85
262.407	81
262.64	70
262.872	80
263.105	88
263.337	90
263.57	82
263.802	97
264.035	74
264.267	78
264.499	102
264.732	74
264.964	82
265.197	67
265.429	89
265.661	82
265.894	87
266.126	88
266.358	84
266.591	84
266.823	90
267.055	88
267.287	87
267.52	83
267.752	96
267.984	89
268.216	81
268.448	83
268.681	90
268.913	83
269.145	86
269.377	85
269.609	62
269.841	70
270.073	79
270.306	101
270.538	77
270.77	76
271.002	81
271.234	83
271.466	87
271.698	74
271.93	81
272.162	78
272.394	80
272.626	66
272.858	78
273.09	75
273.322	90
273.553	93
273.785	87
274.017	97
274.249	83
274.481	75
274.713	93
274.945	74
275.176	96
275.408	84
275.64	88
275.872	71
276.104	69
276.335	98
276.567	88
276.799	77
277.031	88
277.262	92
277.494	88
277.726	83
277.957	82
278.189	72
278.421	69
278.652	83
278.884	79
279.115	78
279.347	74
279.579	89
279.81	83
280.042	88
280.273	71
280.505	92
280.736	75
280.968	85
281.199	86
281.431	76
281.662	68
281.894	77
282.125	86
282.356	95
282.588	101
282.819	83
283.051	80
283.282	88
283.513	85
283.745	82
283.976	70
284.207	83
284.439	76
284.67	86
284.901	98
285.132	84
285.364	82
285.595	83
285.826	89
286.057	66
286.288	84
286.52	80
286.751	83
286.982	88
287.213	84
287.444	91
287.675	86
287.906	95
288.138	79
288.369	83
288.6	89
288.831	98
289.062	89
289.293	83
289.524	79
289.755	80
289.986	74
290.217	89
290.448	79
290.679	98
290.91	89
291.141	78
291.371	92
291.602	78
291.833	75
292.064	69
292.295	75
292.526	84
292.757	89
292.987	94
293.218	86
293.449	69
293.68	82
293.91	86
294.141	82
294.372	84
294.603	84
294.833	64
295.064	84
295.295	80
295.525	90
295.756	72
295.987	79
296.217	81
296.448	83
296.679	88
296.909	89
297.14	82
297.37	92
297.601	94
297.831	92
298.062	79
298.292	83
298.523	83
298.753	77
298.984	90
299.214	87
299.445	103
299.675	74
299.905	78
300.136	73
300.366	94
300.597	102
300.827	81
301.057	94
301.288	84
301.518	83
301.748	96
301.979	82
302.209	95
302.439	83
302.669	78
302.9	91
303.13	74
303.36	82
303.59	89
303.82	82
304.051	85
304.281	89
304.511	97
304.741	89
304.971	86
305.201	84
305.431	71
305.661	86
305.891	78
306.121	91
306.352	86
306.582	75
306.812	75
307.042	83
307.272	91
307.502	92
307.731	100
307.961	80
308.191	101
308.421	88
308.651	74
308.881	86
309.111	96
309.341	79
309.571	78
309.8	89
310.03	89
310.26	99
310.49	84
310.72	91
310.949	90
311.179	90
311.409	94
311.639	97
311.868	106
312.098	72
312.328	89
312.557	89
312.787	86
313.017	94
313.246	78
313.476	68
313.706	70
313.935	83
314.165	88
314.394	86
314.624	74
314.853	91
315.083	88
315.312	90
315.542	90
315.771	93
316.001	96
316.23	88
316.46	89
316.689	83
316.919	77
317.148	90
317.377	88
317.607	89
317.836	81
318.065	88
318.295	79
318.524	69
318.753	88
318.983	85
319.212	86
319.441	84
319.67	75
319.9	85
320.129	71
320.358	91
320.587	76
320.816	82
321.046	80
321.275	84
321.504	86
321.733	91
321.962	81
322.191	96
322.42	82
322.649	87
322.878	80
323.108	82
323.337	82
323.566	87
323.795	81
324.024	86
324.253	83
324.482	75
324.71	79
324.939	84
325.168	88
325.397	86
325.626	82
325.855	83
326.084	77
326.313	94
326.542	95
326.77	95
326.999	72
327.228	93
327.457	91
327.686	88
327.914	79
328.143	82
328.372	92
328.6	80
328.829	95
329.058	71
329.287	90
329.515	93
329.744	85
329.972	94
330.201	79
330.43	86
330.658	74
330.887	77
331.115	91
331.344	88
331.572	85
331.801	99
332.03	83
332.258	86
332.486	84
332.715	93
332.943	78
333.172	83
333.4	82
333.629	83
333.857	82
334.085	90
334.314	91
334.542	91
334.771	83
334.999	89
335.227	85
335.455	81
335.684	97
335.912	81
336.14	97
336.369	82
336.597	89
336.825	100
337.053	79
337.281	99
337.51	70
337.738	94
337.966	87
338.194	94
338.422	90
338.65	75
338.878	82
339.106	86
339.334	110
339.562	78
339.79	80
340.018	81
340.246	81
340.474	78
340.702	92
340.93	77
341.158	84
341.386	95
341.614	78
341.842	93
342.07	96
342.298	89
342.526	89
342.754	86
342.981	74
343.209	96
343.437	82
343.665	84
343.893	92
344.12	82
344.348	85
344.576	90
344.804	78
345.031	97
345.259	87
345.487	97
345.714	83
345.942	75
346.17	94
346.397	77
346.625	87
346.853	81
347.08	81
347.308	84
347.535	90
347.763	81
347.99	89
348.218	84
348.445	89
348.673	87
348.9	76
349.128	94
349.355	89
349.583	73
349.81	107
350.037	90
350.265	77
350.492	81
350.72	91
350.947	82
351.174	91
351.402	89
351.629	90
351.856	81
352.083	81
352.311	98
352.538	96
352.765	88
352.992	90
353.22	79
353.447	83
353.674	79
353.901	88
354.128	86
354.355	74
354.583	90
354.81	90
355.037	83
355.264	92
355.491	78
355.718	95
355.945	92
356.172	81
356.399	91
356.626	99
356.853	88
357.08	101
357.307	89
357.534	83
357.761	87
357.988	94
358.215	98
358.441	84
358.668	90
358.895	86
359.122	75
359.349	80
359.576	86
359.802	73
360.029	97
360.256	97
360.483	90
360.709	91
360.936	92
361.163	80
361.39	88
361.616	88
361.843	75
362.07	93
362.296	100
362.523	72
362.749	97
362.976	80
363.203	89
363.429	92
363.656	89
363.882	77
364.109	83
364.335	83
364.562	73
364.788	99
365.015	97
365.241	93
365.468	83
365.694	86
365.92	81
366.147	86
366.373	86
366.599	100
366.826	86
367.052	92
367.278	84
367.505	79
367.731	94
367.957	86
368.184	86
368.41	82
368.636	86
368.862	104
369.089	84
369.315	88
369.541	74
369.767	94
369.993	95
370.219	88
370.445	68
370.672	75
370.898	75
371.124	95
371.35	99
371.576	83
371.802	76
372.028	76
372.254	78
372.48	83
372.706	96
372.932	84
373.158	86
373.384	85
373.61	85
373.835	92
374.061	87
374.287	102
374.513	96
374.739	89
374.965	81
375.191	89
375.416	88
375.642	77
375.868	82
376.094	106
376.319	94
376.545	70
376.771	79
376.997	78
377.222	90
377.448	86
377.674	102
377.899	100
378.125	85
378.35	87
378.576	88
378.802	80
379.027	92
379.253	86
379.478	83
379.704	73
379.929	85
380.155	103
380.38	89
380.606	90
380.831	91
381.057	95
381.282	93
381.507	87
381.733	90
381.958	83
382.184	92
382.409	90
382.634	97
382.86	87
383.085	97
383.31	97
383.535	92
383.761	88
383.986	95
384.211	89
384.436	92
384.662	99
384.887	94
385.112	73
385.337	90
385.562	83
385.787	94
386.013	95
386.238	87
386.463	95
386.688	105
386.913	98
387.138	95
387.363	98
387.588	95
387.813	108
388.038	92
388.263	100
388.488	104
388.713	103
388.938	112
389.163	82
389.387	91
389.612	94
389.837	95
390.062	88
390.287	96
390.512	90
390.736	99
390.961	97
391.186	103
391.411	91
391.636	101
391.86	96
392.085	90
392.31	115
392.534	91
392.759	105
392.984	101
393.208	86
393.433	94
393.658	100
393.882	102
394.107	113
394.331	104
394.556	91
394.78	102
395.005	94
395.229	85
395.454	108
395.678	94
395.903	115
396.127	97
396.352	86
396.576	87
396.801	96
397.025	93
397.249	106
397.474	104
397.698	102
397.922	108
398.147	105
398.371	99
398.595	92
398.82	86
399.044	105
399.268	101
399.492	114
399.717	120
399.941	104
400.165	120
400.389	111
400.613	110
400.837	111
401.062	101
401.286	114
401.51	105
401.734	115
401.958	88
402.182	104
402.406	113
402.63	107
402.854	116
403.078	98
403.302	91
403.526	103
403.75	116
403.974	113
404.198	120
404.422	118
404.645	104
404.869	113
405.093	108
405.317	116
405.541	122
405.765	108
405.988	110
406.212	113
406.436	110
406.66	107
406.883	102
407.107	122
407.331	102
407.555	111
407.778	115
408.002	111
408.226	99
408.449	119
408.673	100
408.896	113
409.12	95
409.344	105
409.567	110
409.791	109
410.014	111
410.238	123
410.461	124
410.685	109
410.908	94
411.132	110
411.355	95
411.578	103
411.802	110
412.025	102
412.249	98
412.472	101
412.695	117
412.919	90
413.142	105
413.365	123
413.589	121
413.812	120
414.035	127
414.258	120
414.482	99
414.705	103
414.928	116
415.151	114
415.374	100
415.597	103
415.821	106
416.044	101
416.267	101
416.49	104
416.713	103
416.936	116
417.159	110
417.382	103
417.605	111
417.828	119
418.051	123
418.274	122
418.497	95
418.72	111
418.943	107
419.166	118
419.389	122
419.611	120
419.834	110
420.057	110
420.28	101
420.503	115
420.726	103
420.948	107
421.171	107
421.394	111
421.617	107
421.839	122
422.062	107
422.285	117
422.507	105
422.73	105
422.953	105
423.175	113
423.398	114
423.621	119
423.843	106
424.066	114
424.288	121
424.511	130
424.733	112
424.956	103
425.178	120
425.401	112
425.623	122
425.846	120
426.068	113
426.291	126
426.513	104
426.735	114
426.958	111
427.18	117
427.402	99
427.625	110
427.847	107
428.069	111
428.292	106
428.514	103
428.736	110
428.958	108
429.181	104
429.403	107
429.625	112
429.847	121
430.069	112
430.292	110
430.514	106
430.736	119
430.958	116
431.18	111
431.402	103
431.624	108
431.846	107
432.068	100
432.29	98
432.512	105
432.734	115
432.956	116
433.178	126
433.4	114
433.622	111
433.844	112
434.066	111
434.287	111
434.509	98
434.731	120
434.953	110
435.175	123
435.397	123
435.618	118
435.84	109
436.062	119
436.284	103
436.505	114
436.727	112
436.949	102
437.17	105
437.392	110
437.614	106
437.835	104
438.057	100
438.278	105
438.5	95
438.721	112
438.943	110
439.165	118
439.386	113
439.608	114
439.829	111
440.05	123
440.272	111
440.493	108
440.715	114
440.936	124
441.158	118
441.379	118
441.6	117
441.822	114
442.043	118
442.264	105
442.486	118
442.707	118
442.928	133
443.149	119
443.371	116
443.592	114
443.813	119
444.034	136
444.255	124
444.476	122
444.698	123
444.919	122
445.14	274
445.361	172
445.582	130
445.803	108
446.024	126
446.245	126
446.466	121
446.687	115
446.908	123
447.129	133
447.35	106
447.571	119
447.792	120
448.013	124
448.234	120
448.455	130
448.675	103
448.896	112
449.117	96
449.338	113
449.559	110
449.779	103
450	104
450.221	112
450.442	116
450.662	114
450.883	98
451.104	102
451.324	104
451.545	107
451.766	100
451.986	102
452.207	113
452.428	104
452.648	113
452.869	118
453.089	106
453.31	105
453.53	105
453.751	93
453.971	112
454.192	93
454.412	111
454.633	110
454.853	98
455.073	101
455.294	114
455.514	122
455.734	103
455.955	110
456.175	93
456.395	79
456.616	112
456.836	98
457.056	114
457.276	92
457.497	91
457.717	84
457.937	102
458.157	101
458.377	102
458.598	116
458.818	99
459.038	101
459.258	95
459.478	98
459.698	98
459.918	107
460.138	118
460.358	106
460.578	124
460.798	114
461.018	111
461.238	114
461.458	107
461.678	104
461.898	112
462.118	107
462.338	106
462.558	111
462.777	107
462.997	111
463.217	125
463.437	126
463.657	116
463.876	105
464.096	126
464.316	124
464.536	107
464.755	114
464.975	114
465.195	121
465.414	128
465.634	135
465.854	126
466.073	127
466.293	115
466.512	119
466.732	113
466.951	124
467.171	104
467.391	110
467.61	119
467.829	116
468.049	112
468.268	122
468.488	110
468.707	112
468.927	111
469.146	115
469.365	119
469.585	114
469.804	112
470.023	112
470.243	122
470.462	120
470.681	123
470.901	123
471.12	120
471.339	121
471.558	125
471.777	131
471.997	121
472.216	110
472.435	111
472.654	106
472.873	110
473.092	110
473.311	105
473.53	110
473.749	120
473.968	117
474.187	119
474.406	89
474.625	111
474.844	103
475.063	102
475.282	114
475.501	111
475.72	122
475.939	120
476.158	113
476.377	103
476.596	100
476.814	112
477.033	105
477.252	115
477.471	118
477.69	116
477.908	113
478.127	123
478.346	132
478.564	127
478.783	128
479.002	129
479.22	121
479.439	115
479.658	116
479.876	110
480.095	122
480.313	134
480.532	120
480.751	130
480.969	118
481.188	121
481.406	105
481.624	105
481.843	112
482.061	117
482.28	122
482.498	115
482.717	112
482.935	118
483.153	129
483.372	116
483.59	120
483.808	129
484.027	122
484.245	127
484.463	138
484.681	126
484.9	121
485.118	134
485.336	122
485.554	123
485.772	104
485.99	116
486.209	114
486.427	123
486.645	111
486.863	114
487.081	123
487.299	122
487.517	134
487.735	132
487.953	133
488.171	124
488.389	142
488.607	146
488.825	120
489.043	123
489.261	117
489.479	125
489.696	135
489.914	122
490.132	134
490.35	134
490.568	117
490.786	146
491.003	146
491.221	139
491.439	143
491.657	147
491.874	159
492.092	178
492.31	172
492.527	164
492.745	140
492.963	153
493.18	143
493.398	166
493.615	150
493.833	145
494.05	154
494.268	145
494.485	147
494.703	154
494.92	148
495.138	151
495.355	138
495.573	151
495.79	160
496.008	144
496.225	143
496.442	151
496.66	166
496.877	142
497.094	139
497.312	158
497.529	152
497.746	154
497.963	144
498.181	128
498.398	135
498.615	133
498.832	134
499.049	142
499.267	153
499.484	162
499.701	171
499.918	212
500.135	198
500.352	208
500.569	216
500.786	204
501.003	216
501.22	192
501.437	179
501.654	158
501.871	166
502.088	151
502.305	152
502.522	141
502.739	142
502.956	139
503.172	144
503.389	128
503.606	134
503.823	137
504.04	143
504.256	122
504.473	138
504.69	130
504.907	136
505.123	130
505.34	121
505.557	124
505.773	138
505.99	115
506.207	119
506.423	115
506.64	126
506.856	130
507.073	120
507.289	130
507.506	121
507.722	111
507.939	120
508.155	122
508.372	122
508.588	127
508.805	136
509.021	116
509.238	109
509.454	122
509.67	126
509.887	118
510.103	122
510.319	102
510.536	113
510.752	111
510.968	94
511.184	120
511.401	115
511.617	118
511.833	96
512.049	107
512.265	113
512.481	106
512.698	119
512.914	115
513.13	117
513.346	116
513.562	118
513.778	111
513.994	124
514.21	114
514.426	110
514.642	124
514.858	126
515.074	114
515.29	122
515.506	118
515.721	114
515.937	107
516.153	121
516.369	115
516.585	110
516.801	116
517.016	116
517.232	140
517.448	120
517.664	124
517.879	120
518.095	118
518.311	119
518.527	124
518.742	127
518.958	122
519.173	117
519.389	132
519.605	119
519.82	118
520.036	115
520.251	114
520.467	113
520.682	108
520.898	112
521.113	104
521.329	114
521.544	133
521.76	112
521.975	130
522.19	111
522.406	99
522.621	114
522.836	114
523.052	113
523.267	105
523.482	126
523.698	120
523.913	118
524.128	99
524.343	126
524.559	128
524.774	121
524.989	124
525.204	119
525.419	108
525.634	110
525.849	96
526.064	110
526.28	112
526.495	111
526.71	100
526.925	122
527.14	118
527.355	103
527.57	99
527.785	90
527.999	99
528.214	114
528.429	118
528.644	134
528.859	129
529.074	127
529.289	141
529.503	129
529.718	119
529.933	114
530.148	107
530.363	112
530.577	118
530.792	109
531.007	134
531.221	104
531.436	98
531.651	109
531.865	102
532.08	112
532.295	114
532.509	118
532.724	103
532.938	102
533.153	100
533.367	116
533.582	111
533.796	116
534.011	117
534.225	122
534.44	97
534.654	113
534.868	114
535.083	110
535.297	121
535.511	96
535.726	111
535.94	107
536.154	112
536.369	110
536.583	108
536.797	111
537.011	114
537.225	106
537.44	94
537.654	95
537.868	104
538.082	91
538.296	101
538.51	118
538.724	121
538.938	117
539.153	126
539.367	131
539.581	110
539.795	120
540.009	112
540.222	94
540.436	118
540.65	111
540.864	115
541.078	121
541.292	128
541.506	131
541.72	136
541.934	135
542.147	151
542.361	137
542.575	131
542.789	122
543.002	109
543.216	94
543.43	105
543.644	122
543.857	119
544.071	130
544.285	125
544.498	127
544.712	136
544.925	131
545.139	130
545.352	132
545.566	118
545.779	134
545.993	134
546.206	141
546.42	138
546.633	142
546.847	122
547.06	133
547.274	129
547.487	149
547.7	132
547.914	131
548.127	144
548.34	138
548.554	127
548.767	131
548.98	139
549.193	136
549.407	129
549.62	129
549.833	135
550.046	123
550.259	135
550.473	124
550.686	123
550.899	131
551.112	138
551.325	142
551.538	115
551.751	110
551.964	113
552.177	112
552.39	131
552.603	124
552.816	124
553.029	131
553.242	124
553.455	131
553.667	132
553.88	116
554.093	132
554.306	133
554.519	117
554.732	133
554.944	121
555.157	118
555.37	122
555.583	139
555.795	126
556.008	114
556.221	120
556.433	112
556.646	105
556.859	124
557.071	122
557.284	131
557.496	134
557.709	103
557.921	130
558.134	118
558.346	116
558.559	102
558.771	117
558.984	116
559.196	113
559.409	120
559.621	112
559.833	119
560.046	104
560.258	105
560.47	105
560.683	124
560.895	108
561.107	103
561.32	110
561.532	110
561.744	106
561.956	125
562.168	123
562.381	112
562.593	110
562.805	127
563.017	126
563.229	113
563.441	95
563.653	115
563.865	118
564.077	122
564.289	103
564.501	116
564.713	104
564.925	108
565.137	105
565.349	115
565.561	115
565.773	107
565.985	131
566.197	102
566.408	118
566.62	120
566.832	119
567.044	119
567.255	129
567.467	130
567.679	112
567.891	124
568.102	126
568.314	122
568.526	115
568.737	114
568.949	117
569.161	115
569.372	105
569.584	113
569.795	103
570.007	94
570.218	105
570.43	104
570.641	99
570.853	123
571.064	106
571.276	94
571.487	95
571.698	82
571.91	102
572.121	94
572.333	103
572.544	90
572.755	96
572.966	101
573.178	87
573.389	99
573.6	97
573.811	92
574.023	95
574.234	94
574.445	102
574.656	112
574.867	80
575.078	89
575.289	93
575.501	85
575.712	99
575.923	83
576.134	88
576.345	91
576.556	91
576.767	94
576.978	88
577.188	102
577.399	105
577.61	95
577.821	111
578.032	104
578.243	91
578.454	98
578.665	94
578.875	84
579.086	87
579.297	107
579.508	102
579.718	92
579.929	108
580.14	95
580.35	89
580.561	104
580.772	86
580.982	96
581.193	96
581.403	110
581.614	83
581.825	91
582.035	98
582.246	90
582.456	89
582.667	81
582.877	101
583.087	90
583.298	96
583.508	85
583.719	88
583.929	101
584.139	91
584.35	85
584.56	103
584.77	110
584.981	95
585.191	103
585.401	84
585.611	108
585.821	102
586.032	102
586.242	99
586.452	89
586.662	86
586.872	99
587.082	83
587.292	99
587.502	98
587.713	82
587.923	95
588.133	83
588.343	82
588.553	85
588.762	97
588.972	92
589.182	102
589.392	117
589.602	80
589.812	83
590.022	86
590.232	99
590.441	86
590.651	102
590.861	92
591.071	91
591.281	84
591.49	94
591.7	107
591.91	95
592.119	104
592.329	104
592.539	86
592.748	104
592.958	86
593.167	110
593.377	86
593.587	102
593.796	100
594.006	94
594.215	111
594.424	102
594.634	105
594.843	101
595.053	100
595.262	94
595.472	84
595.681	94
595.89	95
596.1	89
596.309	96
596.518	84
596.727	87
596.937	82
597.146	86
597.355	100
597.564	90
597.774	97
597.983	98
598.192	96
598.401	81
598.61	94
598.819	96
599.028	96
599.237	80
599.446	95
599.655	93
599.864	94
600.073	95
600.282	87
600.491	75
600.7	104
600.909	90
601.118	90
601.327	94
601.536	83
601.745	93
601.953	102
602.162	93
602.371	92
602.58	85
602.789	102
602.997	98
603.206	94
603.415	102
603.623	84
603.832	92
604.041	94
604.249	100
604.458	107
604.666	102
604.875	95
605.084	100
605.292	86
605.501	112
605.709	104
605.918	94
606.126	107
606.334	96
606.543	92
606.751	82
606.96	102
607.168	93
607.376	80
607.585	97
607.793	102
608.001	94
608.21	98
608.418	86
608.626	98
608.834	97
609.043	85
609.251	99
609.459	105
609.667	82
609.875	100
610.083	94
610.291	91
610.499	96
610.707	84
610.916	97
611.124	90
611.332	94
611.54	96
611.748	101
611.955	95
612.163	104
612.371	99
612.579	99
612.787	92
612.995	97
613.203	116
613.411	96
613.618	87
613.826	92
614.034	99
614.242	91
614.449	99
614.657	97
614.865	96
615.072	90
615.28	104
615.488	95
615.695	99
615.903	95
616.111	98
616.318	102
616.526	92
616.733	93
616.941	90
617.148	99
617.356	88
617.563	80
617.771	95
617.978	82
618.185	79
618.393	95
618.6	88
618.807	108
619.015	101
619.222	96
619.429	104
619.637	95
619.844	103
620.051	90
620.258	100
620.466	103
620.673	100
620.88	99
621.087	100
621.294	94
621.501	82
621.708	92
621.915	78
622.122	96
622.329	81
622.536	99
622.743	97
622.95	83
623.157	86
623.364	81
623.571	89
623.778	93
623.985	101
624.192	95
624.399	85
624.606	91
624.812	82
625.019	84
625.226	85
625.433	94
625.639	87
625.846	89
626.053	87
626.259	89
626.466	101
626.673	94
626.879	79
627.086	98
627.293	91
627.499	91
627.706	106
627.912	90
628.119	87
628.325	101
628.532	90
628.738	83
628.945	97
629.151	94
629.357	97
629.564	96
629.77	97
629.976	93
630.183	96
630.389	103
630.595	86
630.802	94
631.008	81
631.214	84
631.42	96
631.627	96
631.833	92
632.039	87
632.245	85
632.451	90
632.657	90
632.863	99
633.069	99
633.275	84
633.481	90
633.688	94
633.893	94
634.099	88
634.305	90
634.511	103
634.717	90
634.923	80
635.129	82
635.335	86
635.541	88
635.747	90
635.952	89
636.158	85
636.364	89
636.57	102
636.775	90
636.981	80
637.187	84
637.392	105
637.598	93
637.804	89
638.009	95
638.215	84
638.421	86
638.626	90
638.832	95
639.037	88
639.243	94
639.448	95
639.654	112
639.859	78
640.065	82
640.27	98
640.475	84
640.681	99
640.886	83
641.091	106
641.297	104
641.502	87
641.707	86
641.913	79
642.118	89
642.323	72
642.528	90
642.733	94
642.939	80
643.144	81
643.349	101
643.554	92
643.759	87
643.964	92
644.169	93
644.374	88
644.579	87
644.784	86
644.989	87
645.194	77
645.399	97
645.604	85
645.809	92
646.014	94
646.219	76
646.423	92
646.628	94
646.833	91
647.038	82
647.243	94
647.447	88
647.652	107
647.857	76
648.062	76
648.266	77
648.471	96
648.676	83
648.88	87
649.085	82
649.289	89
649.494	92
649.698	88
649.903	92
650.107	86
650.312	89
650.516	80
650.721	88
650.925	76
651.13	101
651.334	86
651.539	74
651.743	92
651.947	92
652.152	106
652.356	80
652.56	86
652.764	94
652.969	76
653.173	95
653.377	90
653.581	75
653.785	93
653.99	90
654.194	94
654.398	84
654.602	82
654.806	95
655.01	94
655.214	84
655.418	85
655.622	88
655.826	101
656.03	85
656.234	71
656.438	77
656.642	82
656.846	91
657.049	94
657.253	103
657.457	85
657.661	79
657.865	84
658.068	91
658.272	86
658.476	87
658.68	64
658.883	91
659.087	97
659.291	92
659.494	91
659.698	79
659.901	82
660.105	85
660.309	75
660.512	89
660.716	67
660.919	76
661.123	86
661.326	89
661.53	92
661.733	93
661.936	82
662.14	83
662.343	72
662.546	77
662.75	68
662.953	102
663.156	74
663.36	78
663.563	90
663.766	87
663.969	83
664.173	89
664.376	95
664.579	97
664.782	80
664.985	86
665.188	67
665.391	87
665.594	73
665.797	78
666	78
666.203	91
666.406	74
666.609	80
666.812	80
667.015	83
667.218	99
667.421	79
667.624	69
667.827	68
668.03	80
668.232	86
668.435	81
668.638	83
668.841	90
669.043	75
669.246	79
669.449	84
669.651	64
669.854	90
670.057	77
670.259	86
670.462	85
670.665	83
670.867	75
671.07	79
671.272	81
671.475	100
671.677	89
671.88	83
672.082	91
672.284	95
672.487	78
672.689	73
672.892	104
