Data from WStandard_LampEnergy8_LIBS07252019.E.O._I.C._HRD10591_16-00-45-929.txt Node
Date: Thu Jul 25 16:00:45 EDT 2019
User: cochatt
Spectrometer: HR+D1059
Trigger mode: 1
Integration Time (sec): 1.000000E-1
Scans to average: 1
Electric dark correction enabled: true
Nonlinearity correction enabled: false
Boxcar width: 0
XAxis mode: Wavelengths
Number of Pixels in Spectrum: 2048
>>>>>Begin Spectral Data<<<<<
223.165	-19
223.4	-19
223.635	-19
223.869	-19
224.104	-33
224.338	-15
224.573	-3
224.808	-15
225.042	-10
225.277	4
225.511	-4
225.746	2
225.98	5
226.215	8
226.449	10
226.683	25
226.918	30
227.152	34
227.387	33
227.621	40
227.856	37
228.09	62
228.324	49
228.559	49
228.793	108
229.027	200
229.262	189
229.496	214
229.73	209
229.964	245
230.199	251
230.433	243
230.667	273
230.901	269
231.136	262
231.37	242
231.604	242
231.838	258
232.072	269
232.306	241
232.541	258
232.775	293
233.009	290
233.243	296
233.477	284
233.711	285
233.945	287
234.179	306
234.413	291
234.647	311
234.881	308
235.115	292
235.349	289
235.583	300
235.817	283
236.051	287
236.285	285
236.519	313
236.753	339
236.987	351
237.221	343
237.455	347
237.689	348
237.922	346
238.156	343
238.39	344
238.624	344
238.858	378
239.091	377
239.325	407
239.559	452
239.793	439
240.027	484
240.26	465
240.494	370
240.728	353
240.961	364
241.195	377
241.429	381
241.662	389
241.896	377
242.13	385
242.363	421
242.597	430
242.83	436
243.064	438
243.298	453
243.531	433
243.765	445
243.998	429
244.232	394
244.465	387
244.699	391
244.932	446
245.166	487
245.399	440
245.633	416
245.866	423
246.099	453
246.333	466
246.566	460
246.8	510
247.033	541
247.266	497
247.5	500
247.733	485
247.966	503
248.2	569
248.433	563
248.666	591
248.899	622
249.133	692
249.366	763
249.599	646
249.832	561
250.066	598
250.299	587
250.532	572
250.765	515
250.998	543
251.231	571
251.465	554
251.698	543
251.931	531
252.164	563
252.397	589
252.63	583
252.863	526
253.096	525
253.329	539
253.562	563
253.795	591
254.028	559
254.261	545
254.494	547
254.727	525
254.96	559
255.193	596
255.426	676
255.659	747
255.892	755
256.124	637
256.357	633
256.59	652
256.823	655
257.056	655
257.289	769
257.521	852
257.754	747
257.987	701
258.22	794
258.452	753
258.685	641
258.918	615
259.151	643
259.383	605
259.616	535
259.849	589
260.081	657
260.314	702
260.547	762
260.779	740
261.012	726
261.244	678
261.477	625
261.71	674
261.942	645
262.175	648
262.407	655
262.64	630
262.872	607
263.105	581
263.337	598
263.57	617
263.802	596
264.035	571
264.267	543
264.499	550
264.732	578
264.964	575
265.197	620
265.429	673
265.661	725
265.894	796
266.126	826
266.358	728
266.591	765
266.823	806
267.055	729
267.287	742
267.52	708
267.752	698
267.984	736
268.216	737
268.448	775
268.681	768
268.913	711
269.145	660
269.377	661
269.609	689
269.841	833
270.073	952
270.306	1034
270.538	992
270.77	899
271.002	828
271.234	776
271.466	758
271.698	859
271.93	1000
272.162	986
272.394	893
272.626	850
272.858	753
273.09	670
273.322	655
273.553	650
273.785	665
274.017	681
274.249	717
274.481	740
274.713	667
274.945	669
275.176	686
275.408	668
275.64	664
275.872	667
276.104	699
276.335	770
276.567	860
276.799	856
277.031	777
277.262	779
277.494	810
277.726	840
277.957	797
278.189	764
278.421	725
278.652	739
278.884	680
279.115	673
279.347	706
279.579	697
279.81	685
280.042	762
280.273	826
280.505	834
280.736	819
280.968	768
281.199	701
281.431	673
281.662	678
281.894	702
282.125	708
282.356	725
282.588	759
282.819	751
283.051	805
283.282	834
283.513	779
283.745	721
283.976	693
284.207	708
284.439	709
284.67	703
284.901	738
285.132	733
285.364	739
285.595	706
285.826	709
286.057	711
286.288	718
286.52	738
286.751	812
286.982	797
287.213	724
287.444	697
287.675	694
287.906	769
288.138	781
288.369	760
288.6	714
288.831	698
289.062	732
289.293	721
289.524	728
289.755	749
289.986	742
290.217	705
290.448	699
290.679	742
290.91	756
291.141	763
291.371	776
291.602	773
291.833	777
292.064	814
292.295	801
292.526	810
292.757	818
292.987	782
293.218	775
293.449	800
293.68	936
293.91	947
294.141	923
294.372	849
294.603	889
294.833	918
295.064	858
295.295	797
295.525	769
295.756	755
295.987	697
296.217	738
296.448	765
296.679	716
296.909	732
297.14	773
297.37	765
297.601	803
297.831	871
298.062	855
298.292	777
298.523	767
298.753	748
298.984	777
299.214	761
299.445	791
299.675	791
299.905	795
300.136	769
300.366	753
300.597	730
300.827	769
301.057	792
301.288	822
301.518	789
301.748	814
301.979	858
302.209	894
302.439	945
302.669	979
302.9	883
303.13	807
303.36	815
303.59	831
303.82	807
304.051	817
304.281	827
304.511	868
304.741	910
304.971	958
305.201	1006
305.431	920
305.661	769
305.891	700
306.121	743
306.352	763
306.582	789
306.812	862
307.042	902
307.272	925
307.502	933
307.731	1003
307.961	999
308.191	931
308.421	865
308.651	791
308.881	797
309.111	824
309.341	796
309.571	778
309.8	805
310.03	792
310.26	789
310.49	780
310.72	819
310.949	853
311.179	850
311.409	803
311.639	822
311.868	812
312.098	802
312.328	820
312.557	830
312.787	819
313.017	834
313.246	838
313.476	801
313.706	825
313.935	846
314.165	861
314.394	895
314.624	919
314.853	954
315.083	1025
315.312	1025
315.542	901
315.771	870
316.001	902
316.23	893
316.46	917
316.689	909
316.919	831
317.148	822
317.377	842
317.607	926
317.836	1001
318.065	1021
318.295	963
318.524	938
318.753	908
318.983	893
319.212	888
319.441	896
319.67	918
319.9	907
320.129	958
320.358	956
320.587	978
320.816	961
321.046	953
321.275	941
321.504	951
321.733	993
321.962	964
322.191	905
322.42	891
322.649	870
322.878	887
323.108	907
323.337	929
323.566	901
323.795	931
324.024	923
324.253	907
324.482	893
324.71	865
324.939	856
325.168	865
325.397	915
325.626	912
325.855	899
326.084	905
326.313	926
326.542	886
326.77	946
326.999	917
327.228	883
327.457	844
327.686	855
327.914	889
328.143	882
328.372	906
328.6	906
328.829	871
329.058	876
329.287	854
329.515	895
329.744	907
329.972	958
330.201	993
330.43	972
330.658	925
330.887	945
331.115	945
331.344	956
331.572	930
331.801	906
332.03	948
332.258	973
332.486	982
332.715	979
332.943	979
333.172	933
333.4	960
333.629	983
333.857	1040
334.085	1176
334.314	1270
334.542	1341
334.771	1213
334.999	1079
335.227	1034
335.455	1009
335.684	999
335.912	1040
336.14	1075
336.369	995
336.597	970
336.825	991
337.053	990
337.281	1069
337.51	1100
337.738	1100
337.966	1030
338.194	967
338.422	945
338.65	939
338.878	917
339.106	900
339.334	911
339.562	906
339.79	890
340.018	959
340.246	999
340.474	994
340.702	979
340.93	998
341.158	993
341.386	947
341.614	953
341.842	924
342.07	980
342.298	990
342.526	947
342.754	926
342.981	950
343.209	931
343.437	939
343.665	935
343.893	1000
344.12	1031
344.348	1015
344.576	947
344.804	943
345.031	955
345.259	937
345.487	940
345.714	882
345.942	897
346.17	878
346.397	898
346.625	894
346.853	870
347.08	841
347.308	874
347.535	871
347.763	909
347.99	871
348.218	883
348.445	859
348.673	897
348.9	926
349.128	940
349.355	983
349.583	925
349.81	871
350.037	835
350.265	849
350.492	847
350.72	892
350.947	912
351.174	932
351.402	850
351.629	831
351.856	833
352.083	815
352.311	843
352.538	868
352.765	912
352.992	909
353.22	875
353.447	887
353.674	885
353.901	868
354.128	857
354.355	888
354.583	911
354.81	926
355.037	901
355.264	885
355.491	910
355.718	891
355.945	886
356.172	877
356.399	835
356.626	853
356.853	887
357.08	971
357.307	1050
357.534	996
357.761	918
357.988	838
358.215	858
358.441	876
358.668	851
358.895	852
359.122	929
359.349	998
359.576	930
359.802	856
360.029	860
360.256	844
360.483	875
360.709	906
360.936	929
361.163	962
361.39	1067
361.616	1091
361.843	1060
362.07	978
362.296	903
362.523	872
362.749	894
362.976	911
363.203	925
363.429	875
363.656	886
363.882	909
364.109	1029
364.335	1002
364.562	967
364.788	936
365.015	875
365.241	862
365.468	910
365.694	940
365.92	966
366.147	912
366.373	861
366.599	839
366.826	883
367.052	878
367.278	895
367.505	899
367.731	919
367.957	934
368.184	980
368.41	988
368.636	998
368.862	1002
369.089	996
369.315	949
369.541	951
369.767	920
369.993	894
370.219	898
370.445	918
370.672	999
370.898	1028
371.124	1023
371.35	960
371.576	987
371.802	1025
372.028	997
372.254	927
372.48	919
372.706	921
372.932	923
373.158	927
373.384	957
373.61	974
373.835	1004
374.061	993
374.287	982
374.513	931
374.739	960
374.965	931
375.191	977
375.416	974
375.642	1016
375.868	1065
376.094	1069
376.319	1004
376.545	947
376.771	1000
376.997	1039
377.222	999
377.448	965
377.674	1009
377.899	1041
378.125	1053
378.35	1051
378.576	951
378.802	938
379.027	921
379.253	959
379.478	963
379.704	964
379.929	931
380.155	950
380.38	977
380.606	976
380.831	994
381.057	989
381.282	1059
381.507	980
381.733	1069
381.958	1094
382.184	1017
382.409	1006
382.634	996
382.86	987
383.085	1017
383.31	1053
383.535	1131
383.761	1182
383.986	1111
384.211	1091
384.436	1086
384.662	1122
384.887	1153
385.112	1088
385.337	1099
385.562	1097
385.787	1118
386.013	1102
386.238	1142
386.463	1106
386.688	1199
386.913	1281
387.138	1237
387.363	1147
387.588	1103
387.813	1107
388.038	1154
388.263	1178
388.488	1131
388.713	1052
388.938	1052
389.163	1067
389.387	1087
389.612	1113
389.837	1106
390.062	1102
390.287	1081
390.512	1092
390.736	1103
390.961	1071
391.186	1030
391.411	1080
391.636	1082
391.86	1109
392.085	1125
392.31	1081
392.534	1121
392.759	1140
392.984	1091
393.208	1122
393.433	1133
393.658	1148
393.882	1195
394.107	1108
394.331	1083
394.556	1083
394.78	1072
395.005	1159
395.229	1191
395.454	1275
395.678	1271
395.903	1165
396.127	1165
396.352	1171
396.576	1185
396.801	1204
397.025	1175
397.249	1211
397.474	1194
397.698	1193
397.922	1194
398.147	1289
398.371	1272
398.595	1305
398.82	1225
399.044	1294
399.268	1346
399.492	1445
399.717	1476
399.941	1467
400.165	1417
400.389	1387
400.613	1418
400.837	1601
401.062	1753
401.286	1479
401.51	1386
401.734	1419
401.958	1370
402.182	1257
402.406	1233
402.63	1235
402.854	1277
403.078	1228
403.302	1270
403.526	1316
403.75	1335
403.974	1340
404.198	1316
404.422	1377
404.645	1421
404.869	1349
405.093	1288
405.317	1273
405.541	1335
405.765	1308
405.988	1301
406.212	1353
406.436	1389
406.66	1405
406.883	1451
407.107	1616
407.331	1701
407.555	1851
407.778	1639
408.002	1412
408.226	1373
408.449	1356
408.673	1338
408.896	1330
409.12	1363
409.344	1346
409.567	1334
409.791	1341
410.014	1346
410.238	1442
410.461	1497
410.685	1366
410.908	1276
411.132	1349
411.355	1312
411.578	1270
411.802	1305
412.025	1313
412.249	1341
412.472	1230
412.695	1263
412.919	1282
413.142	1257
413.365	1254
413.589	1317
413.812	1381
414.035	1370
414.258	1247
414.482	1274
414.705	1259
414.928	1268
415.151	1255
415.374	1265
415.597	1295
415.821	1317
416.044	1316
416.267	1310
416.49	1232
416.713	1246
416.936	1285
417.159	1307
417.382	1315
417.605	1265
417.828	1275
418.051	1287
418.274	1225
418.497	1213
418.72	1237
418.943	1254
419.166	1334
419.389	1319
419.611	1243
419.834	1256
420.057	1311
420.28	1230
420.503	1244
420.726	1262
420.948	1261
421.171	1227
421.394	1229
421.617	1312
421.839	1297
422.062	1300
422.285	1277
422.507	1251
422.73	1193
422.953	1179
423.175	1184
423.398	1262
423.621	1214
423.843	1246
424.066	1292
424.288	1337
424.511	1331
424.733	1316
424.956	1225
425.178	1176
425.401	1192
425.623	1231
425.846	1226
426.068	1284
426.291	1282
426.513	1260
426.735	1248
426.958	1383
427.18	1446
427.402	1326
427.625	1383
427.847	1316
428.069	1226
428.292	1230
428.514	1204
428.736	1211
428.958	1191
429.181	1230
429.403	1423
429.625	1666
429.847	1401
430.069	1262
430.292	1363
430.514	1370
430.736	1315
430.958	1289
431.18	1260
431.402	1185
431.624	1151
431.846	1160
432.068	1097
432.29	1153
432.512	1158
432.734	1222
432.956	1226
433.178	1314
433.4	1268
433.622	1251
433.844	1208
434.066	1157
434.287	1155
434.509	1149
434.731	1224
434.953	1310
435.175	1290
435.397	1244
435.618	1201
435.84	1223
436.062	1187
436.284	1219
436.505	1261
436.727	1278
436.949	1225
437.17	1191
437.392	1175
437.614	1156
437.835	1132
438.057	1205
438.278	1210
438.5	1193
438.721	1181
438.943	1187
439.165	1197
439.386	1162
439.608	1210
439.829	1213
440.05	1219
440.272	1174
440.493	1214
440.715	1260
440.936	1360
441.158	1359
441.379	1341
441.6	1338
441.822	1302
442.043	1292
442.264	1298
442.486	1216
442.707	1206
442.928	1207
443.149	1215
443.371	1339
443.592	1337
443.813	1323
444.034	1299
444.255	1330
444.476	1341
444.698	1390
444.919	1353
445.14	1435
445.361	1387
445.582	1409
445.803	1339
446.024	1296
446.245	1377
446.466	1340
446.687	1316
446.908	1291
447.129	1268
447.35	1285
447.571	1245
447.792	1215
448.013	1191
448.234	1239
448.455	1240
448.675	1249
448.896	1175
449.117	1170
449.338	1190
449.559	1269
449.779	1252
450	1349
450.221	1431
450.442	1351
450.662	1229
450.883	1122
451.104	1137
451.324	1161
451.545	1186
451.766	1141
451.986	1070
452.207	1076
452.428	1040
452.648	1057
452.869	1047
453.089	1083
453.31	1098
453.53	1128
453.751	1048
453.971	1040
454.192	1075
454.412	1110
454.633	1085
454.853	1039
455.073	1021
455.294	1024
455.514	1043
455.734	1086
455.955	1026
456.175	1016
456.395	1026
456.616	1046
456.836	1067
457.056	1078
457.276	1041
457.497	1007
457.717	985
457.937	1012
458.157	1037
458.377	1019
458.598	989
458.818	1008
459.038	1082
459.258	1085
459.478	1093
459.698	1102
459.918	1130
460.138	1198
460.358	1194
460.578	1193
460.798	1238
461.018	1272
461.238	1265
461.458	1219
461.678	1227
461.898	1187
462.118	1182
462.338	1211
462.558	1230
462.777	1222
462.997	1269
463.217	1325
463.437	1291
463.657	1212
463.876	1212
464.096	1180
464.316	1212
464.536	1262
464.755	1259
464.975	1285
465.195	1238
465.414	1227
465.634	1237
465.854	1245
466.073	1355
466.293	1271
466.512	1166
466.732	1134
466.951	1199
467.171	1159
467.391	1148
467.61	1126
467.829	1169
468.049	1283
468.268	1405
468.488	1250
468.707	1224
468.927	1171
469.146	1158
469.365	1148
469.585	1186
469.804	1173
470.023	1183
470.243	1227
470.462	1176
470.681	1166
470.901	1163
471.12	1188
471.339	1183
471.558	1187
471.777	1109
471.997	1173
472.216	1148
472.435	1065
472.654	1064
472.873	1109
473.092	1193
473.311	1158
473.53	1112
473.749	1098
473.968	1168
474.187	1159
474.406	1203
474.625	1175
474.844	1189
475.063	1189
475.282	1154
475.501	1161
475.72	1149
475.939	1241
476.158	1206
476.377	1175
476.596	1188
476.814	1126
477.033	1156
477.252	1230
477.471	1282
477.69	1226
477.908	1237
478.127	1299
478.346	1378
478.564	1374
478.783	1321
479.002	1420
479.22	1381
479.439	1407
479.658	1542
479.876	1474
480.095	1316
480.313	1279
480.532	1224
480.751	1276
480.969	1250
481.188	1205
481.406	1228
481.624	1150
481.843	1220
482.061	1239
482.28	1273
482.498	1254
482.717	1271
482.935	1247
483.153	1300
483.372	1292
483.59	1320
483.808	1332
484.027	1309
484.245	1405
484.463	1661
484.681	1796
484.9	1445
485.118	1308
485.336	1303
485.554	1295
485.772	1327
485.99	1310
486.209	1325
486.427	1346
486.645	1377
486.863	1378
487.081	1409
487.299	1412
487.517	1374
487.735	1421
487.953	1440
488.171	1396
488.389	1413
488.607	1405
488.825	1546
489.043	1468
489.261	1339
489.479	1441
489.696	1411
489.914	1422
490.132	1372
490.35	1405
490.568	1487
490.786	1492
491.003	1447
491.221	1499
491.439	1551
491.657	1552
491.874	1589
492.092	1610
492.31	1658
492.527	1614
492.745	1564
492.963	1568
493.18	1572
493.398	1643
493.615	1672
493.833	1529
494.05	1485
494.268	1493
494.485	1538
494.703	1518
494.92	1495
495.138	1527
495.355	1530
495.573	1547
495.79	1626
496.008	1613
496.225	1536
496.442	1545
496.66	1544
496.877	1552
497.094	1606
497.312	1563
497.529	1562
497.746	1610
497.963	1826
498.181	1892
498.398	1837
498.615	1760
498.832	1716
499.049	1708
499.267	1750
499.484	1829
499.701	1971
499.918	1995
500.135	2154
500.352	2282
500.569	2273
500.786	2427
501.003	2185
501.22	2049
501.437	2002
501.654	2009
501.871	1909
502.088	1725
502.305	1685
502.522	1639
502.739	1524
502.956	1504
503.172	1523
503.389	1468
503.606	1453
503.823	1442
504.04	1427
504.256	1404
504.473	1440
504.69	1478
504.907	1412
505.123	1374
505.34	1480
505.557	1879
505.773	1595
505.99	1334
506.207	1261
506.423	1241
506.64	1247
506.856	1229
507.073	1395
507.289	1507
507.506	1442
507.722	1285
507.939	1220
508.155	1214
508.372	1203
508.588	1158
508.805	1184
509.021	1134
509.238	1107
509.454	1110
509.67	1102
509.887	1077
510.103	1095
510.319	1091
510.536	1147
510.752	1184
510.968	1146
511.184	1235
511.401	1207
511.617	1094
511.833	1059
512.049	1055
512.265	1057
512.481	1068
512.698	1081
512.914	1201
513.13	1125
513.346	1069
513.562	1067
513.778	1091
513.994	1116
514.21	1153
514.426	1167
514.642	1258
514.858	1194
515.074	1101
515.29	1083
515.506	1093
515.721	1102
515.937	1165
516.153	1254
516.369	1197
516.585	1144
516.801	1083
517.016	1116
517.232	1112
517.448	1178
517.664	1173
517.879	1179
518.095	1221
518.311	1176
518.527	1133
518.742	1125
518.958	1101
519.173	1061
519.389	1117
519.605	1146
519.82	1149
520.036	1147
520.251	1109
520.467	1115
520.682	1182
520.898	1228
521.113	1117
521.329	1095
521.544	1157
521.76	1081
521.975	1065
522.19	1045
522.406	1053
522.621	1315
522.836	1251
523.052	1061
523.267	1078
523.482	1087
523.698	1048
523.913	1000
524.128	1029
524.343	1103
524.559	1121
524.774	1067
524.989	1048
525.204	1041
525.419	1022
525.634	1021
525.849	1033
526.064	1017
526.28	1026
526.495	990
526.71	944
526.925	945
527.14	960
527.355	963
527.57	939
527.785	986
527.999	969
528.214	961
528.429	942
528.644	988
528.859	1020
529.074	1043
529.289	1092
529.503	1064
529.718	1021
529.933	1016
530.148	936
530.363	942
530.577	938
530.792	955
531.007	910
531.221	936
531.436	962
531.651	969
531.865	993
532.08	987
532.295	949
532.509	920
532.724	945
532.938	963
533.153	1005
533.367	989
533.582	987
533.796	976
534.011	1025
534.225	945
534.44	950
534.654	931
534.868	957
535.083	979
535.297	983
535.511	994
535.726	983
535.94	939
536.154	949
536.369	925
536.583	885
536.797	903
537.011	922
537.225	875
537.44	881
537.654	935
537.868	912
538.082	866
538.296	876
538.51	889
538.724	923
538.938	920
539.153	1001
539.367	954
539.581	927
539.795	957
540.009	931
540.222	895
540.436	920
540.65	1020
540.864	1045
541.078	1047
541.292	1036
541.506	1025
541.72	1059
541.934	1093
542.147	1132
542.361	1079
542.575	1035
542.789	989
543.002	917
543.216	961
543.43	990
543.644	1040
543.857	1060
544.071	1052
544.285	1057
544.498	1043
544.712	1080
544.925	1079
545.139	1097
545.352	1039
545.566	1026
545.779	1039
545.993	1033
546.206	1071
546.42	1037
546.633	1029
546.847	1011
547.06	1025
547.274	1056
547.487	1062
547.7	1059
547.914	1049
548.127	1070
548.34	1043
548.554	1036
548.767	1043
548.98	1040
549.193	1023
549.407	1078
549.62	1059
549.833	1051
550.046	1011
550.259	1012
550.473	969
550.686	1011
550.899	987
551.112	968
551.325	970
551.538	1029
551.751	1101
551.964	895
552.177	914
552.39	969
552.603	982
552.816	969
553.029	1041
553.242	1050
553.455	1024
553.667	1012
553.88	986
554.093	965
554.306	987
554.519	962
554.732	917
554.944	921
555.157	923
555.37	954
555.583	936
555.795	882
556.008	903
556.221	870
556.433	858
556.646	832
556.859	849
557.071	831
557.284	859
557.496	834
557.709	808
557.921	862
558.134	875
558.346	836
558.559	814
558.771	839
558.984	811
559.196	786
559.409	807
559.621	779
559.833	789
560.046	819
560.258	799
560.47	797
560.683	804
560.895	795
561.107	802
561.32	784
561.532	818
561.744	792
561.956	813
562.168	800
562.381	740
562.593	747
562.805	772
563.017	765
563.229	762
563.441	763
563.653	758
563.865	749
564.077	743
564.289	755
564.501	779
564.713	765
564.925	784
565.137	830
565.349	786
565.561	758
565.773	791
565.985	814
566.197	826
566.408	869
566.62	866
566.832	857
567.044	878
567.255	867
567.467	881
567.679	897
567.891	880
568.102	864
568.314	811
568.526	798
568.737	749
568.949	729
569.161	695
569.372	683
569.584	675
569.795	662
570.007	645
570.218	644
570.43	620
570.641	635
570.853	637
571.064	654
571.276	649
571.487	601
571.698	628
571.91	625
572.121	604
572.333	606
572.544	601
572.755	563
572.966	591
573.178	572
573.389	566
573.6	597
573.811	613
574.023	580
574.234	554
574.445	547
574.656	518
574.867	542
575.078	567
575.289	577
575.501	535
575.712	533
575.923	545
576.134	544
576.345	541
576.556	536
576.767	537
576.978	505
577.188	502
577.399	537
577.61	499
577.821	498
578.032	485
578.243	500
578.454	498
578.665	500
578.875	473
579.086	491
579.297	485
579.508	494
579.718	500
579.929	485
580.14	469
580.35	482
580.561	465
580.772	532
580.982	488
581.193	480
581.403	463
581.614	500
581.825	467
582.035	475
582.246	471
582.456	476
582.667	482
582.877	450
583.087	461
583.298	448
583.508	464
583.719	459
583.929	461
584.139	448
584.35	441
584.56	449
584.77	438
584.981	442
585.191	446
585.401	452
585.611	459
585.821	450
586.032	438
586.242	430
586.452	437
586.662	469
586.872	428
587.082	433
587.292	451
587.502	442
587.713	468
587.923	440
588.133	426
588.343	441
588.553	448
588.762	439
588.972	416
589.182	416
589.392	448
589.602	437
589.812	450
590.022	449
590.232	423
590.441	448
590.651	459
590.861	454
591.071	436
591.281	424
591.49	421
591.7	436
591.91	437
592.119	418
592.329	436
592.539	449
592.748	469
592.958	453
593.167	453
593.377	447
593.587	478
593.796	439
594.006	441
594.215	468
594.424	446
594.634	468
594.843	462
595.053	454
595.262	449
595.472	426
595.681	443
595.89	433
596.1	403
596.309	408
596.518	422
596.727	410
596.937	415
597.146	411
597.355	414
597.564	375
597.774	404
597.983	389
598.192	407
598.401	371
598.61	388
598.819	395
599.028	390
599.237	398
599.446	398
599.655	390
599.864	382
600.073	375
600.282	382
600.491	365
600.7	365
600.909	377
601.118	372
601.327	392
601.536	401
601.745	386
601.953	415
602.162	403
602.371	397
602.58	405
602.789	391
602.997	399
603.206	411
603.415	405
603.623	391
603.832	385
604.041	381
604.249	375
604.458	379
604.666	387
604.875	386
605.084	375
605.292	381
605.501	396
605.709	384
605.918	391
606.126	392
606.334	409
606.543	406
606.751	403
606.96	388
607.168	379
607.376	378
607.585	371
607.793	383
608.001	391
608.21	390
608.418	388
608.626	394
608.834	402
609.043	396
609.251	379
609.459	361
609.667	406
609.875	398
610.083	392
610.291	411
610.499	414
610.707	385
610.916	398
611.124	389
611.332	385
611.54	370
611.748	381
611.955	383
612.163	390
612.371	413
612.579	373
612.787	385
612.995	386
613.203	385
613.411	358
613.618	379
613.826	391
614.034	389
614.242	389
614.449	380
614.657	380
614.865	364
615.072	397
615.28	382
615.488	350
615.695	397
615.903	387
616.111	389
616.318	397
616.526	359
616.733	387
616.941	355
617.148	373
617.356	366
617.563	373
617.771	369
617.978	353
618.185	347
618.393	364
618.6	374
618.807	369
619.015	373
619.222	363
619.429	370
619.637	350
619.844	333
620.051	340
620.258	333
620.466	361
620.673	353
620.88	347
621.087	354
621.294	326
621.501	332
621.708	349
621.915	360
622.122	349
622.329	347
622.536	345
622.743	361
622.95	346
623.157	337
623.364	314
623.571	331
623.778	339
623.985	335
624.192	338
624.399	340
624.606	318
624.812	324
625.019	335
625.226	321
625.433	328
625.639	302
625.846	294
626.053	305
626.259	291
626.466	282
626.673	285
626.879	272
627.086	282
627.293	309
627.499	315
627.706	327
627.912	333
628.119	317
628.325	308
628.532	312
628.738	317
628.945	319
629.151	292
629.357	286
629.564	297
629.77	298
629.976	311
630.183	302
630.389	307
630.595	317
630.802	332
631.008	298
631.214	282
631.42	285
631.627	288
631.833	274
632.039	293
632.245	284
632.451	290
632.657	285
632.863	257
633.069	285
633.275	269
633.481	261
633.688	264
633.893	278
634.099	269
634.305	293
634.511	281
634.717	267
634.923	243
635.129	254
635.335	266
635.541	265
635.747	270
635.952	280
636.158	259
636.364	284
636.57	291
636.775	263
636.981	278
637.187	299
637.392	283
637.598	275
637.804	277
638.009	291
638.215	271
638.421	283
638.626	282
638.832	274
639.037	271
639.243	255
639.448	260
639.654	266
639.859	268
640.065	266
640.27	269
640.475	269
640.681	268
640.886	263
641.091	270
641.297	248
641.502	262
641.707	235
641.913	267
642.118	265
642.323	267
642.528	276
642.733	269
642.939	234
643.144	255
643.349	259
643.554	238
643.759	253
643.964	253
644.169	258
644.374	261
644.579	245
644.784	248
644.989	246
645.194	262
645.399	260
645.604	257
645.809	235
646.014	255
646.219	235
646.423	254
646.628	259
646.833	262
647.038	265
647.243	251
647.447	246
647.652	250
647.857	244
648.062	246
648.266	254
648.471	263
648.676	260
648.88	261
649.085	259
649.289	248
649.494	257
649.698	250
649.903	237
650.107	249
650.312	242
650.516	235
650.721	253
650.925	225
651.13	234
651.334	225
651.539	233
651.743	226
651.947	243
652.152	219
652.356	220
652.56	218
652.764	213
652.969	222
653.173	209
653.377	207
653.581	229
653.785	209
653.99	226
654.194	210
654.398	213
654.602	222
654.806	215
655.01	239
655.214	218
655.418	220
655.622	213
655.826	227
656.03	234
656.234	252
656.438	259
656.642	254
656.846	257
657.049	229
657.253	214
657.457	188
657.661	198
657.865	164
658.068	177
658.272	161
658.476	168
658.68	142
658.883	161
659.087	142
659.291	147
659.494	133
659.698	132
659.901	126
660.105	137
660.309	133
660.512	132
660.716	130
660.919	117
661.123	115
661.326	135
661.53	118
661.733	102
661.936	114
662.14	98
662.343	98
662.546	112
662.75	90
662.953	96
663.156	101
663.36	102
663.563	91
663.766	88
663.969	106
664.173	87
664.376	85
664.579	92
664.782	92
664.985	95
665.188	97
665.391	89
665.594	88
665.797	75
666	82
666.203	78
666.406	87
666.609	93
666.812	96
667.015	101
667.218	87
667.421	78
667.624	83
667.827	102
668.03	79
668.232	89
668.435	101
668.638	91
668.841	99
669.043	92
669.246	82
669.449	78
669.651	99
669.854	100
670.057	82
670.259	84
670.462	85
670.665	90
670.867	81
671.07	100
671.272	90
671.475	80
671.677	78
671.88	76
672.082	82
672.284	87
672.487	97
672.689	96
672.892	86
