Data from WStandard_LampEnergy8_LIBS07252019.E.O._I.C._HRD10591_15-59-57-930.txt Node
Date: Thu Jul 25 15:59:57 EDT 2019
User: cochatt
Spectrometer: HR+D1059
Trigger mode: 1
Integration Time (sec): 1.000000E-1
Scans to average: 1
Electric dark correction enabled: true
Nonlinearity correction enabled: false
Boxcar width: 0
XAxis mode: Wavelengths
Number of Pixels in Spectrum: 2048
>>>>>Begin Spectral Data<<<<<
223.165	-20
223.4	-20
223.635	-20
223.869	-26
224.104	-11
224.338	-12
224.573	-18
224.808	-17
225.042	-7
225.277	-8
225.511	7
225.746	1
225.98	14
226.215	-2
226.449	22
226.683	24
226.918	15
227.152	38
227.387	52
227.621	48
227.856	57
228.09	46
228.324	64
228.559	62
228.793	96
229.027	199
229.262	186
229.496	205
229.73	216
229.964	240
230.199	264
230.433	263
230.667	280
230.901	279
231.136	271
231.37	275
231.604	263
231.838	267
232.072	266
232.306	265
232.541	273
232.775	300
233.009	337
233.243	307
233.477	273
233.711	300
233.945	309
234.179	322
234.413	324
234.647	330
234.881	341
235.115	300
235.349	298
235.583	299
235.817	315
236.051	288
236.285	300
236.519	341
236.753	346
236.987	372
237.221	351
237.455	386
237.689	369
237.922	349
238.156	330
238.39	347
238.624	359
238.858	393
239.091	408
239.325	402
239.559	476
239.793	498
240.027	509
240.26	497
240.494	384
240.728	368
240.961	400
241.195	397
241.429	417
241.662	418
241.896	400
242.13	395
242.363	435
242.597	461
242.83	451
243.064	459
243.298	486
243.531	484
243.765	465
243.998	460
244.232	420
244.465	417
244.699	411
244.932	468
245.166	503
245.399	483
245.633	450
245.866	451
246.099	472
246.333	491
246.566	511
246.8	529
247.033	566
247.266	537
247.5	536
247.733	520
247.966	557
248.2	600
248.433	566
248.666	601
248.899	681
249.133	727
249.366	817
249.599	665
249.832	600
250.066	646
250.299	624
250.532	592
250.765	566
250.998	572
251.231	608
251.465	596
251.698	577
251.931	577
252.164	602
252.397	616
252.63	636
252.863	538
253.096	560
253.329	571
253.562	578
253.795	625
254.028	639
254.261	577
254.494	549
254.727	561
254.96	589
255.193	620
255.426	699
255.659	764
255.892	781
256.124	680
256.357	642
256.59	681
256.823	714
257.056	722
257.289	827
257.521	896
257.754	788
257.987	780
258.22	840
258.452	811
258.685	678
258.918	666
259.151	663
259.383	640
259.616	599
259.849	636
260.081	686
260.314	735
260.547	810
260.779	787
261.012	765
261.244	713
261.477	670
261.71	656
261.942	687
262.175	685
262.407	705
262.64	648
262.872	650
263.105	615
263.337	623
263.57	636
263.802	614
264.035	580
264.267	564
264.499	554
264.732	625
264.964	654
265.197	689
265.429	702
265.661	765
265.894	838
266.126	825
266.358	762
266.591	797
266.823	860
267.055	785
267.287	774
267.52	746
267.752	771
267.984	752
268.216	815
268.448	805
268.681	800
268.913	741
269.145	688
269.377	722
269.609	748
269.841	850
270.073	1030
270.306	1090
270.538	1102
270.77	933
271.002	816
271.234	817
271.466	836
271.698	922
271.93	1046
272.162	1050
272.394	958
272.626	896
272.858	801
273.09	707
273.322	722
273.553	683
273.785	682
274.017	711
274.249	783
274.481	760
274.713	701
274.945	715
275.176	697
275.408	689
275.64	679
275.872	662
276.104	710
276.335	824
276.567	920
276.799	920
277.031	840
277.262	812
277.494	866
277.726	902
277.957	860
278.189	788
278.421	777
278.652	741
278.884	746
279.115	729
279.347	732
279.579	731
279.81	752
280.042	813
280.273	879
280.505	873
280.736	878
280.968	838
281.199	750
281.431	719
281.662	718
281.894	706
282.125	728
282.356	754
282.588	778
282.819	793
283.051	843
283.282	886
283.513	826
283.745	779
283.976	741
284.207	725
284.439	757
284.67	782
284.901	771
285.132	753
285.364	780
285.595	782
285.826	759
286.057	758
286.288	765
286.52	797
286.751	846
286.982	856
287.213	760
287.444	733
287.675	735
287.906	786
288.138	829
288.369	808
288.6	748
288.831	735
289.062	746
289.293	746
289.524	775
289.755	808
289.986	786
290.217	740
290.448	757
290.679	796
290.91	789
291.141	803
291.371	803
291.602	804
291.833	809
292.064	826
292.295	827
292.526	869
292.757	859
292.987	843
293.218	827
293.449	885
293.68	960
293.91	1006
294.141	945
294.372	913
294.603	960
294.833	975
295.064	930
295.295	850
295.525	800
295.756	765
295.987	754
296.217	759
296.448	760
296.679	766
296.909	767
297.14	757
297.37	788
297.601	846
297.831	885
298.062	897
298.292	848
298.523	807
298.753	786
298.984	799
299.214	816
299.445	814
299.675	824
299.905	843
300.136	845
300.366	807
300.597	756
300.827	790
301.057	847
301.288	875
301.518	847
301.748	857
301.979	932
302.209	908
302.439	970
302.669	1012
302.9	943
303.13	855
303.36	854
303.59	888
303.82	874
304.051	863
304.281	864
304.511	864
304.741	951
304.971	1007
305.201	1076
305.431	954
305.661	820
305.891	748
306.121	763
306.352	806
306.582	846
306.812	888
307.042	934
307.272	942
307.502	1008
307.731	1068
307.961	1056
308.191	993
308.421	887
308.651	859
308.881	843
309.111	824
309.341	832
309.571	843
309.8	819
310.03	846
310.26	832
310.49	812
310.72	873
310.949	905
311.179	873
311.409	872
311.639	875
311.868	828
312.098	834
312.328	850
312.557	838
312.787	857
313.017	884
313.246	877
313.476	848
313.706	877
313.935	899
314.165	896
314.394	943
314.624	962
314.853	1042
315.083	1052
315.312	1037
315.542	992
315.771	914
316.001	921
316.23	972
316.46	961
316.689	934
316.919	884
317.148	859
317.377	888
317.607	978
317.836	1055
318.065	1056
318.295	989
318.524	972
318.753	958
318.983	924
319.212	915
319.441	900
319.67	915
319.9	948
320.129	998
320.358	1035
320.587	1050
320.816	1037
321.046	1000
321.275	934
321.504	990
321.733	1040
321.962	994
322.191	954
322.42	962
322.649	915
322.878	928
323.108	945
323.337	960
323.566	958
323.795	928
324.024	933
324.253	933
324.482	933
324.71	926
324.939	879
325.168	895
325.397	975
325.626	964
325.855	965
326.084	913
326.313	938
326.542	940
326.77	966
326.999	961
327.228	907
327.457	892
327.686	885
327.914	917
328.143	954
328.372	936
328.6	955
328.829	930
329.058	912
329.287	905
329.515	941
329.744	954
329.972	1018
330.201	1054
330.43	1034
330.658	976
330.887	1008
331.115	1005
331.344	981
331.572	977
331.801	1005
332.03	992
332.258	993
332.486	1000
332.715	1019
332.943	1014
333.172	990
333.4	1008
333.629	1033
333.857	1123
334.085	1209
334.314	1394
334.542	1375
334.771	1280
334.999	1202
335.227	1090
335.455	1076
335.684	1065
335.912	1087
336.14	1113
336.369	1101
336.597	1007
336.825	971
337.053	1076
337.281	1081
337.51	1133
337.738	1174
337.966	1105
338.194	1013
338.422	1030
338.65	977
338.878	941
339.106	961
339.334	954
339.562	942
339.79	967
340.018	1027
340.246	1054
340.474	1044
340.702	1016
340.93	1041
341.158	1015
341.386	1014
341.614	976
341.842	987
342.07	993
342.298	997
342.526	999
342.754	984
342.981	975
343.209	972
343.437	959
343.665	1004
343.893	1005
344.12	1065
344.348	1048
344.576	1017
344.804	988
345.031	973
345.259	993
345.487	916
345.714	933
345.942	902
346.17	918
346.397	957
346.625	958
346.853	887
347.08	903
347.308	936
347.535	921
347.763	956
347.99	924
348.218	880
348.445	929
348.673	929
348.9	944
349.128	974
349.355	976
349.583	994
349.81	950
350.037	857
350.265	869
350.492	893
350.72	922
350.947	967
351.174	951
351.402	911
351.629	871
351.856	876
352.083	861
352.311	880
352.538	889
352.765	920
352.992	960
353.22	905
353.447	892
353.674	910
353.901	909
354.128	889
354.355	924
354.583	979
354.81	949
355.037	933
355.264	926
355.491	953
355.718	910
355.945	944
356.172	902
356.399	902
356.626	923
356.853	937
357.08	1029
357.307	1114
357.534	1042
357.761	944
357.988	875
358.215	880
358.441	891
358.668	896
358.895	894
359.122	963
359.349	1040
359.576	1008
359.802	911
360.029	872
360.256	904
360.483	902
360.709	946
360.936	972
361.163	1024
361.39	1093
361.616	1164
361.843	1151
362.07	1061
362.296	962
362.523	923
362.749	913
362.976	920
363.203	932
363.429	922
363.656	895
363.882	969
364.109	1048
364.335	1090
364.562	1044
364.788	1004
365.015	948
365.241	886
365.468	914
365.694	958
365.92	994
366.147	934
366.373	897
366.599	926
366.826	907
367.052	926
367.278	958
367.505	957
367.731	960
367.957	953
368.184	988
368.41	1044
368.636	1073
368.862	1052
369.089	1061
369.315	1012
369.541	995
369.767	933
369.993	927
370.219	950
370.445	968
370.672	1038
370.898	1061
371.124	1029
371.35	1022
371.576	1051
371.802	1025
372.028	994
372.254	971
372.48	941
372.706	930
372.932	949
373.158	980
373.384	966
373.61	1044
373.835	1035
374.061	1001
374.287	996
374.513	984
374.739	981
374.965	991
375.191	1018
375.416	1021
375.642	1032
375.868	1118
376.094	1101
376.319	1037
376.545	977
376.771	1025
376.997	1080
377.222	1071
377.448	1032
377.674	1052
377.899	1056
378.125	1114
378.35	1088
378.576	972
378.802	974
379.027	941
379.253	973
379.478	991
379.704	989
379.929	952
380.155	1023
380.38	993
380.606	1010
380.831	1016
381.057	1072
381.282	1088
381.507	1061
381.733	1136
381.958	1133
382.184	1051
382.409	1028
382.634	1051
382.86	1031
383.085	1026
383.31	1083
383.535	1176
383.761	1238
383.986	1146
384.211	1116
384.436	1126
384.662	1203
384.887	1198
385.112	1146
385.337	1140
385.562	1122
385.787	1088
386.013	1151
386.238	1175
386.463	1170
386.688	1247
386.913	1313
387.138	1236
387.363	1206
387.588	1166
387.813	1169
388.038	1196
388.263	1219
388.488	1190
388.713	1092
388.938	1101
389.163	1095
389.387	1094
389.612	1116
389.837	1175
390.062	1174
390.287	1131
390.512	1124
390.736	1119
390.961	1105
391.186	1082
391.411	1125
391.636	1108
391.86	1162
392.085	1100
392.31	1142
392.534	1112
392.759	1146
392.984	1138
393.208	1150
393.433	1173
393.658	1212
393.882	1223
394.107	1118
394.331	1170
394.556	1157
394.78	1174
395.005	1227
395.229	1246
395.454	1327
395.678	1300
395.903	1244
396.127	1212
396.352	1233
396.576	1256
396.801	1239
397.025	1232
397.249	1226
397.474	1218
397.698	1196
397.922	1259
398.147	1358
398.371	1381
398.595	1365
398.82	1311
399.044	1317
399.268	1387
399.492	1440
399.717	1534
399.941	1491
400.165	1445
400.389	1440
400.613	1493
400.837	1632
401.062	1818
401.286	1524
401.51	1458
401.734	1480
401.958	1408
402.182	1328
402.406	1303
402.63	1262
402.854	1311
403.078	1296
403.302	1303
403.526	1355
403.75	1362
403.974	1360
404.198	1381
404.422	1436
404.645	1508
404.869	1429
405.093	1323
405.317	1303
405.541	1328
405.765	1405
405.988	1351
406.212	1379
406.436	1394
406.66	1463
406.883	1475
407.107	1652
407.331	1807
407.555	1932
407.778	1708
408.002	1494
408.226	1405
408.449	1436
408.673	1375
408.896	1402
409.12	1405
409.344	1365
409.567	1312
409.791	1367
410.014	1396
410.238	1476
410.461	1539
410.685	1358
410.908	1321
411.132	1380
411.355	1357
411.578	1340
411.802	1350
412.025	1355
412.249	1332
412.472	1297
412.695	1270
412.919	1306
413.142	1320
413.365	1320
413.589	1332
413.812	1401
414.035	1453
414.258	1318
414.482	1276
414.705	1286
414.928	1306
415.151	1307
415.374	1233
415.597	1321
415.821	1344
416.044	1358
416.267	1326
416.49	1249
416.713	1263
416.936	1301
417.159	1411
417.382	1388
417.605	1304
417.828	1385
418.051	1361
418.274	1306
418.497	1249
418.72	1301
418.943	1268
419.166	1338
419.389	1370
419.611	1336
419.834	1314
420.057	1326
420.28	1300
420.503	1282
420.726	1332
420.948	1357
421.171	1293
421.394	1285
421.617	1355
421.839	1312
422.062	1320
422.285	1284
422.507	1265
422.73	1249
422.953	1228
423.175	1229
423.398	1306
423.621	1300
423.843	1315
424.066	1344
424.288	1380
424.511	1404
424.733	1354
424.956	1253
425.178	1252
425.401	1291
425.623	1273
425.846	1278
426.068	1356
426.291	1348
426.513	1324
426.735	1317
426.958	1427
427.18	1480
427.402	1393
427.625	1436
427.847	1370
428.069	1295
428.292	1238
428.514	1217
428.736	1204
428.958	1229
429.181	1298
429.403	1455
429.625	1762
429.847	1496
430.069	1317
430.292	1461
430.514	1472
430.736	1385
430.958	1375
431.18	1278
431.402	1239
431.624	1226
431.846	1190
432.068	1117
432.29	1184
432.512	1172
432.734	1255
432.956	1296
433.178	1348
433.4	1348
433.622	1339
433.844	1264
434.066	1202
434.287	1199
434.509	1205
434.731	1313
434.953	1352
435.175	1312
435.397	1319
435.618	1271
435.84	1242
436.062	1228
436.284	1289
436.505	1290
436.727	1313
436.949	1302
437.17	1214
437.392	1228
437.614	1202
437.835	1180
438.057	1227
438.278	1249
438.5	1216
438.721	1237
438.943	1246
439.165	1206
439.386	1218
439.608	1273
439.829	1257
440.05	1242
440.272	1258
440.493	1243
440.715	1265
440.936	1377
441.158	1446
441.379	1404
441.6	1386
441.822	1352
442.043	1311
442.264	1320
442.486	1240
442.707	1250
442.928	1285
443.149	1306
443.371	1357
443.592	1368
443.813	1382
444.034	1337
444.255	1378
444.476	1401
444.698	1384
444.919	1404
445.14	1505
445.361	1471
445.582	1440
445.803	1392
446.024	1396
446.245	1444
446.466	1416
446.687	1365
446.908	1320
447.129	1308
447.35	1320
447.571	1310
447.792	1233
448.013	1243
448.234	1276
448.455	1307
448.675	1350
448.896	1211
449.117	1223
449.338	1243
449.559	1289
449.779	1336
450	1425
450.221	1498
450.442	1450
450.662	1315
450.883	1186
451.104	1164
451.324	1209
451.545	1226
451.766	1188
451.986	1144
452.207	1152
452.428	1096
452.648	1105
452.869	1139
453.089	1149
453.31	1184
453.53	1173
453.751	1119
453.971	1040
454.192	1098
454.412	1166
454.633	1113
454.853	1127
455.073	1049
455.294	1036
455.514	1070
455.734	1094
455.955	1076
456.175	1082
456.395	1079
456.616	1097
456.836	1095
457.056	1071
457.276	1094
457.497	1060
457.717	1021
457.937	1074
458.157	1063
458.377	1042
458.598	1014
458.818	1072
459.038	1099
459.258	1170
459.478	1150
459.698	1142
459.918	1153
460.138	1259
460.358	1238
460.578	1261
460.798	1260
461.018	1321
461.238	1314
461.458	1249
461.678	1222
461.898	1238
462.118	1188
462.338	1289
462.558	1240
462.777	1286
462.997	1316
463.217	1380
463.437	1349
463.657	1294
463.876	1276
464.096	1279
464.316	1278
464.536	1319
464.755	1335
464.975	1323
465.195	1260
465.414	1332
465.634	1308
465.854	1302
466.073	1403
466.293	1356
466.512	1198
466.732	1215
466.951	1264
467.171	1244
467.391	1204
467.61	1166
467.829	1239
468.049	1325
468.268	1441
468.488	1350
468.707	1266
468.927	1210
469.146	1197
469.365	1234
469.585	1229
469.804	1207
470.023	1225
470.243	1265
470.462	1211
470.681	1229
470.901	1216
471.12	1255
471.339	1266
471.558	1202
471.777	1170
471.997	1227
472.216	1171
472.435	1126
472.654	1128
472.873	1154
473.092	1262
473.311	1201
473.53	1122
473.749	1140
473.968	1174
474.187	1212
474.406	1256
474.625	1192
474.844	1191
475.063	1241
475.282	1278
475.501	1188
475.72	1208
475.939	1276
476.158	1258
476.377	1208
476.596	1227
476.814	1224
477.033	1204
477.252	1259
477.471	1309
477.69	1304
477.908	1290
478.127	1368
478.346	1444
478.564	1404
478.783	1415
479.002	1472
479.22	1421
479.439	1449
479.658	1564
479.876	1558
480.095	1412
480.313	1344
480.532	1294
480.751	1337
480.969	1269
481.188	1286
481.406	1247
481.624	1220
481.843	1260
482.061	1283
482.28	1351
482.498	1355
482.717	1342
482.935	1302
483.153	1332
483.372	1381
483.59	1376
483.808	1330
484.027	1360
484.245	1433
484.463	1772
484.681	1904
484.9	1494
485.118	1412
485.336	1370
485.554	1360
485.772	1408
485.99	1364
486.209	1396
486.427	1370
486.645	1387
486.863	1427
487.081	1488
487.299	1457
487.517	1452
487.735	1485
487.953	1482
488.171	1512
488.389	1468
488.607	1459
488.825	1582
489.043	1547
489.261	1383
489.479	1458
489.696	1468
489.914	1448
490.132	1419
490.35	1431
490.568	1483
490.786	1491
491.003	1501
491.221	1560
491.439	1638
491.657	1616
491.874	1615
492.092	1666
492.31	1686
492.527	1674
492.745	1634
492.963	1608
493.18	1610
493.398	1689
493.615	1716
493.833	1612
494.05	1546
494.268	1563
494.485	1595
494.703	1560
494.92	1525
495.138	1587
495.355	1533
495.573	1608
495.79	1641
496.008	1700
496.225	1608
496.442	1606
496.66	1631
496.877	1556
497.094	1649
497.312	1616
497.529	1625
497.746	1628
497.963	1849
498.181	1970
498.398	1884
498.615	1848
498.832	1795
499.049	1745
499.267	1807
499.484	1912
499.701	2006
499.918	2098
500.135	2218
500.352	2307
500.569	2368
500.786	2493
501.003	2317
501.22	2108
501.437	2058
501.654	2082
501.871	2004
502.088	1754
502.305	1759
502.522	1677
502.739	1601
502.956	1536
503.172	1578
503.389	1492
503.606	1464
503.823	1515
504.04	1510
504.256	1495
504.473	1505
504.69	1533
504.907	1429
505.123	1430
505.34	1550
505.557	1931
505.773	1626
505.99	1391
506.207	1327
506.423	1313
506.64	1272
506.856	1336
507.073	1468
507.289	1602
507.506	1473
507.722	1302
507.939	1257
508.155	1240
508.372	1240
508.588	1190
508.805	1198
509.021	1164
509.238	1177
509.454	1140
509.67	1162
509.887	1120
510.103	1118
510.319	1149
510.536	1200
510.752	1206
510.968	1208
511.184	1288
511.401	1268
511.617	1135
511.833	1096
512.049	1085
512.265	1077
512.481	1128
512.698	1167
512.914	1207
513.13	1186
513.346	1146
513.562	1098
513.778	1125
513.994	1178
514.21	1191
514.426	1216
514.642	1302
514.858	1224
515.074	1158
515.29	1129
515.506	1147
515.721	1161
515.937	1182
516.153	1302
516.369	1262
516.585	1230
516.801	1146
517.016	1163
517.232	1197
517.448	1213
517.664	1257
517.879	1223
518.095	1252
518.311	1229
518.527	1208
518.742	1199
518.958	1148
519.173	1159
519.389	1156
519.605	1182
519.82	1185
520.036	1179
520.251	1148
520.467	1174
520.682	1232
520.898	1256
521.113	1133
521.329	1136
521.544	1183
521.76	1164
521.975	1121
522.19	1084
522.406	1116
522.621	1384
522.836	1298
523.052	1089
523.267	1124
523.482	1132
523.698	1086
523.913	1002
524.128	1074
524.343	1160
524.559	1164
524.774	1098
524.989	1058
525.204	1057
525.419	1045
525.634	1087
525.849	1072
526.064	1084
526.28	1068
526.495	1012
526.71	982
526.925	1030
527.14	1000
527.355	968
527.57	983
527.785	1000
527.999	1006
528.214	960
528.429	991
528.644	1009
528.859	1095
529.074	1055
529.289	1106
529.503	1124
529.718	1073
529.933	1036
530.148	986
530.363	960
530.577	989
530.792	1000
531.007	1001
531.221	984
531.436	1021
531.651	1041
531.865	1071
532.08	1032
532.295	969
532.509	970
532.724	965
532.938	1021
533.153	1068
533.367	1047
533.582	1075
533.796	1034
534.011	1015
534.225	1006
534.44	983
534.654	996
534.868	969
535.083	1020
535.297	1052
535.511	1045
535.726	1017
535.94	991
536.154	971
536.369	954
536.583	914
536.797	903
537.011	962
537.225	932
537.44	933
537.654	988
537.868	943
538.082	933
538.296	910
538.51	923
538.724	957
538.938	984
539.153	1012
539.367	999
539.581	967
539.795	987
540.009	974
540.222	955
540.436	974
540.65	1048
540.864	1084
541.078	1052
541.292	1009
541.506	1096
541.72	1120
541.934	1176
542.147	1160
542.361	1120
542.575	1066
542.789	1046
543.002	988
543.216	976
543.43	1027
543.644	1081
543.857	1128
544.071	1088
544.285	1099
544.498	1070
544.712	1085
544.925	1130
545.139	1130
545.352	1061
545.566	1069
545.779	1066
545.993	1084
546.206	1112
546.42	1080
546.633	1069
546.847	1052
547.06	1068
547.274	1077
547.487	1098
547.7	1086
547.914	1113
548.127	1105
548.34	1074
548.554	1035
548.767	1082
548.98	1065
549.193	1057
549.407	1112
549.62	1088
549.833	1038
550.046	1031
550.259	1041
550.473	1034
550.686	1048
550.899	1006
551.112	1024
551.325	990
551.538	1033
551.751	1170
551.964	934
552.177	942
552.39	962
552.603	996
552.816	1013
553.029	1022
553.242	1059
553.455	1055
553.667	1048
553.88	1014
554.093	997
554.306	989
554.519	968
554.732	981
554.944	953
555.157	984
555.37	936
555.583	941
555.795	945
556.008	917
556.221	866
556.433	884
556.646	874
556.859	874
557.071	899
557.284	877
557.496	893
557.709	876
557.921	865
558.134	871
558.346	881
558.559	876
558.771	838
558.984	803
559.196	813
559.409	804
559.621	818
559.833	812
560.046	853
560.258	847
560.47	824
560.683	827
560.895	823
561.107	830
561.32	828
561.532	843
561.744	822
561.956	851
562.168	806
562.381	780
562.593	754
562.805	780
563.017	791
563.229	799
563.441	824
563.653	829
563.865	785
564.077	768
564.289	806
564.501	800
564.713	815
564.925	800
565.137	862
565.349	808
565.561	798
565.773	853
565.985	804
566.197	888
566.408	888
566.62	917
566.832	922
567.044	917
567.255	914
567.467	902
567.679	900
567.891	920
568.102	890
568.314	837
568.526	822
568.737	788
568.949	741
569.161	719
569.372	684
569.584	682
569.795	717
570.007	689
570.218	656
570.43	642
570.641	665
570.853	655
571.064	674
571.276	681
571.487	664
571.698	639
571.91	621
572.121	632
572.333	636
572.544	625
572.755	582
572.966	600
573.178	574
573.389	590
573.6	601
573.811	645
574.023	601
574.234	568
574.445	572
574.656	567
574.867	575
575.078	592
575.289	594
575.501	556
575.712	557
575.923	562
576.134	597
576.345	550
576.556	567
576.767	543
576.978	558
577.188	544
577.399	539
577.61	532
577.821	527
578.032	514
578.243	497
578.454	525
578.665	491
578.875	510
579.086	501
579.297	509
579.508	520
579.718	506
579.929	501
580.14	512
580.35	501
580.561	518
580.772	532
580.982	531
581.193	490
581.403	488
581.614	493
581.825	469
582.035	475
582.246	495
582.456	497
582.667	494
582.877	478
583.087	484
583.298	482
583.508	471
583.719	472
583.929	479
584.139	470
584.35	464
584.56	455
584.77	455
584.981	468
585.191	458
585.401	486
585.611	460
585.821	472
586.032	460
586.242	442
586.452	448
586.662	454
586.872	463
587.082	444
587.292	466
587.502	485
587.713	450
587.923	442
588.133	465
588.343	462
588.553	459
588.762	450
588.972	442
589.182	467
589.392	475
589.602	462
589.812	429
590.022	433
590.232	462
590.441	456
590.651	460
590.861	473
591.071	450
591.281	440
591.49	460
591.7	457
591.91	447
592.119	449
592.329	470
592.539	483
592.748	468
592.958	463
593.167	467
593.377	460
593.587	490
593.796	476
594.006	474
594.215	484
594.424	470
594.634	466
594.843	479
595.053	482
595.262	446
595.472	445
595.681	455
595.89	435
596.1	414
596.309	430
596.518	439
596.727	432
596.937	429
597.146	430
597.355	402
597.564	424
597.774	411
597.983	399
598.192	402
598.401	406
598.61	410
598.819	401
599.028	406
599.237	398
599.446	411
599.655	380
599.864	409
600.073	374
600.282	385
600.491	389
600.7	370
600.909	408
601.118	396
601.327	397
601.536	428
601.745	436
601.953	412
602.162	401
602.371	445
602.58	422
602.789	440
602.997	414
603.206	409
603.415	412
603.623	422
603.832	406
604.041	400
604.249	401
604.458	375
604.666	401
604.875	399
605.084	393
605.292	410
605.501	401
605.709	417
605.918	392
606.126	380
606.334	396
606.543	413
606.751	402
606.96	401
607.168	398
607.376	412
607.585	388
607.793	414
608.001	408
608.21	398
608.418	397
608.626	411
608.834	405
609.043	397
609.251	390
609.459	402
609.667	394
609.875	404
610.083	421
610.291	402
610.499	403
610.707	406
610.916	398
611.124	402
611.332	403
611.54	390
611.748	398
611.955	381
612.163	382
612.371	386
612.579	393
612.787	393
612.995	414
613.203	399
613.411	387
613.618	401
613.826	384
614.034	392
614.242	399
614.449	382
614.657	408
614.865	392
615.072	408
615.28	380
615.488	387
615.695	397
615.903	388
616.111	402
616.318	400
616.526	379
616.733	384
616.941	380
617.148	388
617.356	374
617.563	373
617.771	396
617.978	382
618.185	375
618.393	373
618.6	388
618.807	374
619.015	381
619.222	367
619.429	386
619.637	372
619.844	344
620.051	352
620.258	355
620.466	353
620.673	348
620.88	345
621.087	353
621.294	347
621.501	342
621.708	344
621.915	343
622.122	349
622.329	356
622.536	359
622.743	347
622.95	355
623.157	348
623.364	352
623.571	369
623.778	380
623.985	352
624.192	344
624.399	346
624.606	339
624.812	346
625.019	344
625.226	336
625.433	341
625.639	324
625.846	300
626.053	298
626.259	316
626.466	305
626.673	296
626.879	272
627.086	292
627.293	311
627.499	331
627.706	322
627.912	326
628.119	352
628.325	322
628.532	325
628.738	327
628.945	277
629.151	310
629.357	310
629.564	317
629.77	306
629.976	306
630.183	310
630.389	300
630.595	320
630.802	312
631.008	314
631.214	301
631.42	302
631.627	276
631.833	270
632.039	278
632.245	294
632.451	288
632.657	292
632.863	296
633.069	294
633.275	289
633.481	295
633.688	299
633.893	305
634.099	276
634.305	271
634.511	304
634.717	293
634.923	274
635.129	273
635.335	279
635.541	275
635.747	298
635.952	287
636.158	287
636.364	289
636.57	275
636.775	279
636.981	279
637.187	284
637.392	282
637.598	283
637.804	285
638.009	286
638.215	273
638.421	268
638.626	288
638.832	265
639.037	269
639.243	261
639.448	257
639.654	249
639.859	262
640.065	252
640.27	262
640.475	253
640.681	266
640.886	263
641.091	271
641.297	270
641.502	276
641.707	267
641.913	271
642.118	277
642.323	248
642.528	273
642.733	268
642.939	271
643.144	263
643.349	265
643.554	277
643.759	249
643.964	254
644.169	268
644.374	251
644.579	265
644.784	272
644.989	258
645.194	263
645.399	258
645.604	244
645.809	260
646.014	250
646.219	261
646.423	269
646.628	242
646.833	274
647.038	258
647.243	272
647.447	261
647.652	280
647.857	255
648.062	260
648.266	263
648.471	264
648.676	263
648.88	268
649.085	265
649.289	264
649.494	250
649.698	253
649.903	252
650.107	248
650.312	261
650.516	268
650.721	250
650.925	244
651.13	245
651.334	232
651.539	242
651.743	245
651.947	246
652.152	242
652.356	241
652.56	238
652.764	230
652.969	235
653.173	238
653.377	214
653.581	231
653.785	228
653.99	218
654.194	218
654.398	215
654.602	222
654.806	231
655.01	220
655.214	249
655.418	217
655.622	258
655.826	231
656.03	240
656.234	241
656.438	267
656.642	270
656.846	257
657.049	233
657.253	215
657.457	210
657.661	201
657.865	182
658.068	175
658.272	175
658.476	161
658.68	169
658.883	164
659.087	160
659.291	134
659.494	144
659.698	129
659.901	125
660.105	154
660.309	142
660.512	133
660.716	124
660.919	134
661.123	123
661.326	116
661.53	120
661.733	112
661.936	100
662.14	90
662.343	109
662.546	108
662.75	94
662.953	103
663.156	108
663.36	102
663.563	83
663.766	80
663.969	106
664.173	101
664.376	101
664.579	82
664.782	87
664.985	96
665.188	112
665.391	70
665.594	81
665.797	89
666	88
666.203	96
666.406	80
666.609	76
666.812	73
667.015	96
667.218	81
667.421	93
667.624	85
667.827	84
668.03	86
668.232	74
668.435	90
668.638	99
668.841	92
669.043	90
669.246	80
669.449	87
669.651	89
669.854	83
670.057	97
670.259	91
670.462	92
670.665	78
670.867	79
671.07	94
671.272	91
671.475	89
671.677	102
671.88	86
672.082	95
672.284	87
672.487	102
672.689	79
672.892	69
