Data from WStandard_LampEnergy8_LIBS07252019.E.O._I.C._HRD10591_16-00-18-930.txt Node
Date: Thu Jul 25 16:00:18 EDT 2019
User: cochatt
Spectrometer: HR+D1059
Trigger mode: 1
Integration Time (sec): 1.000000E-1
Scans to average: 1
Electric dark correction enabled: true
Nonlinearity correction enabled: false
Boxcar width: 0
XAxis mode: Wavelengths
Number of Pixels in Spectrum: 2048
>>>>>Begin Spectral Data<<<<<
223.165	-13
223.4	-13
223.635	-13
223.869	-15
224.104	-8
224.338	-19
224.573	-26
224.808	-7
225.042	-3
225.277	-8
225.511	-13
225.746	6
225.98	7
226.215	10
226.449	25
226.683	14
226.918	24
227.152	26
227.387	40
227.621	36
227.856	43
228.09	51
228.324	52
228.559	46
228.793	103
229.027	193
229.262	202
229.496	234
229.73	221
229.964	239
230.199	263
230.433	264
230.667	255
230.901	307
231.136	261
231.37	257
231.604	254
231.838	256
232.072	262
232.306	265
232.541	263
232.775	308
233.009	313
233.243	324
233.477	295
233.711	313
233.945	327
234.179	312
234.413	315
234.647	324
234.881	306
235.115	295
235.349	301
235.583	283
235.817	292
236.051	304
236.285	291
236.519	322
236.753	356
236.987	341
237.221	344
237.455	376
237.689	374
237.922	343
238.156	344
238.39	342
238.624	359
238.858	388
239.091	389
239.325	427
239.559	487
239.793	489
240.027	498
240.26	489
240.494	371
240.728	368
240.961	376
241.195	373
241.429	409
241.662	413
241.896	371
242.13	384
242.363	448
242.597	441
242.83	439
243.064	442
243.298	462
243.531	467
243.765	454
243.998	468
244.232	404
244.465	410
244.699	429
244.932	455
245.166	506
245.399	471
245.633	450
245.866	438
246.099	468
246.333	486
246.566	469
246.8	530
247.033	552
247.266	526
247.5	515
247.733	522
247.966	554
248.2	616
248.433	588
248.666	622
248.899	675
249.133	742
249.366	773
249.599	676
249.832	621
250.066	615
250.299	605
250.532	590
250.765	539
250.998	577
251.231	588
251.465	594
251.698	590
251.931	574
252.164	582
252.397	594
252.63	604
252.863	554
253.096	542
253.329	564
253.562	599
253.795	638
254.028	592
254.261	584
254.494	580
254.727	548
254.96	568
255.193	620
255.426	703
255.659	787
255.892	773
256.124	685
256.357	625
256.59	682
256.823	709
257.056	696
257.289	840
257.521	872
257.754	818
257.987	777
258.22	829
258.452	792
258.685	681
258.918	658
259.151	661
259.383	648
259.616	604
259.849	609
260.081	678
260.314	752
260.547	807
260.779	810
261.012	725
261.244	676
261.477	654
261.71	670
261.942	676
262.175	662
262.407	689
262.64	660
262.872	622
263.105	606
263.337	617
263.57	637
263.802	634
264.035	594
264.267	560
264.499	553
264.732	610
264.964	648
265.197	654
265.429	704
265.661	779
265.894	860
266.126	857
266.358	773
266.591	792
266.823	850
267.055	756
267.287	781
267.52	765
267.752	738
267.984	742
268.216	789
268.448	811
268.681	758
268.913	717
269.145	674
269.377	702
269.609	734
269.841	854
270.073	978
270.306	1106
270.538	1097
270.77	931
271.002	836
271.234	762
271.466	802
271.698	909
271.93	1026
272.162	1033
272.394	933
272.626	885
272.858	794
273.09	692
273.322	717
273.553	665
273.785	674
274.017	714
274.249	738
274.481	737
274.713	696
274.945	664
275.176	705
275.408	684
275.64	664
275.872	686
276.104	740
276.335	840
276.567	922
276.799	894
277.031	861
277.262	814
277.494	828
277.726	892
277.957	861
278.189	798
278.421	732
278.652	734
278.884	726
279.115	722
279.347	734
279.579	724
279.81	718
280.042	785
280.273	877
280.505	855
280.736	896
280.968	796
281.199	733
281.431	721
281.662	713
281.894	733
282.125	718
282.356	760
282.588	779
282.819	756
283.051	838
283.282	900
283.513	830
283.745	766
283.976	727
284.207	720
284.439	735
284.67	745
284.901	757
285.132	793
285.364	768
285.595	773
285.826	774
286.057	732
286.288	752
286.52	772
286.751	818
286.982	849
287.213	782
287.444	708
287.675	753
287.906	780
288.138	824
288.369	808
288.6	761
288.831	717
289.062	754
289.293	787
289.524	746
289.755	806
289.986	799
290.217	702
290.448	757
290.679	772
290.91	769
291.141	798
291.371	837
291.602	796
291.833	803
292.064	838
292.295	832
292.526	820
292.757	872
292.987	806
293.218	799
293.449	892
293.68	939
293.91	991
294.141	947
294.372	917
294.603	937
294.833	970
295.064	911
295.295	829
295.525	761
295.756	744
295.987	741
296.217	738
296.448	774
296.679	767
296.909	761
297.14	778
297.37	815
297.601	835
297.831	874
298.062	851
298.292	793
298.523	770
298.753	773
298.984	779
299.214	805
299.445	818
299.675	849
299.905	840
300.136	782
300.366	818
300.597	749
300.827	783
301.057	798
301.288	813
301.518	864
301.748	868
301.979	895
302.209	922
302.439	973
302.669	1011
302.9	924
303.13	852
303.36	854
303.59	839
303.82	841
304.051	871
304.281	868
304.511	860
304.741	938
304.971	1019
305.201	1091
305.431	948
305.661	789
305.891	756
306.121	757
306.352	797
306.582	830
306.812	901
307.042	946
307.272	965
307.502	982
307.731	1053
307.961	1058
308.191	985
308.421	880
308.651	825
308.881	813
309.111	812
309.341	797
309.571	837
309.8	850
310.03	836
310.26	832
310.49	821
310.72	819
310.949	902
311.179	892
311.409	845
311.639	829
311.868	828
312.098	851
312.328	850
312.557	868
312.787	874
313.017	877
313.246	849
313.476	857
313.706	892
313.935	874
314.165	875
314.394	898
314.624	940
314.853	1018
315.083	1056
315.312	1059
315.542	972
315.771	908
316.001	913
316.23	937
316.46	920
316.689	925
316.919	864
317.148	868
317.377	894
317.607	952
317.836	1029
318.065	1069
318.295	1027
318.524	1015
318.753	939
318.983	938
319.212	896
319.441	898
319.67	904
319.9	937
320.129	993
320.358	1016
320.587	1039
320.816	1001
321.046	987
321.275	952
321.504	990
321.733	1031
321.962	983
322.191	929
322.42	914
322.649	937
322.878	940
323.108	924
323.337	960
323.566	962
323.795	958
324.024	941
324.253	925
324.482	945
324.71	922
324.939	888
325.168	913
325.397	924
325.626	939
325.855	928
326.084	913
326.313	926
326.542	949
326.77	946
326.999	956
327.228	939
327.457	884
327.686	891
327.914	919
328.143	938
328.372	911
328.6	928
328.829	930
329.058	904
329.287	918
329.515	938
329.744	964
329.972	997
330.201	1008
330.43	1008
330.658	940
330.887	982
331.115	965
331.344	992
331.572	983
331.801	978
332.03	980
332.258	997
332.486	1009
332.715	987
332.943	974
333.172	984
333.4	1008
333.629	1037
333.857	1109
334.085	1210
334.314	1411
334.542	1420
334.771	1305
334.999	1170
335.227	1108
335.455	1060
335.684	1025
335.912	1090
336.14	1123
336.369	1038
336.597	1000
336.825	1001
337.053	1051
337.281	1112
337.51	1156
337.738	1178
337.966	1110
338.194	1014
338.422	980
338.65	990
338.878	953
339.106	928
339.334	921
339.562	930
339.79	978
340.018	1003
340.246	1054
340.474	1046
340.702	1033
340.93	1005
341.158	1033
341.386	1000
341.614	1019
341.842	989
342.07	994
342.298	1032
342.526	977
342.754	978
342.981	970
343.209	1001
343.437	976
343.665	978
343.893	1014
344.12	1050
344.348	1065
344.576	1015
344.804	971
345.031	980
345.259	969
345.487	928
345.714	913
345.942	904
346.17	890
346.397	948
346.625	920
346.853	906
347.08	891
347.308	923
347.535	899
347.763	953
347.99	925
348.218	891
348.445	894
348.673	939
348.9	969
349.128	987
349.355	1013
349.583	958
349.81	916
350.037	866
350.265	886
350.492	888
350.72	916
350.947	905
351.174	937
351.402	890
351.629	881
351.856	844
352.083	852
352.311	891
352.538	880
352.765	950
352.992	945
353.22	927
353.447	900
353.674	916
353.901	911
354.128	903
354.355	910
354.583	937
354.81	953
355.037	931
355.264	931
355.491	939
355.718	968
355.945	930
356.172	893
356.399	850
356.626	911
356.853	957
357.08	1029
357.307	1091
357.534	1083
357.761	916
357.988	901
358.215	875
358.441	876
358.668	884
358.895	910
359.122	970
359.349	1035
359.576	1012
359.802	940
360.029	898
360.256	906
360.483	922
360.709	936
360.936	937
361.163	1002
361.39	1062
361.616	1158
361.843	1115
362.07	1050
362.296	937
362.523	900
362.749	944
362.976	949
363.203	955
363.429	905
363.656	890
363.882	951
364.109	1036
364.335	1126
364.562	1023
364.788	963
365.015	956
365.241	924
365.468	934
365.694	1008
365.92	1002
366.147	963
366.373	906
366.599	896
366.826	886
367.052	917
367.278	927
367.505	941
367.731	955
367.957	957
368.184	986
368.41	1027
368.636	1062
368.862	1064
369.089	1031
369.315	1020
369.541	977
369.767	932
369.993	922
370.219	939
370.445	964
370.672	1042
370.898	1064
371.124	1015
371.35	995
371.576	1023
371.802	1025
372.028	1001
372.254	960
372.48	938
372.706	944
372.932	960
373.158	952
373.384	975
373.61	1002
373.835	1033
374.061	987
374.287	984
374.513	974
374.739	969
374.965	1005
375.191	995
375.416	1011
375.642	1034
375.868	1068
376.094	1098
376.319	1046
376.545	1001
376.771	1076
376.997	1099
377.222	1035
377.448	1018
377.674	1039
377.899	1062
378.125	1081
378.35	1073
378.576	1022
378.802	932
379.027	971
379.253	987
379.478	972
379.704	966
379.929	974
380.155	1003
380.38	988
380.606	1008
380.831	1015
381.057	1095
381.282	1076
381.507	1046
381.733	1112
381.958	1128
382.184	1045
382.409	1048
382.634	1026
382.86	998
383.085	1040
383.31	1121
383.535	1166
383.761	1211
383.986	1148
384.211	1119
384.436	1131
384.662	1177
384.887	1183
385.112	1149
385.337	1139
385.562	1108
385.787	1146
386.013	1168
386.238	1155
386.463	1186
386.688	1274
386.913	1333
387.138	1258
387.363	1173
387.588	1179
387.813	1164
388.038	1174
388.263	1220
388.488	1162
388.713	1079
388.938	1117
389.163	1088
389.387	1131
389.612	1108
389.837	1156
390.062	1163
390.287	1140
390.512	1115
390.736	1150
390.961	1075
391.186	1078
391.411	1088
391.636	1106
391.86	1109
392.085	1108
392.31	1120
392.534	1112
392.759	1145
392.984	1118
393.208	1160
393.433	1181
393.658	1208
393.882	1240
394.107	1186
394.331	1117
394.556	1163
394.78	1136
395.005	1171
395.229	1213
395.454	1296
395.678	1315
395.903	1251
396.127	1208
396.352	1240
396.576	1254
396.801	1234
397.025	1234
397.249	1249
397.474	1231
397.698	1244
397.922	1280
398.147	1296
398.371	1351
398.595	1346
398.82	1314
399.044	1363
399.268	1378
399.492	1463
399.717	1499
399.941	1491
400.165	1458
400.389	1421
400.613	1477
400.837	1659
401.062	1813
401.286	1541
401.51	1469
401.734	1437
401.958	1396
402.182	1296
402.406	1270
402.63	1266
402.854	1313
403.078	1308
403.302	1318
403.526	1357
403.75	1348
403.974	1356
404.198	1358
404.422	1414
404.645	1466
404.869	1422
405.093	1333
405.317	1306
405.541	1349
405.765	1328
405.988	1380
406.212	1373
406.436	1428
406.66	1447
406.883	1485
407.107	1675
407.331	1825
407.555	1888
407.778	1670
408.002	1423
408.226	1414
408.449	1413
408.673	1384
408.896	1404
409.12	1410
409.344	1389
409.567	1313
409.791	1370
410.014	1395
410.238	1482
410.461	1548
410.685	1359
410.908	1315
411.132	1348
411.355	1351
411.578	1318
411.802	1344
412.025	1369
412.249	1366
412.472	1299
412.695	1293
412.919	1289
413.142	1319
413.365	1298
413.589	1372
413.812	1402
414.035	1435
414.258	1361
414.482	1336
414.705	1308
414.928	1325
415.151	1310
415.374	1320
415.597	1353
415.821	1345
416.044	1361
416.267	1363
416.49	1266
416.713	1285
416.936	1339
417.159	1397
417.382	1319
417.605	1271
417.828	1276
418.051	1318
418.274	1332
418.497	1305
418.72	1288
418.943	1271
419.166	1337
419.389	1345
419.611	1316
419.834	1299
420.057	1363
420.28	1289
420.503	1297
420.726	1306
420.948	1290
421.171	1263
421.394	1251
421.617	1346
421.839	1331
422.062	1336
422.285	1310
422.507	1286
422.73	1212
422.953	1225
423.175	1243
423.398	1283
423.621	1237
423.843	1275
424.066	1324
424.288	1410
424.511	1423
424.733	1393
424.956	1257
425.178	1193
425.401	1294
425.623	1276
425.846	1268
426.068	1345
426.291	1346
426.513	1343
426.735	1306
426.958	1442
427.18	1502
427.402	1357
427.625	1404
427.847	1377
428.069	1258
428.292	1246
428.514	1252
428.736	1208
428.958	1253
429.181	1257
429.403	1461
429.625	1766
429.847	1495
430.069	1318
430.292	1496
430.514	1431
430.736	1346
430.958	1348
431.18	1288
431.402	1212
431.624	1216
431.846	1172
432.068	1152
432.29	1152
432.512	1172
432.734	1265
432.956	1267
433.178	1340
433.4	1303
433.622	1315
433.844	1252
434.066	1179
434.287	1172
434.509	1212
434.731	1251
434.953	1352
435.175	1321
435.397	1267
435.618	1269
435.84	1243
436.062	1221
436.284	1253
436.505	1290
436.727	1260
436.949	1272
437.17	1243
437.392	1225
437.614	1184
437.835	1163
438.057	1220
438.278	1264
438.5	1231
438.721	1245
438.943	1247
439.165	1238
439.386	1252
439.608	1259
439.829	1281
440.05	1257
440.272	1237
440.493	1250
440.715	1241
440.936	1366
441.158	1420
441.379	1406
441.6	1366
441.822	1365
442.043	1353
442.264	1324
442.486	1270
442.707	1239
442.928	1262
443.149	1290
443.371	1318
443.592	1389
443.813	1362
444.034	1388
444.255	1330
444.476	1405
444.698	1419
444.919	1357
445.14	1490
445.361	1456
445.582	1447
445.803	1399
446.024	1371
446.245	1411
446.466	1374
446.687	1343
446.908	1325
447.129	1265
447.35	1305
447.571	1284
447.792	1252
448.013	1221
448.234	1281
448.455	1334
448.675	1299
448.896	1201
449.117	1172
449.338	1249
449.559	1287
449.779	1298
450	1419
450.221	1507
450.442	1448
450.662	1280
450.883	1161
451.104	1173
451.324	1211
451.545	1231
451.766	1212
451.986	1133
452.207	1136
452.428	1105
452.648	1080
452.869	1098
453.089	1123
453.31	1146
453.53	1146
453.751	1100
453.971	1048
454.192	1113
454.412	1165
454.633	1107
454.853	1084
455.073	1076
455.294	1061
455.514	1070
455.734	1048
455.955	1105
456.175	1057
456.395	1076
456.616	1060
456.836	1075
457.056	1089
457.276	1065
457.497	1072
457.717	1006
457.937	1041
458.157	1095
458.377	1081
458.598	1035
458.818	1069
459.038	1094
459.258	1122
459.478	1132
459.698	1098
459.918	1168
460.138	1209
460.358	1228
460.578	1230
460.798	1290
461.018	1358
461.238	1303
461.458	1248
461.678	1233
461.898	1217
462.118	1188
462.338	1256
462.558	1243
462.777	1276
462.997	1317
463.217	1378
463.437	1333
463.657	1245
463.876	1228
464.096	1276
464.316	1260
464.536	1294
464.755	1334
464.975	1307
465.195	1281
465.414	1315
465.634	1302
465.854	1252
466.073	1372
466.293	1363
466.512	1194
466.732	1184
466.951	1248
467.171	1230
467.391	1197
467.61	1199
467.829	1221
468.049	1340
468.268	1445
468.488	1334
468.707	1240
468.927	1214
469.146	1236
469.365	1223
469.585	1243
469.804	1220
470.023	1214
470.243	1248
470.462	1226
470.681	1212
470.901	1232
471.12	1240
471.339	1230
471.558	1192
471.777	1180
471.997	1204
472.216	1190
472.435	1121
472.654	1105
472.873	1139
473.092	1202
473.311	1189
473.53	1124
473.749	1147
473.968	1188
474.187	1198
474.406	1245
474.625	1211
474.844	1193
475.063	1220
475.282	1259
475.501	1183
475.72	1209
475.939	1295
476.158	1238
476.377	1207
476.596	1221
476.814	1198
477.033	1221
477.252	1286
477.471	1316
477.69	1289
477.908	1258
478.127	1357
478.346	1428
478.564	1426
478.783	1408
479.002	1426
479.22	1407
479.439	1487
479.658	1589
479.876	1483
480.095	1383
480.313	1332
480.532	1278
480.751	1296
480.969	1283
481.188	1288
481.406	1258
481.624	1243
481.843	1251
482.061	1275
482.28	1340
482.498	1324
482.717	1304
482.935	1307
483.153	1355
483.372	1396
483.59	1363
483.808	1339
484.027	1398
484.245	1472
484.463	1728
484.681	1846
484.9	1431
485.118	1368
485.336	1340
485.554	1353
485.772	1375
485.99	1341
486.209	1369
486.427	1385
486.645	1385
486.863	1422
487.081	1466
487.299	1431
487.517	1472
487.735	1477
487.953	1514
488.171	1490
488.389	1469
488.607	1470
488.825	1608
489.043	1522
489.261	1381
489.479	1451
489.696	1496
489.914	1486
490.132	1412
490.35	1446
490.568	1543
490.786	1499
491.003	1501
491.221	1562
491.439	1596
491.657	1594
491.874	1641
492.092	1657
492.31	1679
492.527	1660
492.745	1613
492.963	1596
493.18	1601
493.398	1684
493.615	1704
493.833	1599
494.05	1552
494.268	1556
494.485	1572
494.703	1545
494.92	1536
495.138	1598
495.355	1578
495.573	1596
495.79	1669
496.008	1672
496.225	1562
496.442	1570
496.66	1608
496.877	1600
497.094	1610
497.312	1622
497.529	1580
497.746	1645
497.963	1859
498.181	1967
498.398	1887
498.615	1807
498.832	1797
499.049	1751
499.267	1769
499.484	1892
499.701	2058
499.918	2040
500.135	2235
500.352	2372
500.569	2349
500.786	2549
501.003	2324
501.22	2096
501.437	2066
501.654	2099
501.871	2010
502.088	1762
502.305	1750
502.522	1677
502.739	1597
502.956	1579
503.172	1559
503.389	1536
503.606	1460
503.823	1496
504.04	1481
504.256	1476
504.473	1492
504.69	1529
504.907	1452
505.123	1408
505.34	1589
505.557	1965
505.773	1626
505.99	1396
506.207	1345
506.423	1259
506.64	1292
506.856	1346
507.073	1495
507.289	1572
507.506	1492
507.722	1300
507.939	1236
508.155	1267
508.372	1265
508.588	1189
508.805	1190
509.021	1169
509.238	1140
509.454	1125
509.67	1156
509.887	1148
510.103	1160
510.319	1162
510.536	1215
510.752	1238
510.968	1218
511.184	1255
511.401	1236
511.617	1151
511.833	1102
512.049	1097
512.265	1087
512.481	1125
512.698	1150
512.914	1217
513.13	1204
513.346	1142
513.562	1081
513.778	1138
513.994	1172
514.21	1195
514.426	1193
514.642	1270
514.858	1232
515.074	1150
515.29	1137
515.506	1157
515.721	1155
515.937	1187
516.153	1301
516.369	1253
516.585	1181
516.801	1156
517.016	1166
517.232	1165
517.448	1200
517.664	1234
517.879	1217
518.095	1285
518.311	1238
518.527	1184
518.742	1157
518.958	1136
519.173	1117
519.389	1178
519.605	1193
519.82	1151
520.036	1156
520.251	1156
520.467	1178
520.682	1239
520.898	1243
521.113	1138
521.329	1125
521.544	1180
521.76	1129
521.975	1090
522.19	1063
522.406	1139
522.621	1376
522.836	1330
523.052	1124
523.267	1098
523.482	1105
523.698	1068
523.913	1049
524.128	1113
524.343	1142
524.559	1152
524.774	1097
524.989	1076
525.204	1084
525.419	1060
525.634	1029
525.849	1049
526.064	1068
526.28	1074
526.495	1010
526.71	993
526.925	985
527.14	1008
527.355	972
527.57	975
527.785	1027
527.999	986
528.214	990
528.429	964
528.644	1035
528.859	1044
529.074	1052
529.289	1088
529.503	1120
529.718	1082
529.933	1011
530.148	985
530.363	979
530.577	1019
530.792	984
531.007	956
531.221	965
531.436	1007
531.651	1033
531.865	1063
532.08	1028
532.295	954
532.509	931
532.724	961
532.938	1013
533.153	1078
533.367	1046
533.582	1025
533.796	1002
534.011	1020
534.225	1010
534.44	953
534.654	980
534.868	968
535.083	1028
535.297	1016
535.511	995
535.726	1005
535.94	1017
536.154	999
536.369	968
536.583	922
536.797	923
537.011	962
537.225	922
537.44	899
537.654	977
537.868	946
538.082	900
538.296	897
538.51	916
538.724	937
538.938	966
539.153	995
539.367	994
539.581	969
539.795	1002
540.009	955
540.222	955
540.436	953
540.65	1045
540.864	1094
541.078	1056
541.292	1038
541.506	1078
541.72	1100
541.934	1147
542.147	1172
542.361	1137
542.575	1090
542.789	996
543.002	954
543.216	953
543.43	1020
543.644	1069
543.857	1109
544.071	1109
544.285	1093
544.498	1100
544.712	1101
544.925	1078
545.139	1102
545.352	1077
545.566	1052
545.779	1068
545.993	1070
546.206	1110
546.42	1066
546.633	1056
546.847	1064
547.06	1022
547.274	1042
547.487	1091
547.7	1085
547.914	1105
548.127	1096
548.34	1058
548.554	1077
548.767	1070
548.98	1081
549.193	1071
549.407	1080
549.62	1100
549.833	1077
550.046	1028
550.259	1033
550.473	1031
550.686	1016
550.899	1001
551.112	992
551.325	986
551.538	1039
551.751	1126
551.964	938
552.177	917
552.39	966
552.603	998
552.816	1008
553.029	1052
553.242	1052
553.455	1064
553.667	1058
553.88	1046
554.093	1055
554.306	992
554.519	972
554.732	993
554.944	978
555.157	988
555.37	949
555.583	934
555.795	950
556.008	879
556.221	867
556.433	881
556.646	888
556.859	891
557.071	873
557.284	883
557.496	880
557.709	867
557.921	870
558.134	855
558.346	882
558.559	869
558.771	866
558.984	823
559.196	799
559.409	809
559.621	817
559.833	822
560.046	838
560.258	828
560.47	806
560.683	852
560.895	800
561.107	832
561.32	806
561.532	825
561.744	816
561.956	827
562.168	793
562.381	779
562.593	788
562.805	792
563.017	771
563.229	824
563.441	820
563.653	788
563.865	775
564.077	778
564.289	788
564.501	780
564.713	806
564.925	842
565.137	864
565.349	838
565.561	799
565.773	802
565.985	805
566.197	835
566.408	945
566.62	916
566.832	889
567.044	921
567.255	899
567.467	914
567.679	929
567.891	945
568.102	917
568.314	873
568.526	813
568.737	801
568.949	741
569.161	699
569.372	697
569.584	675
569.795	684
570.007	686
570.218	667
570.43	643
570.641	664
570.853	654
571.064	691
571.276	656
571.487	640
571.698	639
571.91	638
572.121	640
572.333	606
572.544	618
572.755	578
572.966	594
573.178	580
573.389	586
573.6	597
573.811	658
574.023	599
574.234	571
574.445	566
574.656	554
574.867	564
575.078	570
575.289	556
575.501	553
575.712	550
575.923	546
576.134	563
576.345	544
576.556	559
576.767	562
576.978	541
577.188	537
577.399	542
577.61	540
577.821	508
578.032	522
578.243	529
578.454	530
578.665	500
578.875	486
579.086	490
579.297	493
579.508	527
579.718	491
579.929	499
580.14	484
580.35	474
580.561	504
580.772	538
580.982	538
581.193	499
581.403	502
581.614	526
581.825	499
582.035	491
582.246	477
582.456	491
582.667	477
582.877	494
583.087	478
583.298	461
583.508	462
583.719	469
583.929	460
584.139	484
584.35	461
584.56	454
584.77	465
584.981	462
585.191	457
585.401	470
585.611	486
585.821	448
586.032	443
586.242	440
586.452	444
586.662	435
586.872	452
587.082	441
587.292	462
587.502	472
587.713	479
587.923	462
588.133	464
588.343	448
588.553	441
588.762	454
588.972	454
589.182	458
589.392	434
589.602	456
589.812	438
590.022	452
590.232	448
590.441	445
590.651	450
590.861	445
591.071	419
591.281	437
591.49	435
591.7	445
591.91	425
592.119	436
592.329	468
592.539	472
592.748	450
592.958	456
593.167	459
593.377	473
593.587	466
593.796	471
594.006	468
594.215	462
594.424	477
594.634	476
594.843	472
595.053	475
595.262	451
595.472	448
595.681	426
595.89	455
596.1	436
596.309	440
596.518	438
596.727	424
596.937	434
597.146	430
597.355	420
597.564	421
597.774	388
597.983	400
598.192	390
598.401	372
598.61	391
598.819	384
599.028	388
599.237	394
599.446	385
599.655	384
599.864	388
600.073	367
600.282	376
600.491	380
600.7	398
600.909	394
601.118	389
601.327	412
601.536	396
601.745	393
601.953	422
602.162	414
602.371	417
602.58	412
602.789	428
602.997	417
603.206	395
603.415	411
603.623	415
603.832	407
604.041	406
604.249	380
604.458	357
604.666	362
604.875	394
605.084	388
605.292	398
605.501	397
605.709	416
605.918	371
606.126	404
606.334	408
606.543	396
606.751	408
606.96	417
607.168	416
607.376	391
607.585	411
607.793	403
608.001	404
608.21	410
608.418	406
608.626	417
608.834	384
609.043	410
609.251	406
609.459	382
609.667	415
609.875	396
610.083	407
610.291	414
610.499	381
610.707	376
610.916	389
611.124	397
611.332	394
611.54	379
611.748	394
611.955	395
612.163	381
612.371	395
612.579	388
612.787	398
612.995	390
613.203	385
613.411	382
613.618	390
613.826	391
614.034	373
614.242	390
614.449	387
614.657	381
614.865	378
615.072	394
615.28	384
615.488	379
615.695	400
615.903	412
616.111	379
616.318	405
616.526	378
616.733	401
616.941	398
617.148	393
617.356	375
617.563	390
617.771	386
617.978	378
618.185	382
618.393	392
618.6	387
618.807	396
619.015	368
619.222	379
619.429	372
619.637	337
619.844	336
620.051	356
620.258	350
620.466	363
620.673	359
620.88	352
621.087	351
621.294	329
621.501	335
621.708	345
621.915	339
622.122	362
622.329	364
622.536	377
622.743	355
622.95	354
623.157	348
623.364	346
623.571	341
623.778	341
623.985	355
624.192	333
624.399	318
624.606	326
624.812	334
625.019	341
625.226	328
625.433	315
625.639	316
625.846	323
626.053	299
626.259	293
626.466	313
626.673	288
626.879	288
627.086	294
627.293	308
627.499	318
627.706	334
627.912	323
628.119	318
628.325	336
628.532	333
628.738	330
628.945	316
629.151	314
629.357	315
629.564	310
629.77	297
629.976	309
630.183	297
630.389	288
630.595	305
630.802	286
631.008	317
631.214	297
631.42	282
631.627	293
631.833	301
632.039	299
632.245	286
632.451	298
632.657	290
632.863	286
633.069	283
633.275	279
633.481	274
633.688	285
633.893	303
634.099	271
634.305	277
634.511	277
634.717	263
634.923	245
635.129	264
635.335	262
635.541	263
635.747	282
635.952	280
636.158	292
636.364	270
636.57	287
636.775	276
636.981	288
637.187	276
637.392	293
637.598	291
637.804	301
638.009	288
638.215	296
638.421	283
638.626	293
638.832	290
639.037	275
639.243	250
639.448	253
639.654	278
639.859	269
640.065	265
640.27	287
640.475	249
640.681	258
640.886	272
641.091	256
641.297	258
641.502	265
641.707	274
641.913	253
642.118	261
642.323	260
642.528	243
642.733	260
642.939	249
643.144	245
643.349	251
643.554	261
643.759	263
643.964	276
644.169	254
644.374	231
644.579	274
644.784	264
644.989	269
645.194	251
645.399	254
645.604	248
645.809	271
646.014	259
646.219	282
646.423	252
646.628	268
646.833	262
647.038	256
647.243	263
647.447	268
647.652	263
647.857	242
648.062	263
648.266	260
648.471	260
648.676	266
648.88	281
649.085	275
649.289	265
649.494	244
649.698	263
649.903	251
650.107	241
650.312	256
650.516	249
650.721	238
650.925	246
651.13	244
651.334	228
651.539	249
651.743	236
651.947	237
652.152	241
652.356	231
652.56	227
652.764	226
652.969	236
653.173	225
653.377	218
653.581	220
653.785	237
653.99	223
654.194	217
654.398	213
654.602	215
654.806	214
655.01	228
655.214	215
655.418	227
655.622	246
655.826	242
656.03	244
656.234	248
656.438	256
656.642	260
656.846	258
657.049	232
657.253	218
657.457	221
657.661	200
657.865	194
658.068	181
658.272	170
658.476	163
658.68	155
658.883	142
659.087	155
659.291	150
659.494	146
659.698	127
659.901	137
660.105	134
660.309	129
660.512	135
660.716	123
660.919	115
661.123	116
661.326	114
661.53	120
661.733	114
661.936	97
662.14	120
662.343	105
662.546	99
662.75	105
662.953	100
663.156	92
663.36	92
663.563	101
663.766	88
663.969	83
664.173	90
664.376	81
664.579	96
664.782	86
664.985	94
665.188	89
665.391	80
665.594	55
665.797	89
666	76
666.203	84
666.406	86
666.609	86
666.812	85
667.015	87
667.218	88
667.421	78
667.624	90
667.827	95
668.03	87
668.232	98
668.435	78
668.638	91
668.841	94
669.043	91
669.246	86
669.449	82
669.651	85
669.854	84
670.057	89
670.259	78
670.462	88
670.665	86
670.867	78
671.07	80
671.272	78
671.475	100
671.677	85
671.88	98
672.082	77
672.284	76
672.487	83
672.689	93
672.892	82
