Data from Zn(NO3)2Standard.Agarose3%.GreenCap.LampEnergy5.5.E.O_HRD10591_15-03-53-768.txt Node
Date: Mon Jul 22 15:03:53 EDT 2019
User: cochatt
Spectrometer: HR+D1059
Trigger mode: 1
Integration Time (sec): 1.000000E-1
Scans to average: 1
Electric dark correction enabled: true
Nonlinearity correction enabled: false
Boxcar width: 0
XAxis mode: Wavelengths
Number of Pixels in Spectrum: 2048
>>>>>Begin Spectral Data<<<<<
223.165	-10
223.4	-10
223.635	-10
223.869	-19
224.104	-15
224.338	-23
224.573	-12
224.808	3
225.042	-9
225.277	-17
225.511	6
225.746	5
225.98	4
226.215	5
226.449	2
226.683	28
226.918	25
227.152	27
227.387	18
227.621	39
227.856	36
228.09	33
228.324	49
228.559	62
228.793	71
229.027	75
229.262	47
229.496	73
229.73	67
229.964	59
230.199	76
230.433	69
230.667	65
230.901	67
231.136	79
231.37	68
231.604	81
231.838	79
232.072	79
232.306	74
232.541	93
232.775	88
233.009	88
233.243	84
233.477	82
233.711	81
233.945	87
234.179	84
234.413	91
234.647	76
234.881	78
235.115	81
235.349	82
235.583	87
235.817	87
236.051	73
236.285	75
236.519	85
236.753	73
236.987	80
237.221	81
237.455	82
237.689	84
237.922	77
238.156	78
238.39	72
238.624	73
238.858	71
239.091	66
239.325	86
239.559	86
239.793	71
240.027	78
240.26	73
240.494	76
240.728	67
240.961	76
241.195	71
241.429	78
241.662	64
241.896	77
242.13	83
242.363	78
242.597	77
242.83	73
243.064	79
243.298	77
243.531	80
243.765	77
243.998	69
244.232	70
244.465	77
244.699	70
244.932	68
245.166	75
245.399	73
245.633	78
245.866	81
246.099	72
246.333	67
246.566	69
246.8	82
247.033	69
247.266	70
247.5	79
247.733	73
247.966	84
248.2	92
248.433	81
248.666	79
248.899	94
249.133	76
249.366	83
249.599	72
249.832	86
250.066	79
250.299	79
250.532	65
250.765	72
250.998	78
251.231	75
251.465	83
251.698	77
251.931	74
252.164	72
252.397	77
252.63	76
252.863	77
253.096	82
253.329	87
253.562	74
253.795	81
254.028	69
254.261	76
254.494	86
254.727	78
254.96	71
255.193	88
255.426	87
255.659	60
255.892	81
256.124	64
256.357	79
256.59	85
256.823	68
257.056	85
257.289	85
257.521	69
257.754	74
257.987	79
258.22	95
258.452	85
258.685	85
258.918	71
259.151	78
259.383	81
259.616	79
259.849	83
260.081	71
260.314	82
260.547	88
260.779	74
261.012	65
261.244	79
261.477	87
261.71	82
261.942	69
262.175	74
262.407	70
262.64	75
262.872	69
263.105	78
263.337	75
263.57	87
263.802	82
264.035	89
264.267	81
264.499	85
264.732	75
264.964	83
265.197	69
265.429	77
265.661	75
265.894	89
266.126	85
266.358	81
266.591	84
266.823	73
267.055	95
267.287	73
267.52	82
267.752	66
267.984	88
268.216	76
268.448	81
268.681	77
268.913	68
269.145	76
269.377	66
269.609	72
269.841	83
270.073	77
270.306	76
270.538	75
270.77	93
271.002	75
271.234	92
271.466	81
271.698	81
271.93	80
272.162	90
272.394	68
272.626	94
272.858	82
273.09	65
273.322	84
273.553	73
273.785	72
274.017	77
274.249	73
274.481	82
274.713	87
274.945	78
275.176	83
275.408	85
275.64	68
275.872	83
276.104	98
276.335	64
276.567	83
276.799	100
277.031	77
277.262	78
277.494	93
277.726	91
277.957	85
278.189	79
278.421	84
278.652	89
278.884	86
279.115	75
279.347	76
279.579	81
279.81	70
280.042	90
280.273	72
280.505	71
280.736	82
280.968	93
281.199	79
281.431	75
281.662	89
281.894	72
282.125	75
282.356	88
282.588	94
282.819	79
283.051	83
283.282	93
283.513	85
283.745	70
283.976	81
284.207	73
284.439	82
284.67	84
284.901	74
285.132	94
285.364	76
285.595	75
285.826	88
286.057	77
286.288	86
286.52	76
286.751	91
286.982	93
287.213	67
287.444	76
287.675	85
287.906	83
288.138	77
288.369	76
288.6	91
288.831	83
289.062	81
289.293	88
289.524	91
289.755	69
289.986	77
290.217	66
290.448	75
290.679	81
290.91	77
291.141	87
291.371	80
291.602	93
291.833	85
292.064	87
292.295	77
292.526	84
292.757	74
292.987	91
293.218	89
293.449	84
293.68	90
293.91	90
294.141	86
294.372	87
294.603	81
294.833	74
295.064	83
295.295	79
295.525	87
295.756	94
295.987	79
296.217	77
296.448	94
296.679	81
296.909	79
297.14	88
297.37	89
297.601	85
297.831	81
298.062	82
298.292	78
298.523	81
298.753	78
298.984	74
299.214	84
299.445	79
299.675	97
299.905	92
300.136	91
300.366	99
300.597	73
300.827	78
301.057	84
301.288	84
301.518	84
301.748	91
301.979	91
302.209	73
302.439	60
302.669	91
302.9	79
303.13	69
303.36	72
303.59	84
303.82	86
304.051	85
304.281	87
304.511	84
304.741	88
304.971	81
305.201	86
305.431	72
305.661	83
305.891	88
306.121	90
306.352	72
306.582	79
306.812	86
307.042	82
307.272	89
307.502	103
307.731	95
307.961	87
308.191	87
308.421	99
308.651	80
308.881	89
309.111	90
309.341	82
309.571	98
309.8	86
310.03	78
310.26	88
310.49	85
310.72	94
310.949	88
311.179	89
311.409	81
311.639	83
311.868	87
312.098	87
312.328	92
312.557	78
312.787	78
313.017	88
313.246	80
313.476	78
313.706	94
313.935	76
314.165	81
314.394	78
314.624	85
314.853	75
315.083	78
315.312	84
315.542	85
315.771	80
316.001	80
316.23	74
316.46	67
316.689	72
316.919	80
317.148	82
317.377	89
317.607	83
317.836	77
318.065	78
318.295	91
318.524	85
318.753	93
318.983	84
319.212	94
319.441	69
319.67	82
319.9	79
320.129	84
320.358	82
320.587	94
320.816	95
321.046	74
321.275	78
321.504	83
321.733	92
321.962	90
322.191	83
322.42	84
322.649	86
322.878	74
323.108	82
323.337	77
323.566	89
323.795	75
324.024	83
324.253	73
324.482	77
324.71	80
324.939	81
325.168	89
325.397	85
325.626	91
325.855	90
326.084	84
326.313	83
326.542	79
326.77	81
326.999	88
327.228	85
327.457	81
327.686	94
327.914	73
328.143	87
328.372	83
328.6	91
328.829	80
329.058	76
329.287	80
329.515	85
329.744	83
329.972	84
330.201	90
330.43	83
330.658	83
330.887	86
331.115	82
331.344	66
331.572	69
331.801	92
332.03	71
332.258	85
332.486	78
332.715	68
332.943	85
333.172	88
333.4	80
333.629	98
333.857	82
334.085	85
334.314	91
334.542	91
334.771	85
334.999	91
335.227	73
335.455	77
335.684	77
335.912	96
336.14	91
336.369	88
336.597	84
336.825	85
337.053	68
337.281	80
337.51	81
337.738	80
337.966	85
338.194	79
338.422	83
338.65	86
338.878	74
339.106	79
339.334	90
339.562	81
339.79	86
340.018	86
340.246	91
340.474	97
340.702	83
340.93	86
341.158	82
341.386	89
341.614	84
341.842	90
342.07	79
342.298	79
342.526	86
342.754	87
342.981	82
343.209	93
343.437	90
343.665	74
343.893	86
344.12	97
344.348	87
344.576	84
344.804	76
345.031	90
345.259	96
345.487	74
345.714	82
345.942	77
346.17	103
346.397	81
346.625	85
346.853	78
347.08	86
347.308	81
347.535	71
347.763	82
347.99	85
348.218	99
348.445	91
348.673	91
348.9	102
349.128	72
349.355	95
349.583	83
349.81	75
350.037	84
350.265	98
350.492	87
350.72	73
350.947	84
351.174	80
351.402	83
351.629	93
351.856	86
352.083	92
352.311	73
352.538	72
352.765	79
352.992	79
353.22	79
353.447	75
353.674	87
353.901	93
354.128	90
354.355	73
354.583	91
354.81	77
355.037	70
355.264	65
355.491	80
355.718	93
355.945	83
356.172	74
356.399	86
356.626	81
356.853	81
357.08	96
357.307	84
357.534	91
357.761	79
357.988	69
358.215	82
358.441	85
358.668	72
358.895	83
359.122	76
359.349	70
359.576	86
359.802	100
360.029	84
360.256	85
360.483	80
360.709	86
360.936	74
361.163	97
361.39	86
361.616	77
361.843	88
362.07	80
362.296	81
362.523	83
362.749	75
362.976	83
363.203	97
363.429	67
363.656	74
363.882	82
364.109	85
364.335	79
364.562	96
364.788	85
365.015	72
365.241	78
365.468	87
365.694	77
365.92	78
366.147	94
366.373	73
366.599	69
366.826	81
367.052	87
367.278	91
367.505	89
367.731	94
367.957	75
368.184	91
368.41	84
368.636	85
368.862	72
369.089	94
369.315	83
369.541	83
369.767	80
369.993	88
370.219	84
370.445	87
370.672	92
370.898	103
371.124	83
371.35	81
371.576	84
371.802	84
372.028	87
372.254	76
372.48	88
372.706	83
372.932	74
373.158	81
373.384	92
373.61	92
373.835	73
374.061	90
374.287	75
374.513	84
374.739	84
374.965	78
375.191	92
375.416	89
375.642	90
375.868	77
376.094	88
376.319	88
376.545	88
376.771	80
376.997	86
377.222	88
377.448	76
377.674	90
377.899	74
378.125	85
378.35	83
378.576	80
378.802	91
379.027	86
379.253	71
379.478	85
379.704	88
379.929	83
380.155	86
380.38	79
380.606	72
380.831	80
381.057	82
381.282	94
381.507	73
381.733	78
381.958	97
382.184	91
382.409	79
382.634	84
382.86	96
383.085	82
383.31	88
383.535	88
383.761	93
383.986	79
384.211	70
384.436	85
384.662	74
384.887	75
385.112	95
385.337	78
385.562	74
385.787	86
386.013	75
386.238	82
386.463	81
386.688	94
386.913	89
387.138	78
387.363	85
387.588	92
387.813	78
388.038	87
388.263	88
388.488	78
388.713	85
388.938	93
389.163	80
389.387	96
389.612	79
389.837	82
390.062	83
390.287	74
390.512	92
390.736	74
390.961	78
391.186	82
391.411	102
391.636	83
391.86	96
392.085	76
392.31	88
392.534	85
392.759	80
392.984	98
393.208	87
393.433	89
393.658	82
393.882	73
394.107	81
394.331	85
394.556	93
394.78	87
395.005	74
395.229	89
395.454	89
395.678	80
395.903	101
396.127	98
396.352	89
396.576	76
396.801	71
397.025	91
397.249	85
397.474	93
397.698	83
397.922	89
398.147	85
398.371	79
398.595	81
398.82	78
399.044	76
399.268	91
399.492	103
399.717	82
399.941	74
400.165	91
400.389	86
400.613	87
400.837	87
401.062	76
401.286	73
401.51	78
401.734	87
401.958	90
402.182	74
402.406	81
402.63	89
402.854	87
403.078	83
403.302	94
403.526	93
403.75	77
403.974	91
404.198	86
404.422	74
404.645	91
404.869	76
405.093	86
405.317	85
405.541	101
405.765	89
405.988	94
406.212	92
406.436	91
406.66	107
406.883	77
407.107	91
407.331	87
407.555	72
407.778	83
408.002	79
408.226	99
408.449	91
408.673	74
408.896	85
409.12	98
409.344	84
409.567	76
409.791	71
410.014	90
410.238	79
410.461	86
410.685	76
410.908	81
411.132	78
411.355	84
411.578	85
411.802	86
412.025	87
412.249	90
412.472	79
412.695	83
412.919	85
413.142	80
413.365	79
413.589	72
413.812	91
414.035	82
414.258	79
414.482	90
414.705	92
414.928	99
415.151	96
415.374	85
415.597	83
415.821	91
416.044	88
416.267	94
416.49	84
416.713	79
416.936	86
417.159	92
417.382	82
417.605	89
417.828	95
418.051	86
418.274	95
418.497	89
418.72	80
418.943	93
419.166	86
419.389	90
419.611	91
419.834	84
420.057	77
420.28	88
420.503	92
420.726	80
420.948	82
421.171	86
421.394	85
421.617	77
421.839	84
422.062	79
422.285	86
422.507	102
422.73	90
422.953	86
423.175	87
423.398	81
423.621	78
423.843	81
424.066	101
424.288	102
424.511	78
424.733	109
424.956	78
425.178	95
425.401	87
425.623	89
425.846	99
426.068	99
426.291	96
426.513	87
426.735	82
426.958	94
427.18	82
427.402	93
427.625	91
427.847	91
428.069	90
428.292	88
428.514	73
428.736	87
428.958	96
429.181	99
429.403	93
429.625	85
429.847	88
430.069	96
430.292	83
430.514	79
430.736	86
430.958	93
431.18	77
431.402	81
431.624	88
431.846	93
432.068	88
432.29	99
432.512	96
432.734	95
432.956	96
433.178	89
433.4	81
433.622	85
433.844	93
434.066	89
434.287	84
434.509	79
434.731	86
434.953	89
435.175	87
435.397	89
435.618	83
435.84	90
436.062	82
436.284	78
436.505	90
436.727	95
436.949	86
437.17	94
437.392	89
437.614	84
437.835	78
438.057	87
438.278	91
438.5	76
438.721	76
438.943	82
439.165	89
439.386	98
439.608	98
439.829	98
440.05	85
440.272	93
440.493	94
440.715	99
440.936	80
441.158	104
441.379	91
441.6	100
441.822	101
442.043	87
442.264	102
442.486	105
442.707	90
442.928	85
443.149	98
443.371	85
443.592	78
443.813	88
444.034	88
444.255	103
444.476	97
444.698	83
444.919	101
445.14	237
445.361	154
445.582	93
445.803	73
446.024	70
446.245	81
446.466	102
446.687	88
446.908	96
447.129	90
447.35	92
447.571	93
447.792	103
448.013	89
448.234	84
448.455	88
448.675	83
448.896	81
449.117	92
449.338	97
449.559	98
449.779	84
450	83
450.221	95
450.442	83
450.662	91
450.883	91
451.104	77
451.324	85
451.545	94
451.766	89
451.986	78
452.207	96
452.428	89
452.648	97
452.869	97
453.089	87
453.31	78
453.53	80
453.751	74
453.971	87
454.192	75
454.412	86
454.633	86
454.853	90
455.073	82
455.294	86
455.514	88
455.734	87
455.955	98
456.175	102
456.395	88
456.616	69
456.836	93
457.056	76
457.276	85
457.497	82
457.717	91
457.937	102
458.157	83
458.377	86
458.598	67
458.818	80
459.038	85
459.258	83
459.478	73
459.698	69
459.918	88
460.138	84
460.358	84
460.578	84
460.798	95
461.018	95
461.238	78
461.458	91
461.678	99
461.898	78
462.118	78
462.338	83
462.558	78
462.777	66
462.997	87
463.217	96
463.437	84
463.657	83
463.876	83
464.096	75
464.316	92
464.536	87
464.755	92
464.975	104
465.195	87
465.414	85
465.634	84
465.854	90
466.073	104
466.293	92
466.512	84
466.732	92
466.951	93
467.171	89
467.391	94
467.61	86
467.829	79
468.049	90
468.268	86
468.488	90
468.707	80
468.927	90
469.146	100
469.365	94
469.585	105
469.804	105
470.023	98
470.243	90
470.462	96
470.681	89
470.901	81
471.12	99
471.339	91
471.558	92
471.777	102
471.997	90
472.216	90
472.435	93
472.654	87
472.873	100
473.092	100
473.311	108
473.53	96
473.749	94
473.968	80
474.187	95
474.406	75
474.625	84
474.844	89
475.063	96
475.282	83
475.501	76
475.72	97
475.939	84
476.158	83
476.377	94
476.596	75
476.814	83
477.033	75
477.252	79
477.471	87
477.69	81
477.908	74
478.127	97
478.346	82
478.564	93
478.783	90
479.002	92
479.22	94
479.439	95
479.658	83
479.876	90
480.095	101
480.313	79
480.532	89
480.751	83
480.969	87
481.188	72
481.406	79
481.624	83
481.843	79
482.061	88
482.28	99
482.498	94
482.717	74
482.935	89
483.153	85
483.372	90
483.59	97
483.808	90
484.027	90
484.245	97
484.463	92
484.681	89
484.9	84
485.118	85
485.336	93
485.554	82
485.772	83
485.99	89
486.209	82
486.427	83
486.645	74
486.863	104
487.081	94
487.299	91
487.517	87
487.735	72
487.953	92
488.171	93
488.389	102
488.607	94
488.825	92
489.043	96
489.261	83
489.479	79
489.696	110
489.914	95
490.132	87
490.35	78
490.568	82
490.786	101
491.003	91
491.221	100
491.439	101
491.657	87
491.874	99
492.092	101
492.31	119
492.527	105
492.745	106
492.963	92
493.18	85
493.398	90
493.615	86
493.833	103
494.05	95
494.268	102
494.485	97
494.703	89
494.92	100
495.138	98
495.355	102
495.573	104
495.79	105
496.008	102
496.225	102
496.442	104
496.66	94
496.877	97
497.094	100
497.312	91
497.529	109
497.746	101
497.963	90
498.181	99
498.398	82
498.615	90
498.832	82
499.049	101
499.267	81
499.484	95
499.701	90
499.918	99
500.135	83
500.352	89
500.569	92
500.786	107
501.003	94
501.22	94
501.437	96
501.654	88
501.871	104
502.088	96
502.305	96
502.522	92
502.739	91
502.956	101
503.172	86
503.389	89
503.606	81
503.823	94
504.04	97
504.256	89
504.473	82
504.69	93
504.907	78
505.123	92
505.34	93
505.557	97
505.773	83
505.99	84
506.207	88
506.423	79
506.64	89
506.856	89
507.073	94
507.289	88
507.506	83
507.722	79
507.939	86
508.155	86
508.372	85
508.588	85
508.805	87
509.021	81
509.238	100
509.454	85
509.67	90
509.887	86
510.103	87
510.319	77
510.536	84
510.752	77
510.968	86
511.184	77
511.401	84
511.617	86
511.833	93
512.049	79
512.265	87
512.481	88
512.698	77
512.914	81
513.13	102
513.346	81
513.562	71
513.778	77
513.994	86
514.21	81
514.426	86
514.642	82
514.858	94
515.074	87
515.29	89
515.506	89
515.721	96
515.937	91
516.153	76
516.369	83
516.585	90
516.801	77
517.016	94
517.232	93
517.448	86
517.664	84
517.879	75
518.095	95
518.311	85
518.527	80
518.742	64
518.958	83
519.173	94
519.389	74
519.605	102
519.82	86
520.036	77
520.251	75
520.467	85
520.682	91
520.898	74
521.113	82
521.329	95
521.544	86
521.76	87
521.975	75
522.19	87
522.406	99
522.621	94
522.836	103
523.052	84
523.267	78
523.482	94
523.698	93
523.913	91
524.128	70
524.343	82
524.559	74
524.774	84
524.989	93
525.204	89
525.419	97
525.634	79
525.849	76
526.064	80
526.28	80
526.495	77
526.71	89
526.925	85
527.14	86
527.355	91
527.57	87
527.785	87
527.999	77
528.214	74
528.429	101
528.644	93
528.859	90
529.074	98
529.289	86
529.503	91
529.718	83
529.933	82
530.148	80
530.363	88
530.577	74
530.792	89
531.007	94
531.221	86
531.436	86
531.651	78
531.865	92
532.08	75
532.295	94
532.509	79
532.724	67
532.938	89
533.153	91
533.367	72
533.582	86
533.796	76
534.011	94
534.225	81
534.44	73
534.654	82
534.868	89
535.083	102
535.297	83
535.511	84
535.726	83
535.94	92
536.154	94
536.369	90
536.583	89
536.797	89
537.011	72
537.225	80
537.44	77
537.654	78
537.868	82
538.082	87
538.296	79
538.51	91
538.724	89
538.938	111
539.153	99
539.367	79
539.581	90
539.795	83
540.009	89
540.222	89
540.436	82
540.65	92
540.864	95
541.078	92
541.292	95
541.506	98
541.72	111
541.934	107
542.147	115
542.361	100
542.575	101
542.789	97
543.002	86
543.216	87
543.43	99
543.644	95
543.857	92
544.071	93
544.285	96
544.498	90
544.712	98
544.925	85
545.139	85
545.352	106
545.566	100
545.779	90
545.993	89
546.206	92
546.42	90
546.633	90
546.847	100
547.06	95
547.274	95
547.487	104
547.7	113
547.914	100
548.127	101
548.34	94
548.554	88
548.767	97
548.98	94
549.193	104
549.407	101
549.62	108
549.833	104
550.046	101
550.259	88
550.473	97
550.686	96
550.899	79
551.112	100
551.325	88
551.538	104
551.751	94
551.964	90
552.177	88
552.39	94
552.603	93
552.816	100
553.029	89
553.242	78
553.455	93
553.667	102
553.88	110
554.093	102
554.306	98
554.519	97
554.732	94
554.944	101
555.157	110
555.37	102
555.583	105
555.795	87
556.008	87
556.221	85
556.433	87
556.646	104
556.859	87
557.071	95
557.284	89
557.496	86
557.709	96
557.921	82
558.134	78
558.346	94
558.559	87
558.771	98
558.984	97
559.196	94
559.409	90
559.621	93
559.833	83
560.046	83
560.258	90
560.47	94
560.683	101
560.895	88
561.107	93
561.32	77
561.532	89
561.744	84
561.956	92
562.168	89
562.381	96
562.593	102
562.805	100
563.017	96
563.229	98
563.441	86
563.653	94
563.865	97
564.077	91
564.289	82
564.501	95
564.713	106
564.925	107
565.137	100
565.349	89
565.561	101
565.773	87
565.985	98
566.197	79
566.408	90
566.62	81
566.832	84
567.044	76
567.255	81
567.467	84
567.679	84
567.891	77
568.102	92
568.314	90
568.526	79
568.737	82
568.949	100
569.161	86
569.372	85
569.584	79
569.795	94
570.007	99
570.218	84
570.43	86
570.641	74
570.853	89
571.064	95
571.276	87
571.487	95
571.698	85
571.91	93
572.121	91
572.333	100
572.544	94
572.755	94
572.966	78
573.178	82
573.389	92
573.6	84
573.811	89
574.023	79
574.234	89
574.445	85
574.656	105
574.867	87
575.078	87
575.289	64
575.501	95
575.712	85
575.923	96
576.134	76
576.345	77
576.556	85
576.767	78
576.978	90
577.188	86
577.399	95
577.61	92
577.821	77
578.032	84
578.243	92
578.454	87
578.665	71
578.875	92
579.086	82
579.297	81
579.508	83
579.718	75
579.929	78
580.14	92
580.35	78
580.561	86
580.772	89
580.982	90
581.193	87
581.403	103
581.614	96
581.825	86
582.035	86
582.246	84
582.456	92
582.667	73
582.877	87
583.087	78
583.298	93
583.508	77
583.719	73
583.929	90
584.139	90
584.35	86
584.56	97
584.77	81
584.981	86
585.191	89
585.401	78
585.611	86
585.821	81
586.032	80
586.242	79
586.452	85
586.662	93
586.872	85
587.082	76
587.292	76
587.502	82
587.713	88
587.923	85
588.133	79
588.343	92
588.553	94
588.762	94
588.972	89
589.182	82
589.392	86
589.602	86
589.812	90
590.022	82
590.232	90
590.441	87
590.651	100
590.861	90
591.071	86
591.281	94
591.49	95
591.7	91
591.91	88
592.119	82
592.329	86
592.539	67
592.748	91
592.958	90
593.167	81
593.377	78
593.587	89
593.796	78
594.006	90
594.215	65
594.424	72
594.634	90
594.843	83
595.053	89
595.262	87
595.472	87
595.681	90
595.89	86
596.1	89
596.309	103
596.518	83
596.727	83
596.937	84
597.146	78
597.355	73
597.564	71
597.774	90
597.983	85
598.192	102
598.401	94
598.61	95
598.819	84
599.028	79
599.237	79
599.446	81
599.655	92
599.864	90
600.073	77
600.282	97
600.491	90
600.7	78
600.909	89
601.118	85
601.327	76
601.536	98
601.745	100
601.953	94
602.162	88
602.371	88
602.58	94
602.789	68
602.997	84
603.206	96
603.415	81
603.623	84
603.832	87
604.041	83
604.249	85
604.458	74
604.666	83
604.875	92
605.084	79
605.292	79
605.501	94
605.709	93
605.918	87
606.126	90
606.334	87
606.543	93
606.751	93
606.96	75
607.168	95
607.376	87
607.585	100
607.793	94
608.001	89
608.21	94
608.418	97
608.626	86
608.834	87
609.043	94
609.251	88
609.459	84
609.667	94
609.875	89
610.083	89
610.291	84
610.499	86
610.707	92
610.916	99
611.124	86
611.332	98
611.54	92
611.748	89
611.955	87
612.163	100
612.371	89
612.579	88
612.787	87
612.995	77
613.203	99
613.411	105
613.618	88
613.826	88
614.034	76
614.242	84
614.449	85
614.657	104
614.865	75
615.072	101
615.28	81
615.488	76
615.695	90
615.903	88
616.111	95
616.318	93
616.526	95
616.733	85
616.941	95
617.148	95
617.356	100
617.563	93
617.771	71
617.978	79
618.185	90
618.393	77
618.6	92
618.807	87
619.015	83
619.222	94
619.429	84
619.637	86
619.844	92
620.051	82
620.258	81
620.466	87
620.673	79
620.88	90
621.087	99
621.294	93
621.501	78
621.708	83
621.915	88
622.122	88
622.329	79
622.536	85
622.743	84
622.95	91
623.157	81
623.364	96
623.571	88
623.778	84
623.985	94
624.192	86
624.399	87
624.606	94
624.812	96
625.019	85
625.226	101
625.433	99
625.639	95
625.846	91
626.053	94
626.259	88
626.466	85
626.673	90
626.879	79
627.086	78
627.293	81
627.499	92
627.706	87
627.912	79
628.119	84
628.325	93
628.532	102
628.738	87
628.945	91
629.151	91
629.357	94
629.564	87
629.77	87
629.976	82
630.183	98
630.389	88
630.595	87
630.802	91
631.008	90
631.214	91
631.42	86
631.627	102
631.833	80
632.039	84
632.245	76
632.451	86
632.657	81
632.863	82
633.069	82
633.275	89
633.481	89
633.688	81
633.893	95
634.099	100
634.305	85
634.511	90
634.717	96
634.923	81
635.129	88
635.335	82
635.541	89
635.747	90
635.952	88
636.158	99
636.364	80
636.57	91
636.775	88
636.981	90
637.187	91
637.392	87
637.598	94
637.804	61
638.009	88
638.215	90
638.421	89
638.626	86
638.832	85
639.037	86
639.243	91
639.448	93
639.654	79
639.859	93
640.065	87
640.27	96
640.475	83
640.681	83
640.886	78
641.091	82
641.297	91
641.502	80
641.707	81
641.913	79
642.118	70
642.323	79
642.528	79
642.733	88
642.939	85
643.144	86
643.349	83
643.554	87
643.759	82
643.964	76
644.169	82
644.374	83
644.579	95
644.784	94
644.989	84
645.194	84
645.399	91
645.604	78
645.809	85
646.014	79
646.219	88
646.423	89
646.628	84
646.833	105
647.038	96
647.243	93
647.447	93
647.652	98
647.857	89
648.062	83
648.266	87
648.471	76
648.676	85
648.88	90
649.085	95
649.289	105
649.494	75
649.698	98
649.903	80
650.107	88
650.312	88
650.516	86
650.721	96
650.925	66
651.13	78
651.334	82
651.539	89
651.743	103
651.947	108
652.152	78
652.356	85
652.56	93
652.764	69
652.969	79
653.173	80
653.377	76
653.581	91
653.785	75
653.99	82
654.194	87
654.398	90
654.602	95
654.806	78
655.01	87
655.214	89
655.418	71
655.622	73
655.826	69
656.03	90
656.234	89
656.438	89
656.642	82
656.846	82
657.049	83
657.253	86
657.457	75
657.661	75
657.865	82
658.068	79
658.272	80
658.476	90
658.68	91
658.883	76
659.087	93
659.291	76
659.494	101
659.698	73
659.901	95
660.105	66
660.309	85
660.512	72
660.716	93
660.919	84
661.123	85
661.326	77
661.53	64
661.733	81
661.936	89
662.14	86
662.343	90
662.546	78
662.75	84
662.953	83
663.156	88
663.36	91
663.563	80
663.766	86
663.969	80
664.173	89
664.376	78
664.579	81
664.782	69
664.985	81
665.188	93
665.391	87
665.594	85
665.797	85
666	78
666.203	85
666.406	85
666.609	105
666.812	84
667.015	88
667.218	83
667.421	79
667.624	79
667.827	79
668.03	91
668.232	75
668.435	88
668.638	78
668.841	79
669.043	69
669.246	85
669.449	73
669.651	95
669.854	85
670.057	68
670.259	78
670.462	86
670.665	81
670.867	69
671.07	89
671.272	86
671.475	80
671.677	87
671.88	78
672.082	93
672.284	83
672.487	89
672.689	74
672.892	108
