Data from Zn(NO3)2Standard.Agarose3%.GreenCap.LampEnergy10E.O_HRD10591_15-06-34-942.txt Node
Date: Mon Jul 22 15:06:34 EDT 2019
User: cochatt
Spectrometer: HR+D1059
Trigger mode: 1
Integration Time (sec): 1.000000E-1
Scans to average: 1
Electric dark correction enabled: true
Nonlinearity correction enabled: false
Boxcar width: 0
XAxis mode: Wavelengths
Number of Pixels in Spectrum: 2048
>>>>>Begin Spectral Data<<<<<
223.165	-4
223.4	-4
223.635	-4
223.869	-16
224.104	-7
224.338	-21
224.573	-25
224.808	-24
225.042	-9
225.277	-9
225.511	13
225.746	-7
225.98	6
226.215	9
226.449	14
226.683	33
226.918	18
227.152	29
227.387	32
227.621	40
227.856	62
228.09	47
228.324	56
228.559	48
228.793	55
229.027	53
229.262	64
229.496	71
229.73	68
229.964	67
230.199	75
230.433	87
230.667	79
230.901	70
231.136	84
231.37	79
231.604	83
231.838	76
232.072	87
232.306	74
232.541	102
232.775	81
233.009	86
233.243	70
233.477	84
233.711	83
233.945	83
234.179	78
234.413	74
234.647	86
234.881	70
235.115	73
235.349	79
235.583	84
235.817	79
236.051	76
236.285	76
236.519	80
236.753	80
236.987	67
237.221	92
237.455	87
237.689	87
237.922	87
238.156	91
238.39	80
238.624	77
238.858	86
239.091	81
239.325	63
239.559	77
239.793	76
240.027	69
240.26	77
240.494	79
240.728	78
240.961	84
241.195	50
241.429	78
241.662	79
241.896	93
242.13	75
242.363	76
242.597	76
242.83	63
243.064	81
243.298	85
243.531	78
243.765	91
243.998	73
244.232	69
244.465	90
244.699	77
244.932	71
245.166	84
245.399	77
245.633	83
245.866	77
246.099	77
246.333	72
246.566	71
246.8	74
247.033	71
247.266	88
247.5	87
247.733	81
247.966	76
248.2	95
248.433	88
248.666	70
248.899	76
249.133	74
249.366	73
249.599	88
249.832	75
250.066	90
250.299	92
250.532	114
250.765	80
250.998	83
251.231	71
251.465	74
251.698	76
251.931	90
252.164	84
252.397	85
252.63	67
252.863	87
253.096	84
253.329	93
253.562	74
253.795	91
254.028	77
254.261	96
254.494	93
254.727	82
254.96	91
255.193	82
255.426	82
255.659	77
255.892	94
256.124	87
256.357	83
256.59	79
256.823	81
257.056	81
257.289	78
257.521	79
257.754	75
257.987	79
258.22	71
258.452	69
258.685	82
258.918	86
259.151	86
259.383	85
259.616	84
259.849	81
260.081	74
260.314	75
260.547	80
260.779	84
261.012	71
261.244	82
261.477	90
261.71	70
261.942	88
262.175	81
262.407	80
262.64	70
262.872	94
263.105	94
263.337	97
263.57	81
263.802	92
264.035	80
264.267	80
264.499	91
264.732	83
264.964	96
265.197	70
265.429	81
265.661	92
265.894	87
266.126	102
266.358	79
266.591	78
266.823	80
267.055	79
267.287	81
267.52	73
267.752	88
267.984	94
268.216	82
268.448	84
268.681	78
268.913	89
269.145	92
269.377	91
269.609	82
269.841	91
270.073	84
270.306	81
270.538	80
270.77	106
271.002	84
271.234	93
271.466	92
271.698	83
271.93	76
272.162	82
272.394	89
272.626	88
272.858	83
273.09	90
273.322	90
273.553	93
273.785	96
274.017	87
274.249	76
274.481	92
274.713	89
274.945	79
275.176	86
275.408	86
275.64	88
275.872	91
276.104	80
276.335	88
276.567	75
276.799	89
277.031	86
277.262	85
277.494	106
277.726	76
277.957	94
278.189	76
278.421	77
278.652	93
278.884	100
279.115	95
279.347	72
279.579	75
279.81	84
280.042	96
280.273	83
280.505	98
280.736	73
280.968	90
281.199	91
281.431	82
281.662	87
281.894	89
282.125	80
282.356	81
282.588	73
282.819	103
283.051	91
283.282	84
283.513	72
283.745	99
283.976	71
284.207	85
284.439	104
284.67	86
284.901	85
285.132	88
285.364	81
285.595	88
285.826	86
286.057	93
286.288	82
286.52	91
286.751	80
286.982	86
287.213	86
287.444	93
287.675	79
287.906	81
288.138	90
288.369	77
288.6	84
288.831	73
289.062	89
289.293	90
289.524	86
289.755	93
289.986	73
290.217	85
290.448	68
290.679	91
290.91	80
291.141	88
291.371	89
291.602	84
291.833	83
292.064	95
292.295	88
292.526	92
292.757	85
292.987	100
293.218	77
293.449	96
293.68	94
293.91	88
294.141	71
294.372	93
294.603	89
294.833	78
295.064	81
295.295	95
295.525	82
295.756	86
295.987	93
296.217	85
296.448	89
296.679	89
296.909	72
297.14	77
297.37	84
297.601	92
297.831	96
298.062	81
298.292	86
298.523	74
298.753	80
298.984	91
299.214	89
299.445	100
299.675	87
299.905	82
300.136	75
300.366	84
300.597	99
300.827	80
301.057	88
301.288	87
301.518	96
301.748	101
301.979	82
302.209	77
302.439	76
302.669	90
302.9	92
303.13	83
303.36	87
303.59	90
303.82	91
304.051	100
304.281	89
304.511	89
304.741	93
304.971	95
305.201	89
305.431	92
305.661	86
305.891	97
306.121	87
306.352	87
306.582	76
306.812	81
307.042	84
307.272	80
307.502	89
307.731	94
307.961	96
308.191	87
308.421	86
308.651	76
308.881	86
309.111	94
309.341	77
309.571	80
309.8	79
310.03	77
310.26	91
310.49	102
310.72	81
310.949	97
311.179	102
311.409	73
311.639	73
311.868	88
312.098	92
312.328	85
312.557	81
312.787	91
313.017	100
313.246	92
313.476	90
313.706	92
313.935	88
314.165	87
314.394	90
314.624	83
314.853	91
315.083	100
315.312	89
315.542	83
315.771	95
316.001	88
316.23	91
316.46	98
316.689	87
316.919	82
317.148	102
317.377	96
317.607	73
317.836	101
318.065	95
318.295	85
318.524	97
318.753	105
318.983	91
319.212	104
319.441	93
319.67	81
319.9	96
320.129	87
320.358	94
320.587	93
320.816	84
321.046	93
321.275	81
321.504	91
321.733	89
321.962	94
322.191	91
322.42	88
322.649	97
322.878	79
323.108	85
323.337	92
323.566	96
323.795	82
324.024	94
324.253	93
324.482	89
324.71	93
324.939	81
325.168	73
325.397	87
325.626	74
325.855	80
326.084	93
326.313	79
326.542	78
326.77	92
326.999	89
327.228	86
327.457	93
327.686	96
327.914	76
328.143	106
328.372	95
328.6	91
328.829	79
329.058	89
329.287	96
329.515	79
329.744	89
329.972	80
330.201	87
330.43	93
330.658	90
330.887	94
331.115	82
331.344	91
331.572	99
331.801	97
332.03	83
332.258	93
332.486	84
332.715	91
332.943	80
333.172	99
333.4	68
333.629	77
333.857	77
334.085	79
334.314	85
334.542	91
334.771	85
334.999	89
335.227	87
335.455	93
335.684	93
335.912	88
336.14	91
336.369	76
336.597	93
336.825	93
337.053	81
337.281	81
337.51	81
337.738	89
337.966	81
338.194	83
338.422	99
338.65	97
338.878	90
339.106	94
339.334	99
339.562	77
339.79	89
340.018	88
340.246	80
340.474	88
340.702	86
340.93	81
341.158	92
341.386	88
341.614	94
341.842	86
342.07	80
342.298	91
342.526	91
342.754	102
342.981	97
343.209	77
343.437	92
343.665	79
343.893	82
344.12	91
344.348	79
344.576	88
344.804	86
345.031	92
345.259	92
345.487	88
345.714	79
345.942	73
346.17	84
346.397	100
346.625	77
346.853	95
347.08	95
347.308	83
347.535	89
347.763	90
347.99	80
348.218	77
348.445	84
348.673	85
348.9	84
349.128	84
349.355	79
349.583	95
349.81	89
350.037	80
350.265	101
350.492	88
350.72	94
350.947	84
351.174	83
351.402	86
351.629	88
351.856	69
352.083	81
352.311	81
352.538	87
352.765	91
352.992	84
353.22	81
353.447	85
353.674	93
353.901	85
354.128	81
354.355	79
354.583	104
354.81	84
355.037	100
355.264	93
355.491	85
355.718	84
355.945	88
356.172	96
356.399	91
356.626	79
356.853	83
357.08	82
357.307	92
357.534	88
357.761	83
357.988	83
358.215	87
358.441	88
358.668	91
358.895	83
359.122	85
359.349	70
359.576	87
359.802	89
360.029	77
360.256	92
360.483	91
360.709	89
360.936	91
361.163	97
361.39	103
361.616	91
361.843	86
362.07	82
362.296	91
362.523	85
362.749	99
362.976	92
363.203	103
363.429	73
363.656	79
363.882	85
364.109	75
364.335	85
364.562	90
364.788	85
365.015	68
365.241	86
365.468	75
365.694	81
365.92	93
366.147	74
366.373	87
366.599	76
366.826	85
367.052	95
367.278	103
367.505	99
367.731	87
367.957	75
368.184	86
368.41	101
368.636	91
368.862	79
369.089	93
369.315	80
369.541	93
369.767	95
369.993	80
370.219	93
370.445	78
370.672	77
370.898	81
371.124	100
371.35	89
371.576	100
371.802	89
372.028	80
372.254	86
372.48	81
372.706	96
372.932	94
373.158	90
373.384	80
373.61	86
373.835	91
374.061	84
374.287	86
374.513	102
374.739	86
374.965	81
375.191	84
375.416	86
375.642	94
375.868	86
376.094	83
376.319	96
376.545	79
376.771	85
376.997	104
377.222	90
377.448	93
377.674	97
377.899	89
378.125	95
378.35	81
378.576	81
378.802	90
379.027	85
379.253	100
379.478	92
379.704	82
379.929	91
380.155	89
380.38	106
380.606	85
380.831	82
381.057	108
381.282	92
381.507	96
381.733	100
381.958	93
382.184	95
382.409	104
382.634	109
382.86	89
383.085	99
383.31	88
383.535	102
383.761	100
383.986	88
384.211	79
384.436	96
384.662	96
384.887	100
385.112	106
385.337	85
385.562	82
385.787	98
386.013	109
386.238	105
386.463	95
386.688	92
386.913	88
387.138	112
387.363	80
387.588	93
387.813	103
388.038	103
388.263	93
388.488	105
388.713	90
388.938	91
389.163	95
389.387	97
389.612	84
389.837	85
390.062	92
390.287	102
390.512	85
390.736	95
390.961	98
391.186	99
391.411	107
391.636	92
391.86	85
392.085	97
392.31	102
392.534	87
392.759	89
392.984	104
393.208	99
393.433	103
393.658	89
393.882	87
394.107	99
394.331	106
394.556	112
394.78	105
395.005	100
395.229	100
395.454	93
395.678	81
395.903	103
396.127	100
396.352	93
396.576	77
396.801	94
397.025	93
397.249	102
397.474	98
397.698	83
397.922	102
398.147	90
398.371	91
398.595	101
398.82	102
399.044	82
399.268	104
399.492	102
399.717	87
399.941	81
400.165	107
400.389	88
400.613	88
400.837	98
401.062	104
401.286	108
401.51	103
401.734	88
401.958	105
402.182	91
402.406	103
402.63	92
402.854	84
403.078	77
403.302	123
403.526	111
403.75	91
403.974	96
404.198	110
404.422	96
404.645	104
404.869	93
405.093	97
405.317	98
405.541	87
405.765	104
405.988	106
406.212	95
406.436	107
406.66	104
406.883	103
407.107	108
407.331	99
407.555	116
407.778	110
408.002	98
408.226	93
408.449	96
408.673	96
408.896	106
409.12	93
409.344	101
409.567	95
409.791	96
410.014	103
410.238	95
410.461	97
410.685	108
410.908	116
411.132	115
411.355	101
411.578	112
411.802	100
412.025	90
412.249	101
412.472	95
412.695	103
412.919	108
413.142	104
413.365	105
413.589	123
413.812	111
414.035	113
414.258	109
414.482	101
414.705	108
414.928	113
415.151	103
415.374	88
415.597	96
415.821	103
416.044	107
416.267	98
416.49	92
416.713	109
416.936	105
417.159	113
417.382	107
417.605	83
417.828	112
418.051	103
418.274	108
418.497	102
418.72	96
418.943	122
419.166	103
419.389	104
419.611	84
419.834	109
420.057	134
420.28	104
420.503	115
420.726	105
420.948	105
421.171	104
421.394	102
421.617	111
421.839	119
422.062	115
422.285	114
422.507	91
422.73	112
422.953	101
423.175	103
423.398	95
423.621	117
423.843	92
424.066	103
424.288	120
424.511	111
424.733	123
424.956	97
425.178	123
425.401	104
425.623	106
425.846	102
426.068	97
426.291	108
426.513	120
426.735	113
426.958	111
427.18	106
427.402	101
427.625	111
427.847	106
428.069	113
428.292	108
428.514	116
428.736	109
428.958	102
429.181	92
429.403	87
429.625	99
429.847	96
430.069	111
430.292	115
430.514	107
430.736	115
430.958	111
431.18	112
431.402	100
431.624	97
431.846	101
432.068	85
432.29	99
432.512	98
432.734	104
432.956	109
433.178	102
433.4	121
433.622	111
433.844	104
434.066	100
434.287	87
434.509	87
434.731	93
434.953	113
435.175	83
435.397	92
435.618	107
435.84	117
436.062	95
436.284	100
436.505	112
436.727	93
436.949	97
437.17	113
437.392	102
437.614	103
437.835	101
438.057	90
438.278	92
438.5	107
438.721	95
438.943	105
439.165	105
439.386	123
439.608	109
439.829	131
440.05	121
440.272	136
440.493	104
440.715	111
440.936	106
441.158	113
441.379	121
441.6	117
441.822	116
442.043	118
442.264	101
442.486	106
442.707	110
442.928	118
443.149	103
443.371	112
443.592	116
443.813	103
444.034	111
444.255	104
444.476	107
444.698	111
444.919	122
445.14	235
445.361	159
445.582	105
445.803	109
446.024	104
446.245	117
446.466	112
446.687	123
446.908	116
447.129	127
447.35	117
447.571	125
447.792	124
448.013	111
448.234	129
448.455	111
448.675	110
448.896	108
449.117	110
449.338	97
449.559	111
449.779	115
450	117
450.221	131
450.442	104
450.662	109
450.883	118
451.104	109
451.324	99
451.545	109
451.766	109
451.986	110
452.207	107
452.428	106
452.648	110
452.869	119
453.089	108
453.31	101
453.53	106
453.751	108
453.971	105
454.192	106
454.412	103
454.633	89
454.853	97
455.073	105
455.294	99
455.514	107
455.734	116
455.955	106
456.175	99
456.395	94
456.616	105
456.836	97
457.056	102
457.276	92
457.497	93
457.717	91
457.937	93
458.157	102
458.377	85
458.598	94
458.818	89
459.038	83
459.258	82
459.478	84
459.698	79
459.918	83
460.138	111
460.358	107
460.578	101
460.798	99
461.018	105
461.238	123
461.458	108
461.678	107
461.898	90
462.118	96
462.338	102
462.558	108
462.777	100
462.997	98
463.217	112
463.437	94
463.657	93
463.876	109
464.096	97
464.316	109
464.536	97
464.755	91
464.975	91
465.195	92
465.414	92
465.634	100
465.854	95
466.073	109
466.293	110
466.512	104
466.732	102
466.951	120
467.171	103
467.391	108
467.61	90
467.829	101
468.049	110
468.268	105
468.488	129
468.707	101
468.927	103
469.146	109
469.365	125
469.585	126
469.804	113
470.023	106
470.243	111
470.462	97
470.681	101
470.901	115
471.12	108
471.339	120
471.558	107
471.777	109
471.997	123
472.216	105
472.435	109
472.654	99
472.873	100
473.092	94
473.311	110
473.53	102
473.749	112
473.968	104
474.187	106
474.406	101
474.625	100
474.844	104
475.063	100
475.282	118
475.501	99
475.72	113
475.939	96
476.158	104
476.377	123
476.596	97
476.814	107
477.033	97
477.252	102
477.471	100
477.69	115
477.908	119
478.127	111
478.346	127
478.564	102
478.783	106
479.002	120
479.22	101
479.439	117
479.658	106
479.876	93
480.095	89
480.313	89
480.532	115
480.751	103
480.969	87
481.188	84
481.406	91
481.624	91
481.843	77
482.061	83
482.28	93
482.498	98
482.717	87
482.935	102
483.153	89
483.372	114
483.59	119
483.808	103
484.027	109
484.245	108
484.463	109
484.681	116
484.9	117
485.118	116
485.336	119
485.554	101
485.772	95
485.99	100
486.209	111
486.427	104
486.645	120
486.863	115
487.081	125
487.299	109
487.517	107
487.735	133
487.953	135
488.171	129
488.389	120
488.607	114
488.825	124
489.043	113
489.261	123
489.479	117
489.696	115
489.914	112
490.132	120
490.35	110
490.568	125
490.786	125
491.003	137
491.221	133
491.439	145
491.657	128
491.874	137
492.092	158
492.31	150
492.527	145
492.745	141
492.963	150
493.18	138
493.398	124
493.615	126
493.833	123
494.05	131
494.268	139
494.485	122
494.703	131
494.92	124
495.138	129
495.355	133
495.573	140
495.79	119
496.008	121
496.225	121
496.442	109
496.66	121
496.877	122
497.094	125
497.312	129
497.529	128
497.746	107
497.963	105
498.181	102
498.398	111
498.615	113
498.832	96
499.049	118
499.267	106
499.484	105
499.701	111
499.918	110
500.135	120
500.352	115
500.569	124
500.786	115
501.003	108
501.22	105
501.437	116
501.654	133
501.871	125
502.088	117
502.305	125
502.522	109
502.739	108
502.956	100
503.172	118
503.389	93
503.606	91
503.823	88
504.04	108
504.256	103
504.473	105
504.69	106
504.907	112
505.123	96
505.34	97
505.557	97
505.773	96
505.99	104
506.207	105
506.423	111
506.64	112
506.856	109
507.073	92
507.289	96
507.506	99
507.722	96
507.939	92
508.155	86
508.372	99
508.588	95
508.805	102
509.021	114
509.238	103
509.454	85
509.67	84
509.887	85
510.103	77
510.319	92
510.536	91
510.752	91
510.968	74
511.184	87
511.401	103
511.617	94
511.833	95
512.049	86
512.265	82
512.481	94
512.698	87
512.914	95
513.13	92
513.346	88
513.562	93
513.778	100
513.994	91
514.21	96
514.426	93
514.642	85
514.858	102
515.074	103
515.29	86
515.506	93
515.721	81
515.937	79
516.153	90
516.369	94
516.585	97
516.801	83
517.016	100
517.232	92
517.448	96
517.664	76
517.879	108
518.095	93
518.311	99
518.527	86
518.742	84
518.958	95
519.173	94
519.389	93
519.605	99
519.82	100
520.036	92
520.251	107
520.467	89
520.682	93
520.898	90
521.113	80
521.329	80
521.544	93
521.76	89
521.975	88
522.19	88
522.406	96
522.621	94
522.836	97
523.052	102
523.267	91
523.482	92
523.698	107
523.913	80
524.128	108
524.343	115
524.559	107
524.774	106
524.989	113
525.204	100
525.419	108
525.634	109
525.849	91
526.064	88
526.28	97
526.495	98
526.71	81
526.925	76
527.14	91
527.355	98
527.57	89
527.785	88
527.999	103
528.214	99
528.429	103
528.644	99
528.859	110
529.074	109
529.289	121
529.503	133
529.718	127
529.933	105
530.148	94
530.363	95
530.577	97
530.792	75
531.007	72
531.221	70
531.436	81
531.651	81
531.865	77
532.08	72
532.295	89
532.509	88
532.724	90
532.938	85
533.153	102
533.367	110
533.582	119
533.796	100
534.011	106
534.225	72
534.44	95
534.654	92
534.868	86
535.083	97
535.297	90
535.511	104
535.726	92
535.94	89
536.154	87
536.369	88
536.583	93
536.797	94
537.011	86
537.225	93
537.44	84
537.654	77
537.868	86
538.082	93
538.296	103
538.51	86
538.724	96
538.938	92
539.153	103
539.367	94
539.581	88
539.795	94
540.009	86
540.222	87
540.436	100
540.65	91
540.864	107
541.078	116
541.292	127
541.506	130
541.72	131
541.934	143
542.147	135
542.361	136
542.575	121
542.789	119
543.002	118
543.216	102
543.43	94
543.644	95
543.857	126
544.071	116
544.285	121
544.498	121
544.712	118
544.925	120
545.139	118
545.352	128
545.566	123
545.779	128
545.993	129
546.206	122
546.42	129
546.633	140
546.847	134
547.06	124
547.274	122
547.487	125
547.7	119
547.914	111
548.127	121
548.34	131
548.554	116
548.767	123
548.98	129
549.193	107
549.407	113
549.62	112
549.833	126
550.046	131
550.259	113
550.473	132
550.686	139
550.899	119
551.112	112
551.325	120
551.538	117
551.751	129
551.964	104
552.177	112
552.39	113
552.603	101
552.816	127
553.029	109
553.242	128
553.455	123
553.667	121
553.88	118
554.093	112
554.306	126
554.519	132
554.732	117
554.944	118
555.157	105
555.37	132
555.583	129
555.795	124
556.008	106
556.221	107
556.433	121
556.646	119
556.859	109
557.071	109
557.284	133
557.496	108
557.709	117
557.921	126
558.134	111
558.346	108
558.559	118
558.771	111
558.984	103
559.196	121
559.409	110
559.621	104
559.833	109
560.046	110
560.258	104
560.47	109
560.683	95
560.895	103
561.107	108
561.32	99
561.532	115
561.744	121
561.956	107
562.168	103
562.381	100
562.593	99
562.805	105
563.017	115
563.229	110
563.441	97
563.653	106
563.865	103
564.077	112
564.289	116
564.501	103
564.713	107
564.925	103
565.137	96
565.349	100
565.561	96
565.773	93
565.985	110
566.197	115
566.408	101
566.62	94
566.832	109
567.044	112
567.255	117
567.467	96
567.679	100
567.891	101
568.102	103
568.314	101
568.526	96
568.737	99
568.949	92
569.161	89
569.372	102
569.584	98
569.795	75
570.007	91
570.218	99
570.43	99
570.641	95
570.853	86
571.064	112
571.276	104
571.487	92
571.698	103
571.91	93
572.121	87
572.333	97
572.544	89
572.755	80
572.966	89
573.178	80
573.389	79
573.6	85
573.811	95
574.023	88
574.234	87
574.445	91
574.656	89
574.867	99
575.078	101
575.289	81
575.501	85
575.712	87
575.923	87
576.134	94
576.345	79
576.556	80
576.767	75
576.978	93
577.188	90
577.399	92
577.61	100
577.821	101
578.032	98
578.243	94
578.454	91
578.665	104
578.875	84
579.086	90
579.297	81
579.508	80
579.718	79
579.929	80
580.14	87
580.35	82
580.561	98
580.772	79
580.982	81
581.193	92
581.403	91
581.614	94
581.825	100
582.035	93
582.246	92
582.456	81
582.667	98
582.877	96
583.087	92
583.298	92
583.508	80
583.719	68
583.929	99
584.139	99
584.35	89
584.56	86
584.77	96
584.981	92
585.191	80
585.401	93
585.611	77
585.821	74
586.032	85
586.242	91
586.452	88
586.662	86
586.872	93
587.082	86
587.292	87
587.502	93
587.713	91
587.923	89
588.133	87
588.343	90
588.553	79
588.762	84
588.972	89
589.182	88
589.392	91
589.602	85
589.812	97
590.022	102
590.232	95
590.441	88
590.651	81
590.861	87
591.071	84
591.281	87
591.49	80
591.7	87
591.91	94
592.119	89
592.329	78
592.539	85
592.748	80
592.958	75
593.167	80
593.377	87
593.587	96
593.796	91
594.006	86
594.215	92
594.424	82
594.634	103
594.843	85
595.053	88
595.262	100
595.472	96
595.681	93
595.89	80
596.1	86
596.309	93
596.518	97
596.727	89
596.937	95
597.146	91
597.355	89
597.564	94
597.774	88
597.983	86
598.192	80
598.401	100
598.61	91
598.819	100
599.028	91
599.237	87
599.446	99
599.655	96
599.864	95
600.073	92
600.282	113
600.491	93
600.7	94
600.909	95
601.118	96
601.327	109
601.536	87
601.745	94
601.953	91
602.162	93
602.371	109
602.58	105
602.789	106
602.997	92
603.206	97
603.415	110
603.623	105
603.832	92
604.041	89
604.249	85
604.458	89
604.666	94
604.875	97
605.084	94
605.292	99
605.501	90
605.709	87
605.918	103
606.126	103
606.334	102
606.543	109
606.751	111
606.96	86
607.168	102
607.376	106
607.585	111
607.793	95
608.001	100
608.21	90
608.418	99
608.626	102
608.834	95
609.043	119
609.251	107
609.459	96
609.667	111
609.875	109
610.083	102
610.291	97
610.499	110
610.707	93
610.916	91
611.124	96
611.332	95
611.54	94
611.748	104
611.955	101
612.163	97
612.371	108
612.579	87
612.787	92
612.995	99
613.203	107
613.411	112
613.618	94
613.826	96
614.034	97
614.242	108
614.449	93
614.657	98
614.865	90
615.072	84
615.28	108
615.488	96
615.695	106
615.903	84
616.111	95
616.318	107
616.526	93
616.733	111
616.941	97
617.148	105
617.356	99
617.563	104
617.771	99
617.978	101
618.185	92
618.393	97
618.6	112
618.807	94
619.015	101
619.222	108
619.429	97
619.637	98
619.844	87
620.051	90
620.258	101
620.466	101
620.673	97
620.88	98
621.087	87
621.294	92
621.501	93
621.708	105
621.915	94
622.122	104
622.329	89
622.536	84
622.743	95
622.95	88
623.157	113
623.364	100
623.571	105
623.778	105
623.985	97
624.192	100
624.399	108
624.606	94
624.812	111
625.019	104
625.226	94
625.433	99
625.639	97
625.846	93
626.053	91
626.259	85
626.466	83
626.673	97
626.879	97
627.086	88
627.293	101
627.499	97
627.706	91
627.912	88
628.119	119
628.325	101
628.532	100
628.738	105
628.945	101
629.151	98
629.357	104
629.564	86
629.77	96
629.976	98
630.183	91
630.389	105
630.595	101
630.802	87
631.008	106
631.214	92
631.42	92
631.627	102
631.833	101
632.039	96
632.245	80
632.451	100
632.657	97
632.863	96
633.069	89
633.275	89
633.481	105
633.688	92
633.893	78
634.099	86
634.305	103
634.511	91
634.717	76
634.923	103
635.129	80
635.335	100
635.541	105
635.747	101
635.952	94
636.158	108
636.364	91
636.57	90
636.775	97
636.981	97
637.187	87
637.392	85
637.598	78
637.804	98
638.009	112
638.215	86
638.421	91
638.626	81
638.832	94
639.037	89
639.243	106
639.448	94
639.654	79
639.859	90
640.065	87
640.27	85
640.475	86
640.681	104
640.886	101
641.091	110
641.297	87
641.502	83
641.707	103
641.913	93
642.118	97
642.323	79
642.528	86
642.733	89
642.939	80
643.144	102
643.349	86
643.554	100
643.759	92
643.964	90
644.169	97
644.374	89
644.579	81
644.784	86
644.989	100
645.194	93
645.399	107
645.604	92
645.809	87
646.014	91
646.219	100
646.423	95
646.628	101
646.833	89
647.038	91
647.243	101
647.447	85
647.652	90
647.857	87
648.062	88
648.266	75
648.471	99
648.676	97
648.88	106
649.085	84
649.289	92
649.494	96
649.698	89
649.903	99
650.107	110
650.312	90
650.516	85
650.721	95
650.925	92
651.13	95
651.334	100
651.539	82
651.743	87
651.947	80
652.152	91
652.356	93
652.56	80
652.764	101
652.969	87
653.173	80
653.377	88
653.581	83
653.785	92
653.99	98
654.194	95
654.398	80
654.602	91
654.806	79
655.01	92
655.214	95
655.418	89
655.622	80
655.826	100
656.03	87
656.234	93
656.438	89
656.642	91
656.846	88
657.049	78
657.253	91
657.457	87
657.661	94
657.865	97
658.068	81
658.272	78
658.476	95
658.68	96
658.883	84
659.087	93
659.291	80
659.494	82
659.698	106
659.901	88
660.105	77
660.309	85
660.512	83
660.716	87
660.919	82
661.123	75
661.326	108
661.53	86
661.733	85
661.936	84
662.14	100
662.343	71
662.546	90
662.75	91
662.953	91
663.156	79
663.36	87
663.563	77
663.766	80
663.969	89
664.173	87
664.376	86
664.579	87
664.782	98
664.985	84
665.188	88
665.391	74
665.594	87
665.797	88
666	81
666.203	80
666.406	74
666.609	79
666.812	79
667.015	73
667.218	84
667.421	94
667.624	81
667.827	87
668.03	80
668.232	77
668.435	81
668.638	86
668.841	75
669.043	73
669.246	80
669.449	84
669.651	73
669.854	72
670.057	87
670.259	93
670.462	79
670.665	91
670.867	79
671.07	81
671.272	77
671.475	71
671.677	82
671.88	76
672.082	84
672.284	86
672.487	82
672.689	76
672.892	79
