Data from Zn(NO3)2Standard.Agarose3%.GreenCap.LampEnergy5.5.E.O_HRD10591_15-00-53-767.txt Node
Date: Mon Jul 22 15:00:53 EDT 2019
User: cochatt
Spectrometer: HR+D1059
Trigger mode: 1
Integration Time (sec): 1.000000E-1
Scans to average: 1
Electric dark correction enabled: true
Nonlinearity correction enabled: false
Boxcar width: 0
XAxis mode: Wavelengths
Number of Pixels in Spectrum: 2048
>>>>>Begin Spectral Data<<<<<
223.165	-21
223.4	-21
223.635	-21
223.869	-25
224.104	-19
224.338	-14
224.573	-14
224.808	-8
225.042	-11
225.277	2
225.511	-18
225.746	6
225.98	9
226.215	5
226.449	14
226.683	21
226.918	40
227.152	33
227.387	37
227.621	48
227.856	47
228.09	42
228.324	57
228.559	61
228.793	61
229.027	61
229.262	63
229.496	60
229.73	72
229.964	81
230.199	69
230.433	73
230.667	67
230.901	77
231.136	95
231.37	71
231.604	92
231.838	87
232.072	91
232.306	78
232.541	75
232.775	99
233.009	89
233.243	89
233.477	85
233.711	84
233.945	81
234.179	77
234.413	94
234.647	81
234.881	85
235.115	77
235.349	81
235.583	95
235.817	86
236.051	85
236.285	87
236.519	79
236.753	79
236.987	85
237.221	67
237.455	87
237.689	80
237.922	79
238.156	91
238.39	82
238.624	83
238.858	81
239.091	82
239.325	80
239.559	90
239.793	77
240.027	83
240.26	99
240.494	73
240.728	75
240.961	78
241.195	81
241.429	82
241.662	81
241.896	73
242.13	60
242.363	82
242.597	80
242.83	84
243.064	78
243.298	80
243.531	77
243.765	75
243.998	94
244.232	78
244.465	105
244.699	76
244.932	80
245.166	88
245.399	83
245.633	98
245.866	82
246.099	94
246.333	82
246.566	80
246.8	78
247.033	88
247.266	93
247.5	88
247.733	81
247.966	83
248.2	93
248.433	86
248.666	88
248.899	86
249.133	85
249.366	82
249.599	73
249.832	89
250.066	87
250.299	92
250.532	70
250.765	77
250.998	78
251.231	87
251.465	88
251.698	78
251.931	78
252.164	78
252.397	90
252.63	92
252.863	92
253.096	81
253.329	85
253.562	93
253.795	94
254.028	98
254.261	73
254.494	79
254.727	80
254.96	92
255.193	75
255.426	81
255.659	89
255.892	80
256.124	83
256.357	80
256.59	75
256.823	78
257.056	82
257.289	92
257.521	81
257.754	93
257.987	86
258.22	82
258.452	78
258.685	92
258.918	89
259.151	89
259.383	84
259.616	89
259.849	83
260.081	87
260.314	92
260.547	100
260.779	77
261.012	92
261.244	86
261.477	103
261.71	82
261.942	73
262.175	99
262.407	87
262.64	95
262.872	88
263.105	86
263.337	78
263.57	87
263.802	82
264.035	80
264.267	90
264.499	87
264.732	99
264.964	86
265.197	80
265.429	93
265.661	96
265.894	87
266.126	77
266.358	83
266.591	75
266.823	69
267.055	96
267.287	93
267.52	96
267.752	95
267.984	85
268.216	103
268.448	93
268.681	92
268.913	99
269.145	88
269.377	83
269.609	98
269.841	97
270.073	87
270.306	78
270.538	83
270.77	107
271.002	89
271.234	96
271.466	81
271.698	87
271.93	90
272.162	90
272.394	85
272.626	76
272.858	88
273.09	86
273.322	73
273.553	76
273.785	97
274.017	99
274.249	107
274.481	97
274.713	93
274.945	90
275.176	70
275.408	92
275.64	91
275.872	74
276.104	73
276.335	81
276.567	88
276.799	96
277.031	92
277.262	92
277.494	102
277.726	81
277.957	81
278.189	78
278.421	91
278.652	81
278.884	91
279.115	84
279.347	78
279.579	63
279.81	77
280.042	85
280.273	100
280.505	90
280.736	85
280.968	89
281.199	77
281.431	87
281.662	95
281.894	105
282.125	87
282.356	84
282.588	92
282.819	93
283.051	96
283.282	83
283.513	84
283.745	81
283.976	107
284.207	90
284.439	96
284.67	93
284.901	103
285.132	91
285.364	82
285.595	83
285.826	91
286.057	90
286.288	86
286.52	97
286.751	91
286.982	83
287.213	84
287.444	86
287.675	99
287.906	98
288.138	97
288.369	85
288.6	91
288.831	92
289.062	82
289.293	86
289.524	95
289.755	77
289.986	83
290.217	91
290.448	86
290.679	88
290.91	85
291.141	86
291.371	87
291.602	83
291.833	95
292.064	96
292.295	109
292.526	78
292.757	81
292.987	92
293.218	93
293.449	94
293.68	79
293.91	81
294.141	98
294.372	83
294.603	71
294.833	97
295.064	90
295.295	84
295.525	96
295.756	87
295.987	73
296.217	91
296.448	96
296.679	79
296.909	96
297.14	77
297.37	94
297.601	91
297.831	94
298.062	89
298.292	93
298.523	80
298.753	78
298.984	86
299.214	93
299.445	91
299.675	97
299.905	68
300.136	84
300.366	90
300.597	88
300.827	93
301.057	78
301.288	81
301.518	80
301.748	91
301.979	83
302.209	90
302.439	89
302.669	99
302.9	89
303.13	86
303.36	93
303.59	90
303.82	84
304.051	95
304.281	103
304.511	94
304.741	102
304.971	95
305.201	92
305.431	89
305.661	91
305.891	92
306.121	93
306.352	95
306.582	89
306.812	94
307.042	89
307.272	82
307.502	93
307.731	88
307.961	75
308.191	96
308.421	88
308.651	81
308.881	91
309.111	81
309.341	79
309.571	86
309.8	111
310.03	96
310.26	87
310.49	84
310.72	87
310.949	94
311.179	95
311.409	86
311.639	82
311.868	85
312.098	84
312.328	90
312.557	84
312.787	83
313.017	87
313.246	110
313.476	80
313.706	89
313.935	86
314.165	81
314.394	88
314.624	82
314.853	90
315.083	101
315.312	82
315.542	91
315.771	87
316.001	82
316.23	82
316.46	80
316.689	96
316.919	100
317.148	84
317.377	87
317.607	99
317.836	95
318.065	92
318.295	79
318.524	102
318.753	98
318.983	93
319.212	82
319.441	98
319.67	98
319.9	105
320.129	93
320.358	86
320.587	90
320.816	99
321.046	90
321.275	105
321.504	90
321.733	96
321.962	73
322.191	88
322.42	82
322.649	78
322.878	102
323.108	76
323.337	86
323.566	80
323.795	97
324.024	82
324.253	90
324.482	77
324.71	99
324.939	97
325.168	112
325.397	85
325.626	96
325.855	84
326.084	99
326.313	98
326.542	97
326.77	90
326.999	91
327.228	86
327.457	75
327.686	83
327.914	100
328.143	96
328.372	96
328.6	77
328.829	95
329.058	92
329.287	81
329.515	83
329.744	97
329.972	82
330.201	84
330.43	86
330.658	89
330.887	95
331.115	97
331.344	90
331.572	93
331.801	89
332.03	83
332.258	84
332.486	87
332.715	94
332.943	89
333.172	90
333.4	102
333.629	83
333.857	96
334.085	85
334.314	80
334.542	76
334.771	80
334.999	81
335.227	91
335.455	86
335.684	88
335.912	88
336.14	91
336.369	92
336.597	84
336.825	90
337.053	88
337.281	88
337.51	87
337.738	93
337.966	87
338.194	82
338.422	76
338.65	89
338.878	83
339.106	98
339.334	105
339.562	88
339.79	70
340.018	81
340.246	83
340.474	82
340.702	94
340.93	80
341.158	85
341.386	80
341.614	101
341.842	103
342.07	79
342.298	90
342.526	72
342.754	81
342.981	92
343.209	80
343.437	104
343.665	89
343.893	77
344.12	90
344.348	93
344.576	98
344.804	86
345.031	81
345.259	87
345.487	94
345.714	86
345.942	86
346.17	97
346.397	82
346.625	87
346.853	81
347.08	96
347.308	83
347.535	90
347.763	81
347.99	94
348.218	93
348.445	87
348.673	88
348.9	98
349.128	95
349.355	96
349.583	91
349.81	83
350.037	84
350.265	81
350.492	85
350.72	69
350.947	94
351.174	101
351.402	86
351.629	92
351.856	96
352.083	91
352.311	94
352.538	95
352.765	82
352.992	98
353.22	89
353.447	92
353.674	94
353.901	97
354.128	91
354.355	103
354.583	85
354.81	76
355.037	100
355.264	103
355.491	89
355.718	99
355.945	89
356.172	88
356.399	91
356.626	79
356.853	91
357.08	92
357.307	91
357.534	79
357.761	78
357.988	86
358.215	89
358.441	84
358.668	89
358.895	79
359.122	86
359.349	76
359.576	81
359.802	96
360.029	80
360.256	81
360.483	93
360.709	99
360.936	89
361.163	93
361.39	97
361.616	96
361.843	93
362.07	83
362.296	86
362.523	90
362.749	87
362.976	90
363.203	101
363.429	85
363.656	89
363.882	98
364.109	91
364.335	81
364.562	83
364.788	70
365.015	95
365.241	88
365.468	88
365.694	100
365.92	81
366.147	90
366.373	91
366.599	80
366.826	85
367.052	78
367.278	78
367.505	77
367.731	92
367.957	85
368.184	86
368.41	83
368.636	94
368.862	92
369.089	90
369.315	76
369.541	101
369.767	91
369.993	94
370.219	91
370.445	74
370.672	92
370.898	87
371.124	100
371.35	91
371.576	89
371.802	76
372.028	84
372.254	87
372.48	89
372.706	86
372.932	79
373.158	106
373.384	99
373.61	79
373.835	84
374.061	81
374.287	81
374.513	79
374.739	89
374.965	98
375.191	85
375.416	86
375.642	91
375.868	94
376.094	83
376.319	93
376.545	93
376.771	73
376.997	96
377.222	89
377.448	86
377.674	84
377.899	87
378.125	93
378.35	87
378.576	93
378.802	87
379.027	84
379.253	90
379.478	82
379.704	88
379.929	95
380.155	86
380.38	75
380.606	86
380.831	103
381.057	96
381.282	89
381.507	79
381.733	88
381.958	86
382.184	91
382.409	98
382.634	86
382.86	95
383.085	93
383.31	85
383.535	90
383.761	100
383.986	91
384.211	84
384.436	108
384.662	98
384.887	82
385.112	84
385.337	88
385.562	83
385.787	97
386.013	89
386.238	83
386.463	104
386.688	96
386.913	83
387.138	93
387.363	83
387.588	96
387.813	99
388.038	99
388.263	88
388.488	93
388.713	94
388.938	87
389.163	98
389.387	81
389.612	88
389.837	100
390.062	84
390.287	81
390.512	82
390.736	79
390.961	89
391.186	82
391.411	80
391.636	90
391.86	83
392.085	107
392.31	92
392.534	98
392.759	83
392.984	87
393.208	89
393.433	83
393.658	76
393.882	86
394.107	90
394.331	87
394.556	83
394.78	73
395.005	81
395.229	81
395.454	96
395.678	101
395.903	91
396.127	94
396.352	90
396.576	86
396.801	96
397.025	84
397.249	83
397.474	93
397.698	91
397.922	80
398.147	81
398.371	89
398.595	89
398.82	86
399.044	97
399.268	84
399.492	96
399.717	100
399.941	74
400.165	109
400.389	86
400.613	83
400.837	93
401.062	86
401.286	85
401.51	80
401.734	86
401.958	87
402.182	90
402.406	88
402.63	77
402.854	79
403.078	78
403.302	89
403.526	89
403.75	90
403.974	80
404.198	87
404.422	75
404.645	89
404.869	92
405.093	81
405.317	87
405.541	88
405.765	82
405.988	88
406.212	90
406.436	80
406.66	87
406.883	81
407.107	85
407.331	89
407.555	86
407.778	85
408.002	90
408.226	96
408.449	95
408.673	94
408.896	85
409.12	95
409.344	94
409.567	95
409.791	102
410.014	91
410.238	85
410.461	109
410.685	91
410.908	79
411.132	97
411.355	96
411.578	94
411.802	94
412.025	101
412.249	92
412.472	79
412.695	80
412.919	72
413.142	89
413.365	89
413.589	108
413.812	117
414.035	95
414.258	88
414.482	78
414.705	103
414.928	78
415.151	103
415.374	80
415.597	87
415.821	83
416.044	84
416.267	102
416.49	89
416.713	79
416.936	95
417.159	91
417.382	99
417.605	91
417.828	96
418.051	88
418.274	96
418.497	86
418.72	86
418.943	99
419.166	90
419.389	99
419.611	92
419.834	83
420.057	91
420.28	92
420.503	101
420.726	88
420.948	85
421.171	98
421.394	82
421.617	93
421.839	105
422.062	91
422.285	78
422.507	96
422.73	77
422.953	91
423.175	84
423.398	92
423.621	110
423.843	96
424.066	105
424.288	101
424.511	114
424.733	102
424.956	93
425.178	106
425.401	94
425.623	90
425.846	102
426.068	108
426.291	91
426.513	90
426.735	86
426.958	94
427.18	89
427.402	92
427.625	81
427.847	85
428.069	92
428.292	109
428.514	104
428.736	95
428.958	98
429.181	97
429.403	93
429.625	94
429.847	107
430.069	98
430.292	94
430.514	106
430.736	82
430.958	104
431.18	84
431.402	98
431.624	101
431.846	100
432.068	82
432.29	83
432.512	103
432.734	104
432.956	86
433.178	100
433.4	89
433.622	81
433.844	97
434.066	98
434.287	87
434.509	99
434.731	98
434.953	78
435.175	85
435.397	89
435.618	88
435.84	92
436.062	86
436.284	80
436.505	85
436.727	98
436.949	109
437.17	87
437.392	95
437.614	78
437.835	83
438.057	101
438.278	97
438.5	99
438.721	75
438.943	101
439.165	96
439.386	99
439.608	101
439.829	107
440.05	102
440.272	96
440.493	95
440.715	92
440.936	93
441.158	80
441.379	92
441.6	79
441.822	103
442.043	97
442.264	93
442.486	99
442.707	91
442.928	109
443.149	97
443.371	73
443.592	93
443.813	96
444.034	90
444.255	112
444.476	99
444.698	87
444.919	88
445.14	183
445.361	151
445.582	89
445.803	101
446.024	91
446.245	97
446.466	91
446.687	101
446.908	106
447.129	120
447.35	94
447.571	106
447.792	115
448.013	99
448.234	86
448.455	101
448.675	89
448.896	105
449.117	90
449.338	87
449.559	95
449.779	92
450	96
450.221	92
450.442	86
450.662	92
450.883	97
451.104	99
451.324	96
451.545	91
451.766	93
451.986	83
452.207	91
452.428	90
452.648	81
452.869	77
453.089	87
453.31	93
453.53	88
453.751	85
453.971	94
454.192	100
454.412	105
454.633	76
454.853	82
455.073	99
455.294	82
455.514	98
455.734	85
455.955	82
456.175	84
456.395	97
456.616	93
456.836	85
457.056	89
457.276	95
457.497	95
457.717	91
457.937	76
458.157	98
458.377	92
458.598	93
458.818	98
459.038	83
459.258	79
459.478	90
459.698	78
459.918	100
460.138	94
460.358	83
460.578	85
460.798	97
461.018	93
461.238	107
461.458	92
461.678	97
461.898	95
462.118	97
462.338	91
462.558	89
462.777	97
462.997	97
463.217	101
463.437	80
463.657	76
463.876	95
464.096	87
464.316	101
464.536	85
464.755	88
464.975	91
465.195	81
465.414	84
465.634	85
465.854	78
466.073	72
466.293	96
466.512	101
466.732	98
466.951	92
467.171	96
467.391	79
467.61	82
467.829	85
468.049	98
468.268	82
468.488	96
468.707	94
468.927	93
469.146	91
469.365	93
469.585	82
469.804	82
470.023	93
470.243	97
470.462	91
470.681	83
470.901	88
471.12	89
471.339	109
471.558	89
471.777	90
471.997	107
472.216	104
472.435	91
472.654	104
472.873	93
473.092	90
473.311	110
473.53	85
473.749	97
473.968	97
474.187	95
474.406	94
474.625	80
474.844	83
475.063	93
475.282	93
475.501	90
475.72	95
475.939	99
476.158	98
476.377	107
476.596	93
476.814	97
477.033	94
477.252	84
477.471	93
477.69	84
477.908	82
478.127	108
478.346	86
478.564	89
478.783	85
479.002	97
479.22	90
479.439	82
479.658	97
479.876	92
480.095	97
480.313	93
480.532	94
480.751	104
480.969	86
481.188	78
481.406	96
481.624	87
481.843	80
482.061	95
482.28	106
482.498	91
482.717	94
482.935	93
483.153	110
483.372	94
483.59	123
483.808	95
484.027	92
484.245	91
484.463	88
484.681	90
484.9	96
485.118	96
485.336	83
485.554	96
485.772	88
485.99	92
486.209	83
486.427	100
486.645	90
486.863	98
487.081	94
487.299	83
487.517	101
487.735	93
487.953	112
488.171	102
488.389	110
488.607	103
488.825	110
489.043	92
489.261	91
489.479	99
489.696	90
489.914	82
490.132	104
490.35	94
490.568	84
490.786	97
491.003	101
491.221	95
491.439	101
491.657	111
491.874	96
492.092	109
492.31	111
492.527	118
492.745	109
492.963	110
493.18	97
493.398	99
493.615	106
493.833	113
494.05	101
494.268	99
494.485	91
494.703	97
494.92	109
495.138	98
495.355	97
495.573	110
495.79	113
496.008	95
496.225	102
496.442	100
496.66	112
496.877	99
497.094	103
497.312	97
497.529	98
497.746	94
497.963	96
498.181	94
498.398	90
498.615	95
498.832	91
499.049	76
499.267	96
499.484	86
499.701	91
499.918	90
500.135	94
500.352	89
500.569	73
500.786	106
501.003	106
501.22	98
501.437	85
501.654	103
501.871	88
502.088	105
502.305	99
502.522	77
502.739	103
502.956	94
503.172	94
503.389	100
503.606	87
503.823	94
504.04	91
504.256	101
504.473	98
504.69	95
504.907	100
505.123	96
505.34	80
505.557	85
505.773	91
505.99	91
506.207	98
506.423	90
506.64	95
506.856	93
507.073	99
507.289	99
507.506	94
507.722	83
507.939	84
508.155	82
508.372	95
508.588	106
508.805	91
509.021	81
509.238	95
509.454	94
509.67	82
509.887	96
510.103	85
510.319	92
510.536	93
510.752	82
510.968	71
511.184	89
511.401	90
511.617	86
511.833	99
512.049	91
512.265	89
512.481	89
512.698	92
512.914	91
513.13	86
513.346	76
513.562	80
513.778	77
513.994	97
514.21	109
514.426	91
514.642	86
514.858	106
515.074	86
515.29	81
515.506	75
515.721	90
515.937	95
516.153	86
516.369	73
516.585	92
516.801	87
517.016	89
517.232	88
517.448	86
517.664	88
517.879	81
518.095	91
518.311	94
518.527	86
518.742	89
518.958	81
519.173	94
519.389	93
519.605	96
519.82	90
520.036	99
520.251	96
520.467	98
520.682	88
520.898	105
521.113	78
521.329	99
521.544	97
521.76	92
521.975	84
522.19	89
522.406	84
522.621	88
522.836	89
523.052	90
523.267	95
523.482	96
523.698	88
523.913	104
524.128	84
524.343	100
524.559	101
524.774	83
524.989	83
525.204	97
525.419	94
525.634	97
525.849	96
526.064	76
526.28	94
526.495	87
526.71	88
526.925	81
527.14	83
527.355	81
527.57	75
527.785	80
527.999	96
528.214	77
528.429	87
528.644	112
528.859	99
529.074	97
529.289	97
529.503	109
529.718	100
529.933	91
530.148	81
530.363	94
530.577	89
530.792	84
531.007	80
531.221	88
531.436	90
531.651	88
531.865	90
532.08	95
532.295	103
532.509	86
532.724	95
532.938	95
533.153	96
533.367	107
533.582	101
533.796	100
534.011	90
534.225	105
534.44	91
534.654	97
534.868	102
535.083	79
535.297	89
535.511	84
535.726	107
535.94	100
536.154	92
536.369	95
536.583	94
536.797	83
537.011	89
537.225	101
537.44	91
537.654	94
537.868	100
538.082	69
538.296	95
538.51	89
538.724	97
538.938	105
539.153	101
539.367	91
539.581	82
539.795	87
540.009	95
540.222	92
540.436	99
540.65	90
540.864	95
541.078	80
541.292	93
541.506	120
541.72	101
541.934	107
542.147	93
542.361	105
542.575	97
542.789	104
543.002	108
543.216	90
543.43	94
543.644	102
543.857	103
544.071	106
544.285	94
544.498	115
544.712	90
544.925	102
545.139	86
545.352	95
545.566	119
545.779	110
545.993	112
546.206	104
546.42	107
546.633	89
546.847	102
547.06	110
547.274	91
547.487	98
547.7	97
547.914	101
548.127	95
548.34	112
548.554	105
548.767	100
548.98	111
549.193	99
549.407	89
549.62	101
549.833	109
550.046	100
550.259	97
550.473	103
550.686	105
550.899	95
551.112	98
551.325	94
551.538	88
551.751	107
551.964	101
552.177	97
552.39	99
552.603	99
552.816	102
553.029	106
553.242	107
553.455	107
553.667	94
553.88	100
554.093	103
554.306	97
554.519	103
554.732	93
554.944	106
555.157	97
555.37	93
555.583	97
555.795	91
556.008	93
556.221	101
556.433	108
556.646	112
556.859	104
557.071	106
557.284	100
557.496	95
557.709	106
557.921	118
558.134	92
558.346	109
558.559	102
558.771	100
558.984	92
559.196	98
559.409	98
559.621	78
559.833	103
560.046	93
560.258	100
560.47	88
560.683	100
560.895	92
561.107	100
561.32	105
561.532	98
561.744	104
561.956	98
562.168	95
562.381	85
562.593	105
562.805	101
563.017	111
563.229	104
563.441	100
563.653	112
563.865	97
564.077	105
564.289	94
564.501	101
564.713	86
564.925	95
565.137	95
565.349	109
565.561	88
565.773	88
565.985	97
566.197	88
566.408	101
566.62	91
566.832	96
567.044	101
567.255	86
567.467	81
567.679	95
567.891	95
568.102	98
568.314	91
568.526	66
568.737	90
568.949	91
569.161	67
569.372	74
569.584	85
569.795	89
570.007	94
570.218	82
570.43	84
570.641	101
570.853	86
571.064	90
571.276	98
571.487	92
571.698	97
571.91	103
572.121	88
572.333	93
572.544	94
572.755	95
572.966	90
573.178	96
573.389	86
573.6	83
573.811	76
574.023	93
574.234	102
574.445	87
574.656	88
574.867	89
575.078	91
575.289	95
575.501	90
575.712	90
575.923	100
576.134	92
576.345	91
576.556	81
576.767	86
576.978	91
577.188	100
577.399	101
577.61	80
577.821	95
578.032	97
578.243	81
578.454	87
578.665	91
578.875	87
579.086	104
579.297	84
579.508	91
579.718	105
579.929	73
580.14	96
580.35	96
580.561	87
580.772	81
580.982	80
581.193	93
581.403	92
581.614	72
581.825	81
582.035	97
582.246	98
582.456	85
582.667	95
582.877	92
583.087	86
583.298	83
583.508	87
583.719	98
583.929	81
584.139	87
584.35	83
584.56	98
584.77	96
584.981	81
585.191	88
585.401	93
585.611	101
585.821	91
586.032	89
586.242	91
586.452	88
586.662	86
586.872	83
587.082	95
587.292	81
587.502	82
587.713	89
587.923	87
588.133	96
588.343	92
588.553	97
588.762	88
588.972	81
589.182	92
589.392	82
589.602	91
589.812	96
590.022	86
590.232	89
590.441	90
590.651	87
590.861	99
591.071	96
591.281	76
591.49	82
591.7	87
591.91	95
592.119	99
592.329	106
592.539	77
592.748	82
592.958	88
593.167	78
593.377	97
593.587	90
593.796	73
594.006	65
594.215	86
594.424	89
594.634	92
594.843	98
595.053	98
595.262	86
595.472	89
595.681	70
595.89	93
596.1	92
596.309	103
596.518	104
596.727	100
596.937	84
597.146	89
597.355	78
597.564	88
597.774	92
597.983	86
598.192	99
598.401	86
598.61	83
598.819	75
599.028	73
599.237	94
599.446	87
599.655	85
599.864	95
600.073	82
600.282	96
600.491	86
600.7	84
600.909	90
601.118	89
601.327	89
601.536	78
601.745	110
601.953	82
602.162	99
602.371	82
602.58	79
602.789	84
602.997	103
603.206	100
603.415	97
603.623	87
603.832	95
604.041	84
604.249	81
604.458	96
604.666	87
604.875	87
605.084	95
605.292	84
605.501	99
605.709	80
605.918	99
606.126	90
606.334	98
606.543	89
606.751	82
606.96	95
607.168	95
607.376	99
607.585	110
607.793	99
608.001	93
608.21	95
608.418	102
608.626	104
608.834	101
609.043	101
609.251	94
609.459	103
609.667	98
609.875	93
610.083	79
610.291	98
610.499	82
610.707	91
610.916	101
611.124	89
611.332	82
611.54	105
611.748	104
611.955	98
612.163	92
612.371	95
612.579	92
612.787	91
612.995	95
613.203	84
613.411	90
613.618	102
613.826	101
614.034	87
614.242	89
614.449	92
614.657	99
614.865	92
615.072	104
615.28	88
615.488	91
615.695	78
615.903	101
616.111	101
616.318	112
616.526	102
616.733	90
616.941	94
617.148	91
617.356	96
617.563	87
617.771	101
617.978	88
618.185	87
618.393	106
618.6	96
618.807	94
619.015	95
619.222	85
619.429	79
619.637	89
619.844	90
620.051	90
620.258	86
620.466	88
620.673	95
620.88	96
621.087	99
621.294	83
621.501	101
621.708	74
621.915	83
622.122	99
622.329	93
622.536	94
622.743	98
622.95	92
623.157	96
623.364	86
623.571	95
623.778	99
623.985	96
624.192	82
624.399	99
624.606	92
624.812	101
625.019	95
625.226	85
625.433	86
625.639	75
625.846	93
626.053	83
626.259	91
626.466	80
626.673	97
626.879	103
627.086	92
627.293	87
627.499	79
627.706	81
627.912	106
628.119	81
628.325	102
628.532	87
628.738	103
628.945	89
629.151	92
629.357	98
629.564	90
629.77	90
629.976	81
630.183	98
630.389	91
630.595	87
630.802	81
631.008	98
631.214	85
631.42	91
631.627	106
631.833	88
632.039	94
632.245	91
632.451	107
632.657	89
632.863	81
633.069	86
633.275	85
633.481	97
633.688	97
633.893	83
634.099	94
634.305	90
634.511	93
634.717	98
634.923	90
635.129	85
635.335	85
635.541	69
635.747	96
635.952	97
636.158	85
636.364	98
636.57	101
636.775	93
636.981	82
637.187	91
637.392	95
637.598	96
637.804	77
638.009	95
638.215	102
638.421	99
638.626	90
638.832	81
639.037	83
639.243	93
639.448	94
639.654	90
639.859	94
640.065	84
640.27	94
640.475	93
640.681	97
640.886	95
641.091	94
641.297	81
641.502	90
641.707	89
641.913	91
642.118	84
642.323	103
642.528	97
642.733	95
642.939	107
643.144	94
643.349	87
643.554	104
643.759	88
643.964	93
644.169	102
644.374	98
644.579	93
644.784	90
644.989	103
645.194	67
645.399	92
645.604	89
645.809	85
646.014	91
646.219	92
646.423	95
646.628	72
646.833	87
647.038	81
647.243	86
647.447	93
647.652	109
647.857	99
648.062	89
648.266	97
648.471	99
648.676	100
648.88	79
649.085	94
649.289	94
649.494	96
649.698	105
649.903	86
650.107	90
650.312	103
650.516	85
650.721	86
650.925	76
651.13	96
651.334	87
651.539	82
651.743	86
651.947	93
652.152	91
652.356	103
652.56	93
652.764	69
652.969	82
653.173	79
653.377	97
653.581	84
653.785	78
653.99	101
654.194	71
654.398	78
654.602	90
654.806	79
655.01	93
655.214	82
655.418	90
655.622	101
655.826	101
656.03	87
656.234	105
656.438	81
656.642	78
656.846	91
657.049	102
657.253	94
657.457	89
657.661	91
657.865	77
658.068	94
658.272	87
658.476	92
658.68	87
658.883	98
659.087	87
659.291	78
659.494	80
659.698	91
659.901	67
660.105	85
660.309	71
660.512	83
660.716	85
660.919	91
661.123	97
661.326	91
661.53	103
661.733	78
661.936	76
662.14	82
662.343	88
662.546	91
662.75	95
662.953	88
663.156	80
663.36	84
663.563	83
663.766	78
663.969	90
664.173	95
664.376	78
664.579	99
664.782	91
664.985	80
665.188	85
665.391	92
665.594	88
665.797	86
666	92
666.203	80
666.406	91
666.609	83
666.812	83
667.015	91
667.218	90
667.421	79
667.624	95
667.827	90
668.03	88
668.232	87
668.435	79
668.638	73
668.841	94
669.043	87
669.246	84
669.449	92
669.651	95
669.854	93
670.057	77
670.259	89
670.462	103
670.665	94
670.867	89
671.07	77
671.272	96
671.475	113
671.677	85
671.88	86
672.082	79
672.284	87
672.487	85
672.689	78
672.892	78
