Data from Zn(NO3)2Standard.Agarose3%.GreenCap.LampEnergy10E.O_HRD10591_15-06-40-942.txt Node
Date: Mon Jul 22 15:06:40 EDT 2019
User: cochatt
Spectrometer: HR+D1059
Trigger mode: 1
Integration Time (sec): 1.000000E-1
Scans to average: 1
Electric dark correction enabled: true
Nonlinearity correction enabled: false
Boxcar width: 0
XAxis mode: Wavelengths
Number of Pixels in Spectrum: 2048
>>>>>Begin Spectral Data<<<<<
223.165	-3
223.4	-3
223.635	-3
223.869	-2
224.104	-8
224.338	-12
224.573	-21
224.808	-14
225.042	-13
225.277	-13
225.511	1
225.746	11
225.98	9
226.215	-7
226.449	12
226.683	7
226.918	23
227.152	30
227.387	27
227.621	26
227.856	42
228.09	48
228.324	45
228.559	63
228.793	48
229.027	63
229.262	72
229.496	55
229.73	63
229.964	63
230.199	74
230.433	80
230.667	88
230.901	86
231.136	76
231.37	80
231.604	84
231.838	88
232.072	75
232.306	87
232.541	79
232.775	76
233.009	70
233.243	84
233.477	79
233.711	73
233.945	82
234.179	96
234.413	83
234.647	91
234.881	84
235.115	79
235.349	61
235.583	69
235.817	86
236.051	87
236.285	95
236.519	72
236.753	71
236.987	81
237.221	60
237.455	75
237.689	101
237.922	70
238.156	77
238.39	84
238.624	75
238.858	79
239.091	77
239.325	80
239.559	86
239.793	80
240.027	66
240.26	86
240.494	91
240.728	76
240.961	77
241.195	81
241.429	80
241.662	89
241.896	75
242.13	60
242.363	97
242.597	85
242.83	70
243.064	77
243.298	71
243.531	74
243.765	85
243.998	77
244.232	85
244.465	78
244.699	75
244.932	58
245.166	80
245.399	77
245.633	74
245.866	97
246.099	80
246.333	83
246.566	78
246.8	83
247.033	90
247.266	86
247.5	86
247.733	72
247.966	80
248.2	81
248.433	71
248.666	84
248.899	77
249.133	97
249.366	74
249.599	96
249.832	82
250.066	84
250.299	80
250.532	72
250.765	79
250.998	79
251.231	73
251.465	77
251.698	82
251.931	77
252.164	75
252.397	77
252.63	68
252.863	85
253.096	99
253.329	87
253.562	86
253.795	86
254.028	80
254.261	86
254.494	87
254.727	81
254.96	93
255.193	91
255.426	84
255.659	89
255.892	87
256.124	86
256.357	84
256.59	92
256.823	85
257.056	70
257.289	79
257.521	81
257.754	85
257.987	71
258.22	97
258.452	86
258.685	93
258.918	90
259.151	95
259.383	89
259.616	95
259.849	88
260.081	88
260.314	90
260.547	74
260.779	76
261.012	81
261.244	94
261.477	80
261.71	76
261.942	82
262.175	76
262.407	80
262.64	81
262.872	95
263.105	83
263.337	83
263.57	91
263.802	78
264.035	76
264.267	85
264.499	74
264.732	97
264.964	87
265.197	78
265.429	91
265.661	87
265.894	81
266.126	81
266.358	95
266.591	88
266.823	76
267.055	85
267.287	75
267.52	90
267.752	77
267.984	79
268.216	93
268.448	85
268.681	87
268.913	89
269.145	80
269.377	83
269.609	79
269.841	88
270.073	87
270.306	95
270.538	96
270.77	90
271.002	85
271.234	95
271.466	93
271.698	70
271.93	94
272.162	93
272.394	85
272.626	70
272.858	78
273.09	85
273.322	85
273.553	78
273.785	85
274.017	69
274.249	88
274.481	87
274.713	83
274.945	80
275.176	77
275.408	87
275.64	97
275.872	93
276.104	94
276.335	99
276.567	81
276.799	77
277.031	81
277.262	89
277.494	97
277.726	76
277.957	78
278.189	88
278.421	85
278.652	71
278.884	80
279.115	77
279.347	79
279.579	82
279.81	95
280.042	87
280.273	88
280.505	88
280.736	88
280.968	90
281.199	70
281.431	87
281.662	91
281.894	80
282.125	72
282.356	71
282.588	85
282.819	83
283.051	88
283.282	76
283.513	76
283.745	72
283.976	75
284.207	84
284.439	93
284.67	80
284.901	79
285.132	95
285.364	89
285.595	89
285.826	81
286.057	91
286.288	90
286.52	87
286.751	98
286.982	85
287.213	89
287.444	85
287.675	76
287.906	94
288.138	86
288.369	81
288.6	96
288.831	94
289.062	88
289.293	81
289.524	91
289.755	76
289.986	93
290.217	88
290.448	84
290.679	80
290.91	92
291.141	91
291.371	92
291.602	85
291.833	88
292.064	99
292.295	79
292.526	90
292.757	85
292.987	89
293.218	84
293.449	84
293.68	94
293.91	88
294.141	92
294.372	82
294.603	81
294.833	100
295.064	81
295.295	94
295.525	103
295.756	88
295.987	78
296.217	92
296.448	74
296.679	93
296.909	83
297.14	75
297.37	91
297.601	86
297.831	86
298.062	91
298.292	88
298.523	73
298.753	76
298.984	81
299.214	95
299.445	76
299.675	82
299.905	88
300.136	78
300.366	79
300.597	83
300.827	95
301.057	88
301.288	97
301.518	100
301.748	83
301.979	89
302.209	93
302.439	87
302.669	104
302.9	94
303.13	86
303.36	95
303.59	88
303.82	89
304.051	96
304.281	93
304.511	87
304.741	96
304.971	97
305.201	80
305.431	103
305.661	94
305.891	78
306.121	78
306.352	83
306.582	92
306.812	97
307.042	80
307.272	84
307.502	100
307.731	88
307.961	83
308.191	90
308.421	74
308.651	86
308.881	92
309.111	80
309.341	81
309.571	84
309.8	90
310.03	86
310.26	88
310.49	84
310.72	90
310.949	94
311.179	86
311.409	69
311.639	90
311.868	88
312.098	77
312.328	94
312.557	79
312.787	94
313.017	89
313.246	91
313.476	100
313.706	94
313.935	79
314.165	91
314.394	77
314.624	93
314.853	82
315.083	87
315.312	103
315.542	85
315.771	85
316.001	87
316.23	83
316.46	81
316.689	79
316.919	87
317.148	90
317.377	88
317.607	105
317.836	91
318.065	87
318.295	81
318.524	76
318.753	86
318.983	92
319.212	91
319.441	86
319.67	93
319.9	88
320.129	85
320.358	91
320.587	95
320.816	90
321.046	73
321.275	95
321.504	78
321.733	85
321.962	77
322.191	79
322.42	70
322.649	90
322.878	86
323.108	87
323.337	94
323.566	92
323.795	81
324.024	79
324.253	84
324.482	83
324.71	91
324.939	87
325.168	88
325.397	82
325.626	97
325.855	88
326.084	82
326.313	91
326.542	59
326.77	73
326.999	76
327.228	75
327.457	90
327.686	82
327.914	69
328.143	86
328.372	95
328.6	87
328.829	79
329.058	97
329.287	93
329.515	100
329.744	89
329.972	88
330.201	85
330.43	86
330.658	91
330.887	83
331.115	74
331.344	96
331.572	83
331.801	108
332.03	92
332.258	70
332.486	89
332.715	80
332.943	94
333.172	83
333.4	99
333.629	88
333.857	100
334.085	90
334.314	87
334.542	82
334.771	87
334.999	80
335.227	75
335.455	96
335.684	83
335.912	94
336.14	73
336.369	84
336.597	82
336.825	85
337.053	88
337.281	79
337.51	82
337.738	76
337.966	92
338.194	91
338.422	87
338.65	99
338.878	76
339.106	100
339.334	91
339.562	80
339.79	94
340.018	78
340.246	87
340.474	85
340.702	88
340.93	91
341.158	96
341.386	87
341.614	67
341.842	85
342.07	85
342.298	91
342.526	85
342.754	92
342.981	77
343.209	81
343.437	86
343.665	83
343.893	100
344.12	90
344.348	69
344.576	75
344.804	86
345.031	93
345.259	91
345.487	87
345.714	67
345.942	92
346.17	76
346.397	87
346.625	86
346.853	95
347.08	81
347.308	96
347.535	98
347.763	96
347.99	89
348.218	102
348.445	87
348.673	74
348.9	93
349.128	97
349.355	101
349.583	91
349.81	107
350.037	90
350.265	88
350.492	92
350.72	74
350.947	80
351.174	76
351.402	91
351.629	96
351.856	97
352.083	96
352.311	93
352.538	80
352.765	88
352.992	87
353.22	72
353.447	86
353.674	95
353.901	109
354.128	97
354.355	99
354.583	84
354.81	78
355.037	80
355.264	76
355.491	84
355.718	97
355.945	87
356.172	88
356.399	85
356.626	91
356.853	76
357.08	99
357.307	88
357.534	88
357.761	98
357.988	81
358.215	92
358.441	81
358.668	100
358.895	100
359.122	85
359.349	79
359.576	89
359.802	88
360.029	101
360.256	89
360.483	87
360.709	90
360.936	70
361.163	89
361.39	63
361.616	78
361.843	76
362.07	95
362.296	72
362.523	102
362.749	85
362.976	92
363.203	93
363.429	88
363.656	97
363.882	93
364.109	93
364.335	95
364.562	80
364.788	86
365.015	86
365.241	78
365.468	77
365.694	77
365.92	105
366.147	81
366.373	80
366.599	76
366.826	90
367.052	90
367.278	83
367.505	95
367.731	88
367.957	76
368.184	92
368.41	90
368.636	95
368.862	103
369.089	92
369.315	99
369.541	96
369.767	92
369.993	88
370.219	78
370.445	74
370.672	93
370.898	83
371.124	84
371.35	82
371.576	92
371.802	93
372.028	84
372.254	93
372.48	94
372.706	91
372.932	93
373.158	75
373.384	69
373.61	86
373.835	87
374.061	101
374.287	79
374.513	105
374.739	91
374.965	76
375.191	91
375.416	90
375.642	83
375.868	85
376.094	98
376.319	96
376.545	78
376.771	93
376.997	89
377.222	83
377.448	101
377.674	87
377.899	93
378.125	92
378.35	94
378.576	93
378.802	86
379.027	87
379.253	87
379.478	79
379.704	99
379.929	101
380.155	95
380.38	97
380.606	93
380.831	89
381.057	99
381.282	94
381.507	86
381.733	102
381.958	88
382.184	93
382.409	100
382.634	91
382.86	94
383.085	96
383.31	94
383.535	91
383.761	100
383.986	89
384.211	91
384.436	85
384.662	77
384.887	91
385.112	88
385.337	97
385.562	103
385.787	87
386.013	100
386.238	106
386.463	84
386.688	94
386.913	87
387.138	84
387.363	87
387.588	94
387.813	85
388.038	92
388.263	90
388.488	99
388.713	92
388.938	95
389.163	84
389.387	101
389.612	94
389.837	102
390.062	91
390.287	100
390.512	92
390.736	95
390.961	94
391.186	95
391.411	97
391.636	94
391.86	93
392.085	91
392.31	92
392.534	103
392.759	104
392.984	90
393.208	92
393.433	101
393.658	110
393.882	95
394.107	103
394.331	91
394.556	99
394.78	104
395.005	74
395.229	87
395.454	111
395.678	90
395.903	99
396.127	96
396.352	105
396.576	99
396.801	105
397.025	111
397.249	104
397.474	96
397.698	96
397.922	102
398.147	92
398.371	89
398.595	107
398.82	98
399.044	92
399.268	89
399.492	88
399.717	102
399.941	99
400.165	93
400.389	91
400.613	105
400.837	85
401.062	90
401.286	89
401.51	103
401.734	106
401.958	94
402.182	117
402.406	94
402.63	102
402.854	102
403.078	115
403.302	83
403.526	90
403.75	92
403.974	98
404.198	105
404.422	101
404.645	101
404.869	111
405.093	106
405.317	106
405.541	95
405.765	102
405.988	94
406.212	97
406.436	103
406.66	117
406.883	111
407.107	117
407.331	93
407.555	115
407.778	125
408.002	93
408.226	121
408.449	87
408.673	101
408.896	93
409.12	96
409.344	90
409.567	112
409.791	95
410.014	117
410.238	106
410.461	105
410.685	101
410.908	116
411.132	111
411.355	97
411.578	90
411.802	103
412.025	100
412.249	117
412.472	95
412.695	98
412.919	106
413.142	105
413.365	111
413.589	104
413.812	80
414.035	93
414.258	97
414.482	95
414.705	100
414.928	115
415.151	103
415.374	98
415.597	102
415.821	110
416.044	99
416.267	113
416.49	115
416.713	90
416.936	117
417.159	102
417.382	102
417.605	108
417.828	106
418.051	118
418.274	104
418.497	97
418.72	106
418.943	107
419.166	120
419.389	109
419.611	117
419.834	105
420.057	97
420.28	118
420.503	115
420.726	112
420.948	100
421.171	105
421.394	96
421.617	109
421.839	124
422.062	108
422.285	121
422.507	103
422.73	101
422.953	107
423.175	112
423.398	106
423.621	106
423.843	112
424.066	106
424.288	104
424.511	112
424.733	108
424.956	106
425.178	109
425.401	112
425.623	113
425.846	93
426.068	105
426.291	94
426.513	116
426.735	105
426.958	102
427.18	105
427.402	110
427.625	109
427.847	109
428.069	104
428.292	112
428.514	99
428.736	83
428.958	97
429.181	97
429.403	96
429.625	110
429.847	117
430.069	99
430.292	115
430.514	108
430.736	126
430.958	103
431.18	106
431.402	106
431.624	92
431.846	110
432.068	86
432.29	87
432.512	95
432.734	91
432.956	104
433.178	97
433.4	117
433.622	105
433.844	103
434.066	109
434.287	105
434.509	81
434.731	95
434.953	115
435.175	104
435.397	101
435.618	119
435.84	107
436.062	107
436.284	105
436.505	112
436.727	96
436.949	107
437.17	119
437.392	102
437.614	97
437.835	96
438.057	87
438.278	101
438.5	95
438.721	116
438.943	119
439.165	112
439.386	101
439.608	96
439.829	126
440.05	123
440.272	120
440.493	117
440.715	110
440.936	106
441.158	112
441.379	119
441.6	109
441.822	111
442.043	103
442.264	114
442.486	123
442.707	112
442.928	121
443.149	111
443.371	114
443.592	123
443.813	103
444.034	95
444.255	103
444.476	119
444.698	109
444.919	115
445.14	247
445.361	173
445.582	131
445.803	122
446.024	117
446.245	110
446.466	130
446.687	123
446.908	109
447.129	121
447.35	123
447.571	117
447.792	119
448.013	118
448.234	117
448.455	124
448.675	99
448.896	105
449.117	108
449.338	115
449.559	121
449.779	111
450	125
450.221	112
450.442	129
450.662	88
450.883	115
451.104	100
451.324	112
451.545	103
451.766	112
451.986	98
452.207	108
452.428	103
452.648	106
452.869	111
453.089	106
453.31	95
453.53	104
453.751	107
453.971	89
454.192	98
454.412	106
454.633	100
454.853	115
455.073	114
455.294	98
455.514	109
455.734	100
455.955	101
456.175	89
456.395	96
456.616	95
456.836	95
457.056	99
457.276	112
457.497	84
457.717	93
457.937	91
458.157	87
458.377	104
458.598	90
458.818	70
459.038	91
459.258	85
459.478	93
459.698	87
459.918	94
460.138	88
460.358	96
460.578	95
460.798	101
461.018	97
461.238	92
461.458	103
461.678	94
461.898	92
462.118	84
462.338	103
462.558	107
462.777	111
462.997	97
463.217	99
463.437	98
463.657	102
463.876	112
464.096	103
464.316	99
464.536	86
464.755	102
464.975	99
465.195	92
465.414	103
465.634	105
465.854	112
466.073	84
466.293	110
466.512	119
466.732	111
466.951	116
467.171	112
467.391	119
467.61	105
467.829	109
468.049	109
468.268	102
468.488	111
468.707	110
468.927	111
469.146	117
469.365	106
469.585	101
469.804	101
470.023	105
470.243	121
470.462	117
470.681	113
470.901	121
471.12	111
471.339	117
471.558	105
471.777	104
471.997	129
472.216	112
472.435	118
472.654	102
472.873	111
473.092	106
473.311	97
473.53	113
473.749	105
473.968	106
474.187	104
474.406	96
474.625	107
474.844	119
475.063	115
475.282	106
475.501	103
475.72	106
475.939	98
476.158	96
476.377	106
476.596	110
476.814	104
477.033	101
477.252	108
477.471	113
477.69	114
477.908	123
478.127	112
478.346	131
478.564	107
478.783	102
479.002	111
479.22	110
479.439	106
479.658	111
479.876	109
480.095	91
480.313	91
480.532	97
480.751	104
480.969	80
481.188	87
481.406	99
481.624	89
481.843	78
482.061	88
482.28	95
482.498	113
482.717	101
482.935	103
483.153	99
483.372	112
483.59	119
483.808	117
484.027	117
484.245	99
484.463	120
484.681	116
484.9	121
485.118	112
485.336	106
485.554	104
485.772	95
485.99	104
486.209	97
486.427	104
486.645	97
486.863	111
487.081	104
487.299	124
487.517	124
487.735	121
487.953	127
488.171	138
488.389	144
488.607	126
488.825	121
489.043	127
489.261	122
489.479	122
489.696	109
489.914	125
490.132	118
490.35	113
490.568	127
490.786	134
491.003	127
491.221	133
491.439	131
491.657	139
491.874	157
492.092	151
492.31	163
492.527	157
492.745	133
492.963	129
493.18	123
493.398	140
493.615	130
493.833	143
494.05	125
494.268	130
494.485	124
494.703	133
494.92	122
495.138	116
495.355	115
495.573	127
495.79	131
496.008	136
496.225	117
496.442	127
496.66	136
496.877	136
497.094	141
497.312	119
497.529	119
497.746	113
497.963	113
498.181	104
498.398	101
498.615	108
498.832	92
499.049	96
499.267	101
499.484	100
499.701	108
499.918	124
500.135	117
500.352	125
500.569	121
500.786	123
501.003	126
501.22	107
501.437	108
501.654	107
501.871	93
502.088	96
502.305	122
502.522	127
502.739	111
502.956	112
503.172	103
503.389	110
503.606	110
503.823	94
504.04	112
504.256	96
504.473	105
504.69	102
504.907	105
505.123	118
505.34	109
505.557	102
505.773	104
505.99	123
506.207	110
506.423	111
506.64	117
506.856	96
507.073	108
507.289	107
507.506	96
507.722	126
507.939	104
508.155	109
508.372	104
508.588	116
508.805	104
509.021	99
509.238	107
509.454	101
509.67	103
509.887	101
510.103	87
510.319	106
510.536	89
510.752	101
510.968	93
511.184	85
511.401	99
511.617	91
511.833	89
512.049	94
512.265	98
512.481	93
512.698	104
512.914	91
513.13	100
513.346	99
513.562	95
513.778	95
513.994	84
514.21	93
514.426	91
514.642	86
514.858	85
515.074	91
515.29	85
515.506	93
515.721	100
515.937	90
516.153	78
516.369	105
516.585	80
516.801	75
517.016	93
517.232	99
517.448	112
517.664	95
517.879	88
518.095	100
518.311	101
518.527	92
518.742	96
518.958	95
519.173	98
519.389	121
519.605	112
519.82	101
520.036	95
520.251	94
520.467	98
520.682	92
520.898	108
521.113	86
521.329	94
521.544	90
521.76	96
521.975	82
522.19	104
522.406	101
522.621	100
522.836	109
523.052	103
523.267	104
523.482	99
523.698	100
523.913	93
524.128	105
524.343	100
524.559	97
524.774	118
524.989	101
525.204	101
525.419	116
525.634	97
525.849	101
526.064	97
526.28	107
526.495	98
526.71	104
526.925	103
527.14	100
527.355	93
527.57	97
527.785	90
527.999	87
528.214	107
528.429	104
528.644	102
528.859	131
529.074	120
529.289	107
529.503	121
529.718	125
529.933	93
530.148	96
530.363	95
530.577	105
530.792	88
531.007	96
531.221	90
531.436	87
531.651	65
531.865	71
532.08	83
532.295	86
532.509	88
532.724	107
532.938	92
533.153	82
533.367	99
533.582	101
533.796	97
534.011	99
534.225	97
534.44	97
534.654	94
534.868	101
535.083	91
535.297	97
535.511	83
535.726	91
535.94	87
536.154	103
536.369	105
536.583	84
536.797	93
537.011	88
537.225	101
537.44	91
537.654	95
537.868	92
538.082	78
538.296	81
538.51	98
538.724	96
538.938	100
539.153	118
539.367	109
539.581	110
539.795	92
540.009	97
540.222	91
540.436	100
540.65	106
540.864	109
541.078	103
541.292	98
541.506	105
541.72	131
541.934	124
542.147	124
542.361	135
542.575	124
542.789	125
543.002	104
543.216	109
543.43	96
543.644	110
543.857	129
544.071	113
544.285	124
544.498	129
544.712	128
544.925	132
545.139	129
545.352	110
545.566	134
545.779	133
545.993	125
546.206	140
546.42	121
546.633	128
546.847	127
547.06	128
547.274	138
547.487	133
547.7	129
547.914	121
548.127	137
548.34	132
548.554	125
548.767	125
548.98	127
549.193	128
549.407	133
549.62	119
549.833	127
550.046	125
550.259	120
550.473	136
550.686	130
550.899	127
551.112	125
551.325	120
551.538	123
551.751	120
551.964	109
552.177	118
552.39	115
552.603	115
552.816	127
553.029	117
553.242	124
553.455	131
553.667	125
553.88	116
554.093	124
554.306	123
554.519	118
554.732	129
554.944	116
555.157	125
555.37	108
555.583	127
555.795	117
556.008	123
556.221	108
556.433	112
556.646	110
556.859	116
557.071	119
557.284	114
557.496	122
557.709	118
557.921	112
558.134	117
558.346	120
558.559	125
558.771	122
558.984	105
559.196	117
559.409	118
559.621	116
559.833	108
560.046	107
560.258	92
560.47	116
560.683	118
560.895	123
561.107	120
561.32	104
561.532	123
561.744	117
561.956	123
562.168	111
562.381	105
562.593	115
562.805	107
563.017	105
563.229	94
563.441	110
563.653	103
563.865	114
564.077	107
564.289	106
564.501	108
564.713	109
564.925	113
565.137	106
565.349	109
565.561	113
565.773	109
565.985	102
566.197	98
566.408	103
566.62	106
566.832	109
567.044	96
567.255	116
567.467	106
567.679	95
567.891	91
568.102	100
568.314	103
568.526	85
568.737	83
568.949	90
569.161	90
569.372	87
569.584	80
569.795	87
570.007	94
570.218	91
570.43	74
570.641	83
570.853	98
571.064	95
571.276	97
571.487	82
571.698	102
571.91	106
572.121	87
572.333	99
572.544	77
572.755	103
572.966	110
573.178	84
573.389	83
573.6	71
573.811	82
574.023	95
574.234	95
574.445	105
574.656	86
574.867	91
575.078	94
575.289	90
575.501	96
575.712	91
575.923	88
576.134	85
576.345	97
576.556	95
576.767	93
576.978	98
577.188	89
577.399	104
577.61	93
577.821	89
578.032	92
578.243	82
578.454	101
578.665	100
578.875	78
579.086	86
579.297	92
579.508	91
579.718	93
579.929	87
580.14	105
580.35	104
580.561	78
580.772	89
580.982	95
581.193	78
581.403	86
581.614	105
581.825	81
582.035	85
582.246	99
582.456	85
582.667	95
582.877	90
583.087	97
583.298	97
583.508	80
583.719	85
583.929	96
584.139	99
584.35	98
584.56	78
584.77	96
584.981	102
585.191	87
585.401	85
585.611	90
585.821	81
586.032	92
586.242	85
586.452	97
586.662	93
586.872	92
587.082	84
587.292	93
587.502	82
587.713	85
587.923	88
588.133	93
588.343	89
588.553	94
588.762	96
588.972	88
589.182	94
589.392	77
589.602	79
589.812	110
590.022	94
590.232	84
590.441	81
590.651	93
590.861	76
591.071	80
591.281	81
591.49	85
591.7	85
591.91	78
592.119	90
592.329	97
592.539	88
592.748	77
592.958	90
593.167	73
593.377	101
593.587	90
593.796	85
594.006	91
594.215	88
594.424	91
594.634	95
594.843	87
595.053	97
595.262	100
595.472	92
595.681	87
595.89	97
596.1	91
596.309	82
596.518	95
596.727	85
596.937	88
597.146	92
597.355	92
597.564	90
597.774	93
597.983	76
598.192	87
598.401	92
598.61	99
598.819	90
599.028	86
599.237	93
599.446	80
599.655	91
599.864	77
600.073	87
600.282	89
600.491	84
600.7	80
600.909	102
601.118	100
601.327	89
601.536	95
601.745	85
601.953	89
602.162	113
602.371	113
602.58	101
602.789	93
602.997	97
603.206	91
603.415	99
603.623	106
603.832	105
604.041	88
604.249	100
604.458	88
604.666	89
604.875	107
605.084	101
605.292	100
605.501	98
605.709	97
605.918	96
606.126	109
606.334	104
606.543	110
606.751	95
606.96	86
607.168	106
607.376	94
607.585	103
607.793	101
608.001	85
608.21	104
608.418	116
608.626	108
608.834	100
609.043	96
609.251	107
609.459	109
609.667	95
609.875	97
610.083	110
610.291	90
610.499	94
610.707	104
610.916	93
611.124	99
611.332	117
611.54	102
611.748	91
611.955	92
612.163	89
612.371	95
612.579	99
612.787	99
612.995	89
613.203	107
613.411	95
613.618	99
613.826	97
614.034	111
614.242	95
614.449	86
614.657	91
614.865	102
615.072	108
615.28	101
615.488	101
615.695	93
615.903	98
616.111	107
616.318	85
616.526	98
616.733	105
616.941	83
617.148	102
617.356	98
617.563	98
617.771	100
617.978	95
618.185	101
618.393	96
618.6	92
618.807	95
619.015	101
619.222	108
619.429	115
619.637	94
619.844	93
620.051	106
620.258	90
620.466	99
620.673	105
620.88	99
621.087	101
621.294	100
621.501	95
621.708	99
621.915	96
622.122	112
622.329	90
622.536	84
622.743	107
622.95	99
623.157	97
623.364	91
623.571	96
623.778	101
623.985	105
624.192	109
624.399	103
624.606	98
624.812	99
625.019	99
625.226	100
625.433	86
625.639	86
625.846	94
626.053	80
626.259	86
626.466	84
626.673	88
626.879	82
627.086	92
627.293	95
627.499	104
627.706	99
627.912	103
628.119	97
628.325	93
628.532	95
628.738	103
628.945	92
629.151	97
629.357	102
629.564	87
629.77	81
629.976	95
630.183	100
630.389	92
630.595	93
630.802	103
631.008	88
631.214	115
631.42	109
631.627	94
631.833	101
632.039	91
632.245	98
632.451	101
632.657	101
632.863	91
633.069	79
633.275	87
633.481	85
633.688	114
633.893	114
634.099	90
634.305	101
634.511	89
634.717	95
634.923	88
635.129	103
635.335	92
635.541	110
635.747	94
635.952	98
636.158	107
636.364	91
636.57	104
636.775	96
636.981	87
637.187	95
637.392	101
637.598	94
637.804	95
638.009	97
638.215	86
638.421	91
638.626	96
638.832	107
639.037	95
639.243	85
639.448	98
639.654	95
639.859	95
640.065	93
640.27	91
640.475	87
640.681	86
640.886	91
641.091	98
641.297	96
641.502	101
641.707	92
641.913	88
642.118	98
642.323	112
642.528	104
642.733	95
642.939	98
643.144	107
643.349	93
643.554	98
643.759	95
643.964	84
644.169	99
644.374	83
644.579	105
644.784	93
644.989	95
645.194	108
645.399	97
645.604	87
645.809	87
646.014	94
646.219	100
646.423	94
646.628	86
646.833	95
647.038	99
647.243	90
647.447	104
647.652	110
647.857	103
648.062	93
648.266	95
648.471	89
648.676	111
648.88	98
649.085	100
649.289	99
649.494	95
649.698	97
649.903	96
650.107	92
650.312	96
650.516	95
650.721	94
650.925	98
651.13	107
651.334	84
651.539	106
651.743	83
651.947	97
652.152	92
652.356	80
652.56	94
652.764	91
652.969	103
653.173	95
653.377	90
653.581	88
653.785	95
653.99	98
654.194	93
654.398	81
654.602	73
654.806	84
655.01	96
655.214	95
655.418	85
655.622	92
655.826	94
656.03	97
656.234	83
656.438	100
656.642	78
656.846	87
657.049	91
657.253	90
657.457	84
657.661	96
657.865	94
658.068	79
658.272	85
658.476	75
658.68	78
658.883	101
659.087	87
659.291	82
659.494	87
659.698	95
659.901	85
660.105	86
660.309	90
660.512	83
660.716	74
660.919	93
661.123	77
661.326	99
661.53	95
661.733	72
661.936	91
662.14	75
662.343	86
662.546	91
662.75	86
662.953	79
663.156	71
663.36	88
663.563	79
663.766	86
663.969	84
664.173	74
664.376	87
664.579	77
664.782	100
664.985	95
665.188	82
665.391	109
665.594	88
665.797	82
666	79
666.203	87
666.406	87
666.609	83
666.812	80
667.015	81
667.218	80
667.421	86
667.624	87
667.827	79
668.03	100
668.232	100
668.435	80
668.638	93
668.841	81
669.043	86
669.246	88
669.449	72
669.651	76
669.854	76
670.057	80
670.259	92
670.462	89
670.665	92
670.867	79
671.07	90
671.272	88
671.475	88
671.677	82
671.88	96
672.082	85
672.284	79
672.487	82
672.689	62
672.892	85
