Data from Zn(NO3)2Standard.Agarose3%.GreenCap.LampEnergy10E.O_HRD10591_15-05-55-942.txt Node
Date: Mon Jul 22 15:05:55 EDT 2019
User: cochatt
Spectrometer: HR+D1059
Trigger mode: 1
Integration Time (sec): 1.000000E-1
Scans to average: 1
Electric dark correction enabled: true
Nonlinearity correction enabled: false
Boxcar width: 0
XAxis mode: Wavelengths
Number of Pixels in Spectrum: 2048
>>>>>Begin Spectral Data<<<<<
223.165	-13
223.4	-13
223.635	-13
223.869	-6
224.104	-8
224.338	-29
224.573	-17
224.808	-25
225.042	0
225.277	-10
225.511	7
225.746	-2
225.98	12
226.215	15
226.449	17
226.683	10
226.918	21
227.152	28
227.387	34
227.621	45
227.856	47
228.09	50
228.324	34
228.559	51
228.793	56
229.027	70
229.262	68
229.496	67
229.73	71
229.964	59
230.199	62
230.433	76
230.667	76
230.901	81
231.136	79
231.37	58
231.604	77
231.838	91
232.072	83
232.306	83
232.541	78
232.775	81
233.009	75
233.243	75
233.477	85
233.711	67
233.945	99
234.179	89
234.413	84
234.647	106
234.881	61
235.115	62
235.349	75
235.583	79
235.817	86
236.051	67
236.285	79
236.519	76
236.753	75
236.987	77
237.221	88
237.455	75
237.689	80
237.922	76
238.156	88
238.39	82
238.624	59
238.858	80
239.091	83
239.325	85
239.559	80
239.793	95
240.027	85
240.26	83
240.494	72
240.728	78
240.961	72
241.195	74
241.429	70
241.662	85
241.896	84
242.13	74
242.363	85
242.597	83
242.83	80
243.064	75
243.298	77
243.531	86
243.765	83
243.998	80
244.232	90
244.465	74
244.699	73
244.932	79
245.166	84
245.399	84
245.633	82
245.866	76
246.099	83
246.333	72
246.566	79
246.8	91
247.033	89
247.266	80
247.5	79
247.733	82
247.966	71
248.2	86
248.433	78
248.666	79
248.899	91
249.133	75
249.366	75
249.599	77
249.832	80
250.066	72
250.299	85
250.532	93
250.765	96
250.998	85
251.231	80
251.465	95
251.698	94
251.931	66
252.164	75
252.397	83
252.63	77
252.863	100
253.096	78
253.329	70
253.562	86
253.795	91
254.028	85
254.261	78
254.494	88
254.727	75
254.96	89
255.193	70
255.426	71
255.659	85
255.892	81
256.124	78
256.357	77
256.59	71
256.823	93
257.056	78
257.289	77
257.521	87
257.754	86
257.987	65
258.22	85
258.452	71
258.685	90
258.918	70
259.151	91
259.383	92
259.616	89
259.849	68
260.081	81
260.314	79
260.547	84
260.779	95
261.012	76
261.244	69
261.477	88
261.71	95
261.942	92
262.175	71
262.407	88
262.64	89
262.872	71
263.105	78
263.337	81
263.57	82
263.802	77
264.035	90
264.267	87
264.499	85
264.732	100
264.964	91
265.197	89
265.429	92
265.661	90
265.894	75
266.126	84
266.358	74
266.591	90
266.823	87
267.055	87
267.287	79
267.52	79
267.752	94
267.984	87
268.216	75
268.448	90
268.681	95
268.913	93
269.145	80
269.377	86
269.609	79
269.841	84
270.073	91
270.306	92
270.538	88
270.77	100
271.002	78
271.234	82
271.466	89
271.698	78
271.93	98
272.162	84
272.394	93
272.626	86
272.858	84
273.09	84
273.322	86
273.553	88
273.785	91
274.017	99
274.249	75
274.481	80
274.713	94
274.945	91
275.176	93
275.408	92
275.64	86
275.872	68
276.104	83
276.335	84
276.567	85
276.799	87
277.031	65
277.262	98
277.494	103
277.726	99
277.957	90
278.189	85
278.421	83
278.652	81
278.884	83
279.115	65
279.347	95
279.579	86
279.81	86
280.042	79
280.273	90
280.505	97
280.736	83
280.968	92
281.199	87
281.431	77
281.662	88
281.894	86
282.125	95
282.356	81
282.588	78
282.819	86
283.051	86
283.282	85
283.513	86
283.745	103
283.976	89
284.207	92
284.439	89
284.67	81
284.901	80
285.132	77
285.364	90
285.595	81
285.826	101
286.057	87
286.288	88
286.52	86
286.751	85
286.982	90
287.213	88
287.444	94
287.675	83
287.906	93
288.138	92
288.369	81
288.6	84
288.831	98
289.062	82
289.293	93
289.524	102
289.755	89
289.986	90
290.217	80
290.448	82
290.679	91
290.91	79
291.141	82
291.371	72
291.602	108
291.833	93
292.064	88
292.295	87
292.526	84
292.757	84
292.987	97
293.218	79
293.449	86
293.68	86
293.91	77
294.141	90
294.372	100
294.603	94
294.833	89
295.064	79
295.295	83
295.525	76
295.756	84
295.987	92
296.217	90
296.448	91
296.679	95
296.909	93
297.14	77
297.37	77
297.601	93
297.831	96
298.062	85
298.292	104
298.523	82
298.753	84
298.984	81
299.214	87
299.445	70
299.675	94
299.905	93
300.136	76
300.366	86
300.597	91
300.827	86
301.057	81
301.288	81
301.518	83
301.748	94
301.979	82
302.209	96
302.439	75
302.669	79
302.9	92
303.13	90
303.36	88
303.59	93
303.82	93
304.051	97
304.281	92
304.511	69
304.741	89
304.971	82
305.201	87
305.431	94
305.661	84
305.891	75
306.121	97
306.352	85
306.582	81
306.812	97
307.042	90
307.272	96
307.502	90
307.731	87
307.961	79
308.191	93
308.421	93
308.651	86
308.881	88
309.111	76
309.341	73
309.571	73
309.8	88
310.03	93
310.26	92
310.49	83
310.72	85
310.949	71
311.179	81
311.409	86
311.639	91
311.868	95
312.098	85
312.328	106
312.557	96
312.787	94
313.017	93
313.246	87
313.476	88
313.706	95
313.935	91
314.165	81
314.394	100
314.624	80
314.853	84
315.083	98
315.312	92
315.542	75
315.771	89
316.001	86
316.23	86
316.46	90
316.689	85
316.919	84
317.148	86
317.377	87
317.607	84
317.836	92
318.065	79
318.295	85
318.524	84
318.753	83
318.983	100
319.212	92
319.441	87
319.67	85
319.9	77
320.129	83
320.358	98
320.587	78
320.816	103
321.046	80
321.275	90
321.504	87
321.733	78
321.962	74
322.191	90
322.42	87
322.649	87
322.878	81
323.108	87
323.337	84
323.566	84
323.795	95
324.024	70
324.253	85
324.482	82
324.71	82
324.939	83
325.168	91
325.397	88
325.626	88
325.855	95
326.084	77
326.313	86
326.542	68
326.77	88
326.999	76
327.228	79
327.457	83
327.686	85
327.914	82
328.143	105
328.372	86
328.6	84
328.829	93
329.058	104
329.287	83
329.515	87
329.744	75
329.972	92
330.201	103
330.43	77
330.658	80
330.887	87
331.115	80
331.344	89
331.572	87
331.801	80
332.03	83
332.258	92
332.486	90
332.715	75
332.943	76
333.172	88
333.4	85
333.629	83
333.857	74
334.085	87
334.314	86
334.542	91
334.771	86
334.999	92
335.227	90
335.455	84
335.684	83
335.912	87
336.14	97
336.369	76
336.597	84
336.825	76
337.053	91
337.281	92
337.51	80
337.738	83
337.966	78
338.194	85
338.422	97
338.65	94
338.878	89
339.106	87
339.334	86
339.562	88
339.79	94
340.018	85
340.246	92
340.474	89
340.702	93
340.93	100
341.158	86
341.386	82
341.614	93
341.842	81
342.07	82
342.298	78
342.526	84
342.754	76
342.981	92
343.209	74
343.437	77
343.665	74
343.893	88
344.12	98
344.348	89
344.576	83
344.804	80
345.031	80
345.259	95
345.487	93
345.714	77
345.942	74
346.17	98
346.397	65
346.625	86
346.853	93
347.08	83
347.308	94
347.535	93
347.763	78
347.99	100
348.218	91
348.445	77
348.673	88
348.9	85
349.128	85
349.355	87
349.583	86
349.81	86
350.037	78
350.265	86
350.492	84
350.72	92
350.947	93
351.174	91
351.402	83
351.629	79
351.856	72
352.083	80
352.311	79
352.538	85
352.765	98
352.992	88
353.22	79
353.447	85
353.674	83
353.901	85
354.128	79
354.355	81
354.583	75
354.81	87
355.037	98
355.264	95
355.491	81
355.718	85
355.945	87
356.172	75
356.399	94
356.626	98
356.853	86
357.08	95
357.307	68
357.534	94
357.761	84
357.988	76
358.215	95
358.441	92
358.668	86
358.895	81
359.122	86
359.349	92
359.576	78
359.802	89
360.029	86
360.256	105
360.483	87
360.709	87
360.936	94
361.163	88
361.39	77
361.616	76
361.843	93
362.07	87
362.296	96
362.523	93
362.749	92
362.976	76
363.203	90
363.429	84
363.656	87
363.882	81
364.109	88
364.335	83
364.562	90
364.788	70
365.015	79
365.241	87
365.468	88
365.694	96
365.92	96
366.147	89
366.373	88
366.599	91
366.826	78
367.052	83
367.278	98
367.505	79
367.731	91
367.957	93
368.184	88
368.41	85
368.636	84
368.862	91
369.089	75
369.315	102
369.541	90
369.767	90
369.993	102
370.219	94
370.445	98
370.672	86
370.898	92
371.124	92
371.35	83
371.576	99
371.802	85
372.028	101
372.254	100
372.48	99
372.706	95
372.932	86
373.158	70
373.384	86
373.61	92
373.835	94
374.061	81
374.287	92
374.513	93
374.739	82
374.965	86
375.191	84
375.416	74
375.642	94
375.868	86
376.094	77
376.319	98
376.545	91
376.771	89
376.997	83
377.222	91
377.448	94
377.674	82
377.899	71
378.125	68
378.35	79
378.576	87
378.802	101
379.027	99
379.253	87
379.478	83
379.704	96
379.929	89
380.155	92
380.38	94
380.606	73
380.831	84
381.057	76
381.282	99
381.507	91
381.733	90
381.958	94
382.184	102
382.409	76
382.634	91
382.86	86
383.085	97
383.31	90
383.535	81
383.761	88
383.986	87
384.211	90
384.436	96
384.662	94
384.887	97
385.112	85
385.337	85
385.562	84
385.787	86
386.013	86
386.238	92
386.463	90
386.688	88
386.913	87
387.138	93
387.363	91
387.588	93
387.813	98
388.038	80
388.263	83
388.488	104
388.713	86
388.938	90
389.163	101
389.387	90
389.612	100
389.837	72
390.062	84
390.287	90
390.512	96
390.736	99
390.961	95
391.186	99
391.411	94
391.636	99
391.86	89
392.085	105
392.31	104
392.534	87
392.759	99
392.984	100
393.208	96
393.433	101
393.658	98
393.882	104
394.107	83
394.331	96
394.556	108
394.78	83
395.005	104
395.229	81
395.454	92
395.678	98
395.903	103
396.127	95
396.352	90
396.576	86
396.801	91
397.025	87
397.249	100
397.474	103
397.698	84
397.922	107
398.147	85
398.371	94
398.595	94
398.82	89
399.044	85
399.268	99
399.492	99
399.717	95
399.941	98
400.165	94
400.389	100
400.613	102
400.837	98
401.062	89
401.286	100
401.51	106
401.734	97
401.958	89
402.182	90
402.406	87
402.63	89
402.854	94
403.078	111
403.302	91
403.526	90
403.75	83
403.974	92
404.198	104
404.422	103
404.645	102
404.869	94
405.093	98
405.317	91
405.541	96
405.765	94
405.988	99
406.212	95
406.436	93
406.66	108
406.883	100
407.107	101
407.331	88
407.555	95
407.778	105
408.002	90
408.226	106
408.449	107
408.673	118
408.896	98
409.12	113
409.344	89
409.567	110
409.791	99
410.014	104
410.238	103
410.461	115
410.685	94
410.908	103
411.132	107
411.355	98
411.578	82
411.802	84
412.025	101
412.249	100
412.472	106
412.695	104
412.919	111
413.142	100
413.365	96
413.589	90
413.812	112
414.035	102
414.258	100
414.482	91
414.705	117
414.928	109
415.151	108
415.374	109
415.597	97
415.821	79
416.044	100
416.267	101
416.49	109
416.713	117
416.936	107
417.159	99
417.382	103
417.605	109
417.828	106
418.051	108
418.274	113
418.497	112
418.72	111
418.943	116
419.166	111
419.389	108
419.611	112
419.834	106
420.057	103
420.28	113
420.503	99
420.726	102
420.948	114
421.171	98
421.394	98
421.617	112
421.839	95
422.062	119
422.285	112
422.507	108
422.73	110
422.953	111
423.175	111
423.398	109
423.621	100
423.843	100
424.066	105
424.288	105
424.511	103
424.733	118
424.956	118
425.178	101
425.401	111
425.623	103
425.846	105
426.068	89
426.291	101
426.513	109
426.735	108
426.958	119
427.18	106
427.402	114
427.625	94
427.847	98
428.069	101
428.292	95
428.514	106
428.736	99
428.958	99
429.181	107
429.403	105
429.625	99
429.847	119
430.069	105
430.292	103
430.514	108
430.736	98
430.958	114
431.18	106
431.402	111
431.624	90
431.846	90
432.068	104
432.29	103
432.512	96
432.734	99
432.956	101
433.178	111
433.4	102
433.622	103
433.844	109
434.066	98
434.287	98
434.509	92
434.731	93
434.953	87
435.175	96
435.397	99
435.618	93
435.84	95
436.062	96
436.284	100
436.505	103
436.727	107
436.949	116
437.17	111
437.392	91
437.614	102
437.835	94
438.057	96
438.278	95
438.5	114
438.721	119
438.943	115
439.165	83
439.386	97
439.608	103
439.829	119
440.05	122
440.272	111
440.493	104
440.715	103
440.936	126
441.158	108
441.379	110
441.6	115
441.822	124
442.043	109
442.264	107
442.486	115
442.707	121
442.928	108
443.149	126
443.371	122
443.592	107
443.813	118
444.034	114
444.255	99
444.476	104
444.698	100
444.919	124
445.14	258
445.361	162
445.582	123
445.803	119
446.024	126
446.245	121
446.466	121
446.687	102
446.908	120
447.129	125
447.35	108
447.571	102
447.792	112
448.013	101
448.234	113
448.455	102
448.675	120
448.896	112
449.117	107
449.338	106
449.559	102
449.779	99
450	91
450.221	118
450.442	119
450.662	101
450.883	102
451.104	105
451.324	101
451.545	93
451.766	92
451.986	105
452.207	93
452.428	107
452.648	110
452.869	100
453.089	97
453.31	93
453.53	96
453.751	90
453.971	93
454.192	92
454.412	103
454.633	98
454.853	108
455.073	98
455.294	94
455.514	106
455.734	108
455.955	100
456.175	89
456.395	99
456.616	94
456.836	95
457.056	93
457.276	90
457.497	98
457.717	81
457.937	90
458.157	90
458.377	104
458.598	96
458.818	90
459.038	83
459.258	83
459.478	81
459.698	95
459.918	82
460.138	93
460.358	87
460.578	89
460.798	89
461.018	112
461.238	110
461.458	105
461.678	96
461.898	106
462.118	94
462.338	99
462.558	111
462.777	109
462.997	105
463.217	107
463.437	92
463.657	101
463.876	88
464.096	97
464.316	90
464.536	99
464.755	102
464.975	100
465.195	95
465.414	105
465.634	103
465.854	96
466.073	103
466.293	89
466.512	107
466.732	97
466.951	117
467.171	108
467.391	88
467.61	115
467.829	110
468.049	104
468.268	119
468.488	99
468.707	102
468.927	111
469.146	123
469.365	114
469.585	107
469.804	122
470.023	101
470.243	106
470.462	122
470.681	105
470.901	119
471.12	108
471.339	113
471.558	116
471.777	116
471.997	116
472.216	101
472.435	116
472.654	94
472.873	108
473.092	110
473.311	102
473.53	118
473.749	102
473.968	119
474.187	101
474.406	107
474.625	101
474.844	106
475.063	105
475.282	95
475.501	97
475.72	102
475.939	107
476.158	96
476.377	101
476.596	92
476.814	91
477.033	99
477.252	100
477.471	117
477.69	107
477.908	101
478.127	116
478.346	114
478.564	96
478.783	107
479.002	120
479.22	114
479.439	114
479.658	110
479.876	94
480.095	96
480.313	106
480.532	111
480.751	101
480.969	89
481.188	86
481.406	89
481.624	85
481.843	94
482.061	94
482.28	97
482.498	92
482.717	102
482.935	109
483.153	106
483.372	122
483.59	127
483.808	111
484.027	101
484.245	109
484.463	115
484.681	114
484.9	117
485.118	116
485.336	112
485.554	105
485.772	96
485.99	98
486.209	98
486.427	95
486.645	108
486.863	114
487.081	106
487.299	96
487.517	115
487.735	125
487.953	130
488.171	140
488.389	128
488.607	132
488.825	104
489.043	114
489.261	111
489.479	110
489.696	100
489.914	126
490.132	90
490.35	122
490.568	140
490.786	130
491.003	127
491.221	146
491.439	131
491.657	135
491.874	136
492.092	164
492.31	162
492.527	154
492.745	141
492.963	144
493.18	151
493.398	130
493.615	128
493.833	129
494.05	126
494.268	138
494.485	125
494.703	131
494.92	124
495.138	128
495.355	135
495.573	130
495.79	124
496.008	142
496.225	115
496.442	136
496.66	118
496.877	94
497.094	125
497.312	125
497.529	127
497.746	116
497.963	112
498.181	104
498.398	96
498.615	106
498.832	105
499.049	110
499.267	115
499.484	100
499.701	108
499.918	99
500.135	92
500.352	101
500.569	109
500.786	118
501.003	114
501.22	124
501.437	111
501.654	110
501.871	122
502.088	109
502.305	98
502.522	125
502.739	104
502.956	102
503.172	90
503.389	97
503.606	103
503.823	120
504.04	100
504.256	102
504.473	94
504.69	112
504.907	92
505.123	101
505.34	94
505.557	98
505.773	104
505.99	107
506.207	104
506.423	101
506.64	108
506.856	114
507.073	110
507.289	109
507.506	103
507.722	97
507.939	111
508.155	106
508.372	101
508.588	104
508.805	107
509.021	105
509.238	93
509.454	102
509.67	103
509.887	93
510.103	89
510.319	89
510.536	100
510.752	92
510.968	79
511.184	83
511.401	87
511.617	107
511.833	93
512.049	92
512.265	96
512.481	81
512.698	84
512.914	99
513.13	92
513.346	105
513.562	89
513.778	90
513.994	108
514.21	88
514.426	84
514.642	80
514.858	101
515.074	87
515.29	77
515.506	78
515.721	97
515.937	89
516.153	88
516.369	102
516.585	73
516.801	71
517.016	89
517.232	74
517.448	93
517.664	88
517.879	96
518.095	88
518.311	93
518.527	84
518.742	92
518.958	83
519.173	95
519.389	94
519.605	98
519.82	94
520.036	97
520.251	80
520.467	96
520.682	87
520.898	93
521.113	88
521.329	98
521.544	78
521.76	88
521.975	100
522.19	94
522.406	97
522.621	111
522.836	100
523.052	89
523.267	105
523.482	107
523.698	109
523.913	108
524.128	92
524.343	106
524.559	110
524.774	99
524.989	94
525.204	107
525.419	101
525.634	92
525.849	120
526.064	101
526.28	91
526.495	84
526.71	92
526.925	77
527.14	82
527.355	80
527.57	87
527.785	83
527.999	89
528.214	104
528.429	100
528.644	106
528.859	111
529.074	122
529.289	118
529.503	125
529.718	100
529.933	104
530.148	101
530.363	69
530.577	85
530.792	105
531.007	83
531.221	89
531.436	85
531.651	82
531.865	74
532.08	90
532.295	79
532.509	76
532.724	78
532.938	76
533.153	90
533.367	105
533.582	112
533.796	102
534.011	104
534.225	87
534.44	74
534.654	103
534.868	89
535.083	99
535.297	96
535.511	107
535.726	94
535.94	86
536.154	86
536.369	85
536.583	99
536.797	93
537.011	99
537.225	90
537.44	98
537.654	92
537.868	114
538.082	91
538.296	106
538.51	97
538.724	97
538.938	101
539.153	111
539.367	110
539.581	99
539.795	83
540.009	96
540.222	104
540.436	100
540.65	95
540.864	102
541.078	118
541.292	119
541.506	126
541.72	133
541.934	142
542.147	139
542.361	130
542.575	106
542.789	131
543.002	120
543.216	107
543.43	114
543.644	103
543.857	122
544.071	108
544.285	112
544.498	122
544.712	106
544.925	130
545.139	116
545.352	131
545.566	116
545.779	122
545.993	122
546.206	110
546.42	119
546.633	107
546.847	122
547.06	127
547.274	122
547.487	131
547.7	136
547.914	130
548.127	120
548.34	117
548.554	116
548.767	125
548.98	120
549.193	129
549.407	118
549.62	115
549.833	117
550.046	119
550.259	118
550.473	108
550.686	122
550.899	125
551.112	115
551.325	108
551.538	121
551.751	123
551.964	104
552.177	121
552.39	115
552.603	115
552.816	117
553.029	116
553.242	119
553.455	117
553.667	123
553.88	112
554.093	136
554.306	130
554.519	126
554.732	119
554.944	124
555.157	107
555.37	117
555.583	98
555.795	99
556.008	116
556.221	102
556.433	106
556.646	111
556.859	121
557.071	114
557.284	122
557.496	108
557.709	124
557.921	105
558.134	121
558.346	123
558.559	111
558.771	110
558.984	100
559.196	115
559.409	114
559.621	103
559.833	124
560.046	109
560.258	118
560.47	110
560.683	114
560.895	120
561.107	114
561.32	104
561.532	109
561.744	123
561.956	114
562.168	111
562.381	107
562.593	102
562.805	110
563.017	108
563.229	117
563.441	104
563.653	96
563.865	104
564.077	113
564.289	111
564.501	91
564.713	109
564.925	102
565.137	100
565.349	107
565.561	81
565.773	101
565.985	103
566.197	102
566.408	104
566.62	95
566.832	107
567.044	124
567.255	115
567.467	104
567.679	92
567.891	101
568.102	100
568.314	102
568.526	110
568.737	88
568.949	85
569.161	99
569.372	88
569.584	90
569.795	104
570.007	89
570.218	100
570.43	86
570.641	102
570.853	94
571.064	99
571.276	106
571.487	92
571.698	103
571.91	98
572.121	84
572.333	91
572.544	88
572.755	87
572.966	93
573.178	92
573.389	84
573.6	67
573.811	77
574.023	87
574.234	92
574.445	87
574.656	89
574.867	95
575.078	102
575.289	92
575.501	92
575.712	94
575.923	98
576.134	92
576.345	81
576.556	92
576.767	93
576.978	95
577.188	98
577.399	87
577.61	96
577.821	95
578.032	90
578.243	89
578.454	85
578.665	91
578.875	73
579.086	90
579.297	87
579.508	103
579.718	74
579.929	84
580.14	72
580.35	88
580.561	94
580.772	94
580.982	88
581.193	75
581.403	94
581.614	82
581.825	89
582.035	82
582.246	94
582.456	90
582.667	99
582.877	78
583.087	92
583.298	100
583.508	94
583.719	90
583.929	82
584.139	92
584.35	85
584.56	84
584.77	77
584.981	78
585.191	79
585.401	83
585.611	83
585.821	99
586.032	94
586.242	81
586.452	87
586.662	80
586.872	65
587.082	90
587.292	85
587.502	87
587.713	88
587.923	84
588.133	84
588.343	98
588.553	100
588.762	95
588.972	93
589.182	99
589.392	88
589.602	97
589.812	87
590.022	94
590.232	78
590.441	82
590.651	94
590.861	95
591.071	88
591.281	76
591.49	86
591.7	90
591.91	88
592.119	92
592.329	78
592.539	78
592.748	91
592.958	83
593.167	79
593.377	76
593.587	97
593.796	80
594.006	92
594.215	83
594.424	94
594.634	90
594.843	77
595.053	85
595.262	93
595.472	93
595.681	71
595.89	96
596.1	71
596.309	79
596.518	88
596.727	99
596.937	95
597.146	93
597.355	86
597.564	98
597.774	100
597.983	93
598.192	86
598.401	85
598.61	103
598.819	107
599.028	91
599.237	86
599.446	102
599.655	115
599.864	81
600.073	84
600.282	93
600.491	82
600.7	88
600.909	107
601.118	83
601.327	96
601.536	85
601.745	97
601.953	90
602.162	99
602.371	84
602.58	94
602.789	91
602.997	109
603.206	102
603.415	86
603.623	92
603.832	87
604.041	91
604.249	85
604.458	92
604.666	89
604.875	85
605.084	86
605.292	87
605.501	92
605.709	106
605.918	109
606.126	114
606.334	95
606.543	100
606.751	96
606.96	120
607.168	105
607.376	108
607.585	110
607.793	93
608.001	97
608.21	94
608.418	88
608.626	102
608.834	90
609.043	116
609.251	93
609.459	107
609.667	99
609.875	103
610.083	105
610.291	105
610.499	106
610.707	95
610.916	91
611.124	105
611.332	108
611.54	106
611.748	94
611.955	87
612.163	96
612.371	85
612.579	101
612.787	91
612.995	107
613.203	110
613.411	104
613.618	97
613.826	97
614.034	98
614.242	116
614.449	102
614.657	98
614.865	93
615.072	99
615.28	103
615.488	105
615.695	114
615.903	113
616.111	95
616.318	107
616.526	94
616.733	102
616.941	98
617.148	95
617.356	94
617.563	107
617.771	84
617.978	96
618.185	80
618.393	84
618.6	102
618.807	103
619.015	105
619.222	88
619.429	92
619.637	89
619.844	102
620.051	90
620.258	80
620.466	106
620.673	90
620.88	96
621.087	77
621.294	104
621.501	93
621.708	98
621.915	99
622.122	100
622.329	105
622.536	100
622.743	93
622.95	103
623.157	96
623.364	115
623.571	106
623.778	100
623.985	99
624.192	94
624.399	102
624.606	103
624.812	91
625.019	93
625.226	109
625.433	109
625.639	85
625.846	98
626.053	88
626.259	86
626.466	90
626.673	92
626.879	96
627.086	85
627.293	97
627.499	98
627.706	91
627.912	98
628.119	85
628.325	110
628.532	91
628.738	102
628.945	86
629.151	97
629.357	78
629.564	101
629.77	94
629.976	80
630.183	75
630.389	99
630.595	102
630.802	95
631.008	91
631.214	86
631.42	90
631.627	97
631.833	87
632.039	96
632.245	91
632.451	104
632.657	94
632.863	92
633.069	101
633.275	104
633.481	88
633.688	98
633.893	87
634.099	84
634.305	107
634.511	97
634.717	102
634.923	91
635.129	88
635.335	90
635.541	96
635.747	95
635.952	89
636.158	102
636.364	78
636.57	94
636.775	95
636.981	107
637.187	91
637.392	91
637.598	99
637.804	96
638.009	92
638.215	88
638.421	96
638.626	95
638.832	85
639.037	103
639.243	95
639.448	84
639.654	95
639.859	83
640.065	94
640.27	94
640.475	91
640.681	102
640.886	94
641.091	92
641.297	88
641.502	82
641.707	90
641.913	91
642.118	90
642.323	78
642.528	103
642.733	97
642.939	91
643.144	92
643.349	89
643.554	96
643.759	93
643.964	94
644.169	88
644.374	94
644.579	93
644.784	99
644.989	93
645.194	91
645.399	91
645.604	85
645.809	95
646.014	88
646.219	91
646.423	91
646.628	102
646.833	91
647.038	86
647.243	90
647.447	79
647.652	99
647.857	97
648.062	94
648.266	101
648.471	100
648.676	98
648.88	87
649.085	78
649.289	78
649.494	84
649.698	79
649.903	82
650.107	84
650.312	81
650.516	90
650.721	82
650.925	96
651.13	87
651.334	79
651.539	85
651.743	92
651.947	86
652.152	86
652.356	79
652.56	77
652.764	99
652.969	94
653.173	99
653.377	93
653.581	94
653.785	107
653.99	90
654.194	94
654.398	93
654.602	86
654.806	83
655.01	88
655.214	84
655.418	92
655.622	84
655.826	78
656.03	101
656.234	84
656.438	97
656.642	99
656.846	84
657.049	89
657.253	88
657.457	97
657.661	99
657.865	99
658.068	81
658.272	100
658.476	91
658.68	66
658.883	87
659.087	87
659.291	97
659.494	93
659.698	94
659.901	86
660.105	84
660.309	88
660.512	87
660.716	80
660.919	86
661.123	92
661.326	89
661.53	91
661.733	91
661.936	101
662.14	76
662.343	68
662.546	94
662.75	78
662.953	83
663.156	84
663.36	84
663.563	65
663.766	95
663.969	86
664.173	80
664.376	98
664.579	86
664.782	77
664.985	95
665.188	92
665.391	88
665.594	80
665.797	84
666	88
666.203	80
666.406	75
666.609	80
666.812	96
667.015	87
667.218	95
667.421	85
667.624	83
667.827	85
668.03	93
668.232	84
668.435	92
668.638	82
668.841	83
669.043	88
669.246	86
669.449	80
669.651	79
669.854	87
670.057	83
670.259	83
670.462	82
670.665	71
670.867	85
671.07	77
671.272	87
671.475	84
671.677	91
671.88	79
672.082	74
672.284	84
672.487	73
672.689	79
672.892	77
