Data from Zn(NO3)2Standard.Agarose3%.GreenCap.LampEnergy10E.O_HRD10591_15-08-15-948.txt Node
Date: Mon Jul 22 15:08:15 EDT 2019
User: cochatt
Spectrometer: HR+D1059
Trigger mode: 1
Integration Time (sec): 1.000000E-1
Scans to average: 1
Electric dark correction enabled: true
Nonlinearity correction enabled: false
Boxcar width: 0
XAxis mode: Wavelengths
Number of Pixels in Spectrum: 2048
>>>>>Begin Spectral Data<<<<<
223.165	-8
223.4	-8
223.635	-8
223.869	-21
224.104	-21
224.338	-9
224.573	-23
224.808	-22
225.042	-3
225.277	-5
225.511	8
225.746	-6
225.98	19
226.215	31
226.449	13
226.683	11
226.918	18
227.152	18
227.387	38
227.621	34
227.856	44
228.09	47
228.324	61
228.559	58
228.793	47
229.027	71
229.262	73
229.496	70
229.73	67
229.964	80
230.199	64
230.433	70
230.667	79
230.901	63
231.136	61
231.37	84
231.604	74
231.838	81
232.072	71
232.306	69
232.541	79
232.775	83
233.009	86
233.243	77
233.477	82
233.711	76
233.945	90
234.179	79
234.413	86
234.647	82
234.881	74
235.115	81
235.349	81
235.583	73
235.817	71
236.051	75
236.285	75
236.519	71
236.753	70
236.987	81
237.221	73
237.455	73
237.689	83
237.922	82
238.156	75
238.39	80
238.624	72
238.858	70
239.091	52
239.325	88
239.559	67
239.793	76
240.027	75
240.26	65
240.494	77
240.728	78
240.961	73
241.195	74
241.429	71
241.662	71
241.896	85
242.13	69
242.363	76
242.597	75
242.83	82
243.064	68
243.298	81
243.531	75
243.765	92
243.998	88
244.232	90
244.465	84
244.699	79
244.932	76
245.166	89
245.399	79
245.633	86
245.866	69
246.099	63
246.333	74
246.566	83
246.8	72
247.033	80
247.266	80
247.5	80
247.733	87
247.966	65
248.2	71
248.433	84
248.666	68
248.899	84
249.133	75
249.366	81
249.599	72
249.832	70
250.066	93
250.299	79
250.532	72
250.765	78
250.998	75
251.231	70
251.465	76
251.698	73
251.931	74
252.164	74
252.397	76
252.63	92
252.863	73
253.096	81
253.329	77
253.562	56
253.795	67
254.028	78
254.261	77
254.494	79
254.727	77
254.96	79
255.193	79
255.426	76
255.659	92
255.892	85
256.124	72
256.357	92
256.59	90
256.823	76
257.056	72
257.289	80
257.521	94
257.754	76
257.987	80
258.22	76
258.452	77
258.685	83
258.918	77
259.151	77
259.383	79
259.616	66
259.849	85
260.081	100
260.314	75
260.547	67
260.779	69
261.012	78
261.244	91
261.477	92
261.71	85
261.942	80
262.175	77
262.407	85
262.64	71
262.872	80
263.105	74
263.337	69
263.57	92
263.802	89
264.035	71
264.267	81
264.499	82
264.732	91
264.964	69
265.197	85
265.429	83
265.661	80
265.894	71
266.126	86
266.358	83
266.591	79
266.823	69
267.055	77
267.287	83
267.52	72
267.752	88
267.984	84
268.216	91
268.448	77
268.681	91
268.913	79
269.145	77
269.377	86
269.609	79
269.841	76
270.073	87
270.306	83
270.538	94
270.77	92
271.002	77
271.234	93
271.466	76
271.698	84
271.93	87
272.162	77
272.394	85
272.626	81
272.858	75
273.09	81
273.322	77
273.553	90
273.785	85
274.017	83
274.249	78
274.481	80
274.713	76
274.945	76
275.176	86
275.408	101
275.64	75
275.872	86
276.104	85
276.335	79
276.567	74
276.799	87
277.031	88
277.262	80
277.494	82
277.726	66
277.957	71
278.189	80
278.421	82
278.652	83
278.884	87
279.115	83
279.347	85
279.579	86
279.81	81
280.042	89
280.273	89
280.505	79
280.736	71
280.968	84
281.199	87
281.431	74
281.662	80
281.894	86
282.125	73
282.356	91
282.588	89
282.819	77
283.051	85
283.282	99
283.513	74
283.745	82
283.976	80
284.207	78
284.439	96
284.67	103
284.901	88
285.132	80
285.364	80
285.595	80
285.826	93
286.057	84
286.288	96
286.52	95
286.751	82
286.982	83
287.213	84
287.444	79
287.675	70
287.906	82
288.138	81
288.369	77
288.6	69
288.831	78
289.062	82
289.293	77
289.524	104
289.755	99
289.986	89
290.217	74
290.448	91
290.679	76
290.91	81
291.141	70
291.371	80
291.602	84
291.833	82
292.064	80
292.295	97
292.526	83
292.757	109
292.987	98
293.218	69
293.449	87
293.68	81
293.91	81
294.141	82
294.372	84
294.603	83
294.833	81
295.064	87
295.295	83
295.525	69
295.756	82
295.987	84
296.217	78
296.448	83
296.679	80
296.909	85
297.14	84
297.37	84
297.601	68
297.831	79
298.062	97
298.292	104
298.523	84
298.753	77
298.984	87
299.214	74
299.445	83
299.675	81
299.905	89
300.136	81
300.366	74
300.597	83
300.827	84
301.057	81
301.288	76
301.518	68
301.748	84
301.979	83
302.209	98
302.439	80
302.669	84
302.9	73
303.13	81
303.36	70
303.59	75
303.82	89
304.051	101
304.281	102
304.511	103
304.741	93
304.971	75
305.201	89
305.431	81
305.661	80
305.891	83
306.121	83
306.352	97
306.582	81
306.812	95
307.042	72
307.272	76
307.502	87
307.731	80
307.961	97
308.191	87
308.421	82
308.651	96
308.881	84
309.111	82
309.341	89
309.571	87
309.8	84
310.03	81
310.26	85
310.49	85
310.72	89
310.949	103
311.179	89
311.409	82
311.639	82
311.868	80
312.098	84
312.328	84
312.557	77
312.787	74
313.017	83
313.246	92
313.476	86
313.706	77
313.935	73
314.165	85
314.394	80
314.624	80
314.853	88
315.083	80
315.312	86
315.542	69
315.771	97
316.001	81
316.23	92
316.46	82
316.689	89
316.919	88
317.148	94
317.377	81
317.607	83
317.836	84
318.065	80
318.295	76
318.524	86
318.753	76
318.983	85
319.212	80
319.441	87
319.67	73
319.9	92
320.129	74
320.358	80
320.587	89
320.816	88
321.046	85
321.275	97
321.504	92
321.733	79
321.962	85
322.191	94
322.42	81
322.649	78
322.878	90
323.108	81
323.337	80
323.566	82
323.795	76
324.024	80
324.253	85
324.482	88
324.71	83
324.939	82
325.168	71
325.397	83
325.626	79
325.855	92
326.084	90
326.313	79
326.542	78
326.77	74
326.999	89
327.228	76
327.457	80
327.686	99
327.914	93
328.143	91
328.372	86
328.6	84
328.829	101
329.058	81
329.287	87
329.515	78
329.744	87
329.972	78
330.201	92
330.43	97
330.658	91
330.887	75
331.115	82
331.344	85
331.572	97
331.801	84
332.03	69
332.258	84
332.486	85
332.715	94
332.943	91
333.172	86
333.4	82
333.629	83
333.857	88
334.085	71
334.314	82
334.542	77
334.771	71
334.999	81
335.227	74
335.455	91
335.684	96
335.912	87
336.14	79
336.369	83
336.597	79
336.825	89
337.053	90
337.281	100
337.51	97
337.738	85
337.966	77
338.194	73
338.422	81
338.65	77
338.878	82
339.106	97
339.334	99
339.562	78
339.79	87
340.018	78
340.246	77
340.474	75
340.702	88
340.93	103
341.158	91
341.386	97
341.614	72
341.842	70
342.07	94
342.298	91
342.526	88
342.754	82
342.981	75
343.209	84
343.437	82
343.665	88
343.893	76
344.12	78
344.348	61
344.576	74
344.804	95
345.031	87
345.259	85
345.487	84
345.714	76
345.942	64
346.17	83
346.397	74
346.625	78
346.853	86
347.08	91
347.308	82
347.535	94
347.763	81
347.99	86
348.218	87
348.445	83
348.673	74
348.9	75
349.128	93
349.355	73
349.583	85
349.81	95
350.037	79
350.265	95
350.492	95
350.72	83
350.947	76
351.174	92
351.402	80
351.629	94
351.856	81
352.083	79
352.311	88
352.538	92
352.765	98
352.992	74
353.22	91
353.447	89
353.674	91
353.901	89
354.128	76
354.355	74
354.583	78
354.81	92
355.037	78
355.264	89
355.491	88
355.718	78
355.945	80
356.172	76
356.399	83
356.626	83
356.853	79
357.08	81
357.307	93
357.534	87
357.761	81
357.988	80
358.215	77
358.441	68
358.668	86
358.895	80
359.122	91
359.349	71
359.576	88
359.802	60
360.029	72
360.256	93
360.483	82
360.709	80
360.936	78
361.163	81
361.39	77
361.616	89
361.843	69
362.07	89
362.296	85
362.523	77
362.749	74
362.976	83
363.203	88
363.429	77
363.656	68
363.882	71
364.109	80
364.335	86
364.562	98
364.788	82
365.015	77
365.241	94
365.468	74
365.694	85
365.92	77
366.147	88
366.373	79
366.599	75
366.826	87
367.052	77
367.278	71
367.505	99
367.731	90
367.957	90
368.184	77
368.41	88
368.636	88
368.862	80
369.089	80
369.315	84
369.541	99
369.767	97
369.993	85
370.219	96
370.445	70
370.672	79
370.898	94
371.124	70
371.35	92
371.576	82
371.802	83
372.028	85
372.254	95
372.48	92
372.706	99
372.932	100
373.158	96
373.384	83
373.61	77
373.835	82
374.061	79
374.287	83
374.513	81
374.739	83
374.965	89
375.191	87
375.416	85
375.642	105
375.868	88
376.094	87
376.319	89
376.545	77
376.771	76
376.997	91
377.222	77
377.448	76
377.674	88
377.899	93
378.125	100
378.35	97
378.576	83
378.802	89
379.027	95
379.253	83
379.478	89
379.704	92
379.929	87
380.155	81
380.38	95
380.606	83
380.831	95
381.057	90
381.282	87
381.507	81
381.733	85
381.958	97
382.184	83
382.409	89
382.634	77
382.86	93
383.085	99
383.31	116
383.535	91
383.761	90
383.986	85
384.211	78
384.436	100
384.662	72
384.887	93
385.112	88
385.337	77
385.562	83
385.787	94
386.013	107
386.238	100
386.463	82
386.688	95
386.913	84
387.138	81
387.363	83
387.588	108
387.813	100
388.038	93
388.263	87
388.488	87
388.713	82
388.938	82
389.163	77
389.387	93
389.612	89
389.837	88
390.062	91
390.287	84
390.512	103
390.736	92
390.961	99
391.186	70
391.411	93
391.636	106
391.86	87
392.085	85
392.31	84
392.534	96
392.759	91
392.984	101
393.208	87
393.433	111
393.658	104
393.882	90
394.107	103
394.331	98
394.556	91
394.78	101
395.005	94
395.229	90
395.454	92
395.678	97
395.903	91
396.127	98
396.352	93
396.576	95
396.801	91
397.025	81
397.249	98
397.474	84
397.698	93
397.922	96
398.147	101
398.371	90
398.595	87
398.82	86
399.044	98
399.268	94
399.492	96
399.717	83
399.941	97
400.165	90
400.389	91
400.613	89
400.837	93
401.062	97
401.286	93
401.51	99
401.734	99
401.958	106
402.182	101
402.406	83
402.63	96
402.854	93
403.078	98
403.302	90
403.526	89
403.75	100
403.974	83
404.198	92
404.422	96
404.645	94
404.869	87
405.093	98
405.317	102
405.541	97
405.765	82
405.988	88
406.212	104
406.436	101
406.66	104
406.883	104
407.107	97
407.331	96
407.555	105
407.778	109
408.002	95
408.226	95
408.449	105
408.673	97
408.896	113
409.12	100
409.344	105
409.567	107
409.791	101
410.014	99
410.238	87
410.461	76
410.685	97
410.908	100
411.132	104
411.355	97
411.578	116
411.802	107
412.025	96
412.249	99
412.472	91
412.695	84
412.919	102
413.142	108
413.365	109
413.589	87
413.812	95
414.035	107
414.258	111
414.482	96
414.705	101
414.928	108
415.151	104
415.374	99
415.597	95
415.821	103
416.044	99
416.267	100
416.49	103
416.713	103
416.936	105
417.159	113
417.382	86
417.605	106
417.828	96
418.051	107
418.274	103
418.497	92
418.72	92
418.943	99
419.166	101
419.389	93
419.611	113
419.834	99
420.057	105
420.28	107
420.503	107
420.726	95
420.948	93
421.171	93
421.394	108
421.617	96
421.839	111
422.062	97
422.285	105
422.507	90
422.73	97
422.953	89
423.175	102
423.398	102
423.621	105
423.843	95
424.066	93
424.288	102
424.511	112
424.733	105
424.956	111
425.178	95
425.401	109
425.623	99
425.846	105
426.068	100
426.291	98
426.513	100
426.735	106
426.958	111
427.18	103
427.402	105
427.625	119
427.847	97
428.069	100
428.292	108
428.514	119
428.736	93
428.958	100
429.181	106
429.403	100
429.625	109
429.847	99
430.069	104
430.292	105
430.514	111
430.736	101
430.958	103
431.18	100
431.402	91
431.624	91
431.846	104
432.068	90
432.29	93
432.512	106
432.734	99
432.956	103
433.178	104
433.4	113
433.622	108
433.844	101
434.066	84
434.287	98
434.509	94
434.731	84
434.953	90
435.175	104
435.397	99
435.618	100
435.84	85
436.062	82
436.284	96
436.505	100
436.727	86
436.949	115
437.17	103
437.392	103
437.614	113
437.835	85
438.057	104
438.278	106
438.5	98
438.721	115
438.943	108
439.165	92
439.386	101
439.608	105
439.829	109
440.05	121
440.272	112
440.493	110
440.715	97
440.936	103
441.158	108
441.379	112
441.6	101
441.822	105
442.043	90
442.264	90
442.486	105
442.707	107
442.928	125
443.149	115
443.371	112
443.592	111
443.813	114
444.034	98
444.255	113
444.476	100
444.698	108
444.919	111
445.14	186
445.361	150
445.582	124
445.803	105
446.024	103
446.245	116
446.466	111
446.687	116
446.908	115
447.129	127
447.35	133
447.571	115
447.792	118
448.013	107
448.234	96
448.455	107
448.675	100
448.896	100
449.117	99
449.338	108
449.559	85
449.779	108
450	93
450.221	111
450.442	111
450.662	108
450.883	107
451.104	91
451.324	95
451.545	77
451.766	118
451.986	95
452.207	117
452.428	115
452.648	97
452.869	97
453.089	96
453.31	84
453.53	94
453.751	97
453.971	98
454.192	95
454.412	93
454.633	85
454.853	97
455.073	104
455.294	94
455.514	87
455.734	79
455.955	93
456.175	95
456.395	98
456.616	99
456.836	93
457.056	108
457.276	94
457.497	83
457.717	91
457.937	95
458.157	103
458.377	66
458.598	100
458.818	79
459.038	83
459.258	79
459.478	68
459.698	87
459.918	96
460.138	97
460.358	103
460.578	97
460.798	96
461.018	95
461.238	79
461.458	95
461.678	101
461.898	101
462.118	102
462.338	99
462.558	96
462.777	97
462.997	98
463.217	95
463.437	100
463.657	105
463.876	103
464.096	99
464.316	101
464.536	101
464.755	104
464.975	83
465.195	99
465.414	98
465.634	92
465.854	105
466.073	105
466.293	88
466.512	97
466.732	108
466.951	112
467.171	127
467.391	93
467.61	98
467.829	114
468.049	100
468.268	107
468.488	99
468.707	99
468.927	92
469.146	103
469.365	117
469.585	109
469.804	103
470.023	104
470.243	109
470.462	109
470.681	107
470.901	104
471.12	95
471.339	116
471.558	93
471.777	104
471.997	92
472.216	111
472.435	108
472.654	96
472.873	85
473.092	70
473.311	104
473.53	84
473.749	113
473.968	101
474.187	92
474.406	107
474.625	117
474.844	83
475.063	106
475.282	101
475.501	98
475.72	98
475.939	112
476.158	94
476.377	102
476.596	91
476.814	99
477.033	92
477.252	100
477.471	105
477.69	103
477.908	96
478.127	107
478.346	99
478.564	103
478.783	107
479.002	109
479.22	92
479.439	108
479.658	110
479.876	89
480.095	92
480.313	86
480.532	109
480.751	92
480.969	85
481.188	93
481.406	82
481.624	88
481.843	87
482.061	92
482.28	96
482.498	99
482.717	96
482.935	101
483.153	112
483.372	120
483.59	115
483.808	115
484.027	111
484.245	105
484.463	118
484.681	123
484.9	122
485.118	104
485.336	89
485.554	94
485.772	104
485.99	76
486.209	107
486.427	97
486.645	105
486.863	101
487.081	113
487.299	107
487.517	106
487.735	128
487.953	123
488.171	120
488.389	122
488.607	122
488.825	112
489.043	112
489.261	93
489.479	99
489.696	114
489.914	111
490.132	111
490.35	120
490.568	124
490.786	124
491.003	119
491.221	136
491.439	133
491.657	146
491.874	149
492.092	150
492.31	153
492.527	132
492.745	141
492.963	131
493.18	136
493.398	139
493.615	123
493.833	127
494.05	127
494.268	131
494.485	132
494.703	124
494.92	141
495.138	137
495.355	133
495.573	115
495.79	127
496.008	126
496.225	111
496.442	119
496.66	118
496.877	116
497.094	120
497.312	136
497.529	129
497.746	122
497.963	105
498.181	102
498.398	109
498.615	103
498.832	94
499.049	113
499.267	89
499.484	111
499.701	115
499.918	107
500.135	104
500.352	129
500.569	109
500.786	119
501.003	119
501.22	119
501.437	114
501.654	120
501.871	101
502.088	104
502.305	98
502.522	99
502.739	99
502.956	118
503.172	101
503.389	100
503.606	104
503.823	106
504.04	107
504.256	102
504.473	103
504.69	111
504.907	110
505.123	110
505.34	107
505.557	101
505.773	97
505.99	92
506.207	105
506.423	83
506.64	113
506.856	103
507.073	89
507.289	86
507.506	120
507.722	100
507.939	104
508.155	103
508.372	85
508.588	92
508.805	90
509.021	98
509.238	105
509.454	91
509.67	83
509.887	77
510.103	81
510.319	73
510.536	92
510.752	90
510.968	87
511.184	90
511.401	89
511.617	92
511.833	95
512.049	87
512.265	100
512.481	86
512.698	96
512.914	87
513.13	86
513.346	80
513.562	85
513.778	96
513.994	77
514.21	76
514.426	88
514.642	93
514.858	90
515.074	69
515.29	81
515.506	93
515.721	89
515.937	81
516.153	77
516.369	97
516.585	73
516.801	82
517.016	84
517.232	95
517.448	75
517.664	90
517.879	92
518.095	95
518.311	80
518.527	92
518.742	100
518.958	88
519.173	100
519.389	93
519.605	98
519.82	89
520.036	103
520.251	103
520.467	83
520.682	106
520.898	105
521.113	78
521.329	80
521.544	103
521.76	86
521.975	108
522.19	89
522.406	93
522.621	82
522.836	101
523.052	103
523.267	104
523.482	91
523.698	91
523.913	91
524.128	104
524.343	104
524.559	97
524.774	87
524.989	108
525.204	93
525.419	98
525.634	98
525.849	93
526.064	99
526.28	104
526.495	93
526.71	83
526.925	86
527.14	72
527.355	82
527.57	82
527.785	86
527.999	90
528.214	92
528.429	109
528.644	91
528.859	99
529.074	97
529.289	121
529.503	118
529.718	119
529.933	100
530.148	95
530.363	85
530.577	70
530.792	97
531.007	85
531.221	88
531.436	91
531.651	80
531.865	79
532.08	92
532.295	87
532.509	70
532.724	90
532.938	92
533.153	86
533.367	97
533.582	113
533.796	112
534.011	112
534.225	95
534.44	85
534.654	95
534.868	98
535.083	97
535.297	83
535.511	103
535.726	91
535.94	92
536.154	91
536.369	86
536.583	74
536.797	85
537.011	80
537.225	75
537.44	100
537.654	85
537.868	89
538.082	82
538.296	93
538.51	85
538.724	105
538.938	107
539.153	96
539.367	101
539.581	96
539.795	102
540.009	81
540.222	100
540.436	91
540.65	102
540.864	95
541.078	109
541.292	123
541.506	99
541.72	135
541.934	131
542.147	141
542.361	124
542.575	123
542.789	104
543.002	109
543.216	92
543.43	109
543.644	102
543.857	118
544.071	119
544.285	118
544.498	121
544.712	115
544.925	121
545.139	106
545.352	105
545.566	134
545.779	124
545.993	126
546.206	123
546.42	127
546.633	133
546.847	122
547.06	107
547.274	117
547.487	124
547.7	139
547.914	127
548.127	107
548.34	118
548.554	109
548.767	137
548.98	123
549.193	128
549.407	119
549.62	101
549.833	99
550.046	127
550.259	116
550.473	123
550.686	122
550.899	120
551.112	113
551.325	100
551.538	104
551.751	105
551.964	101
552.177	115
552.39	95
552.603	133
552.816	126
553.029	122
553.242	118
553.455	118
553.667	101
553.88	112
554.093	117
554.306	114
554.519	122
554.732	113
554.944	109
555.157	106
555.37	111
555.583	114
555.795	117
556.008	102
556.221	108
556.433	127
556.646	98
556.859	117
557.071	106
557.284	109
557.496	99
557.709	104
557.921	109
558.134	102
558.346	116
558.559	107
558.771	104
558.984	104
559.196	102
559.409	102
559.621	83
559.833	90
560.046	91
560.258	101
560.47	89
560.683	105
560.895	112
561.107	103
561.32	100
561.532	104
561.744	115
561.956	115
562.168	102
562.381	108
562.593	116
562.805	109
563.017	105
563.229	98
563.441	103
563.653	100
563.865	97
564.077	113
564.289	101
564.501	95
564.713	92
564.925	101
565.137	109
565.349	107
565.561	107
565.773	99
565.985	108
566.197	101
566.408	105
566.62	109
566.832	96
567.044	89
567.255	103
567.467	104
567.679	94
567.891	96
568.102	91
568.314	91
568.526	82
568.737	92
568.949	84
569.161	77
569.372	79
569.584	58
569.795	83
570.007	100
570.218	73
570.43	86
570.641	99
570.853	97
571.064	86
571.276	104
571.487	76
571.698	89
571.91	91
572.121	96
572.333	84
572.544	78
572.755	100
572.966	92
573.178	98
573.389	101
573.6	84
573.811	97
574.023	66
574.234	87
574.445	92
574.656	80
574.867	84
575.078	97
575.289	81
575.501	83
575.712	88
575.923	95
576.134	92
576.345	97
576.556	95
576.767	94
576.978	89
577.188	89
577.399	77
577.61	94
577.821	95
578.032	83
578.243	79
578.454	79
578.665	93
578.875	88
579.086	90
579.297	96
579.508	72
579.718	97
579.929	84
580.14	87
580.35	85
580.561	83
580.772	99
580.982	73
581.193	81
581.403	90
581.614	92
581.825	88
582.035	90
582.246	79
582.456	95
582.667	78
582.877	84
583.087	84
583.298	98
583.508	93
583.719	91
583.929	91
584.139	89
584.35	76
584.56	80
584.77	84
584.981	91
585.191	93
585.401	85
585.611	79
585.821	89
586.032	84
586.242	88
586.452	79
586.662	75
586.872	77
587.082	89
587.292	88
587.502	74
587.713	84
587.923	85
588.133	81
588.343	88
588.553	85
588.762	87
588.972	92
589.182	81
589.392	69
589.602	85
589.812	77
590.022	77
590.232	78
590.441	81
590.651	90
590.861	85
591.071	81
591.281	78
591.49	83
591.7	80
591.91	91
592.119	75
592.329	89
592.539	98
592.748	101
592.958	92
593.167	89
593.377	87
593.587	86
593.796	86
594.006	80
594.215	89
594.424	81
594.634	95
594.843	100
595.053	94
595.262	90
595.472	89
595.681	72
595.89	86
596.1	76
596.309	87
596.518	81
596.727	88
596.937	91
597.146	83
597.355	97
597.564	98
597.774	100
597.983	75
598.192	97
598.401	80
598.61	87
598.819	86
599.028	81
599.237	92
599.446	84
599.655	97
599.864	86
600.073	81
600.282	87
600.491	95
600.7	91
600.909	96
601.118	83
601.327	79
601.536	98
601.745	83
601.953	93
602.162	98
602.371	84
602.58	85
602.789	95
602.997	94
603.206	88
603.415	104
603.623	87
603.832	108
604.041	84
604.249	91
604.458	85
604.666	87
604.875	103
605.084	108
605.292	95
605.501	94
605.709	101
605.918	105
606.126	97
606.334	97
606.543	83
606.751	99
606.96	91
607.168	106
607.376	86
607.585	105
607.793	100
608.001	96
608.21	99
608.418	96
608.626	104
608.834	94
609.043	99
609.251	97
609.459	82
609.667	98
609.875	104
610.083	108
610.291	87
610.499	88
610.707	86
610.916	86
611.124	94
611.332	101
611.54	99
611.748	96
611.955	86
612.163	87
612.371	90
612.579	100
612.787	89
612.995	88
613.203	100
613.411	90
613.618	90
613.826	112
614.034	102
614.242	107
614.449	90
614.657	112
614.865	90
615.072	92
615.28	96
615.488	83
615.695	103
615.903	96
616.111	83
616.318	96
616.526	96
616.733	102
616.941	101
617.148	96
617.356	100
617.563	89
617.771	104
617.978	100
618.185	93
618.393	99
618.6	107
618.807	99
619.015	94
619.222	92
619.429	99
619.637	97
619.844	84
620.051	95
620.258	102
620.466	97
620.673	100
620.88	76
621.087	96
621.294	87
621.501	102
621.708	93
621.915	98
622.122	84
622.329	98
622.536	91
622.743	101
622.95	87
623.157	86
623.364	98
623.571	107
623.778	91
623.985	111
624.192	92
624.399	93
624.606	102
624.812	89
625.019	101
625.226	107
625.433	96
625.639	87
625.846	85
626.053	98
626.259	87
626.466	86
626.673	94
626.879	95
627.086	84
627.293	89
627.499	93
627.706	99
627.912	100
628.119	95
628.325	81
628.532	85
628.738	89
628.945	102
629.151	110
629.357	94
629.564	87
629.77	89
629.976	89
630.183	87
630.389	89
630.595	83
630.802	89
631.008	94
631.214	89
631.42	90
631.627	81
631.833	84
632.039	96
632.245	95
632.451	97
632.657	90
632.863	86
633.069	87
633.275	102
633.481	72
633.688	82
633.893	91
634.099	106
634.305	99
634.511	99
634.717	96
634.923	83
635.129	94
635.335	101
635.541	90
635.747	74
635.952	82
636.158	90
636.364	95
636.57	96
636.775	113
636.981	95
637.187	82
637.392	103
637.598	96
637.804	93
638.009	87
638.215	105
638.421	88
638.626	90
638.832	88
639.037	95
639.243	84
639.448	92
639.654	89
639.859	89
640.065	88
640.27	104
640.475	96
640.681	83
640.886	95
641.091	99
641.297	90
641.502	96
641.707	84
641.913	95
642.118	90
642.323	85
642.528	93
642.733	95
642.939	107
643.144	99
643.349	94
643.554	92
643.759	91
643.964	92
644.169	98
644.374	89
644.579	88
644.784	88
644.989	80
645.194	89
645.399	95
645.604	96
645.809	85
646.014	77
646.219	83
646.423	75
646.628	95
646.833	90
647.038	93
647.243	97
647.447	101
647.652	86
647.857	91
648.062	90
648.266	79
648.471	99
648.676	81
648.88	79
649.085	94
649.289	101
649.494	87
649.698	81
649.903	86
650.107	84
650.312	87
650.516	85
650.721	97
650.925	98
651.13	97
651.334	92
651.539	89
651.743	100
651.947	81
652.152	96
652.356	98
652.56	85
652.764	80
652.969	84
653.173	94
653.377	94
653.581	87
653.785	100
653.99	92
654.194	95
654.398	91
654.602	97
654.806	92
655.01	94
655.214	83
655.418	66
655.622	99
655.826	86
656.03	82
656.234	87
656.438	100
656.642	89
656.846	98
657.049	84
657.253	75
657.457	92
657.661	85
657.865	103
658.068	89
658.272	83
658.476	82
658.68	82
658.883	85
659.087	90
659.291	89
659.494	81
659.698	72
659.901	87
660.105	76
660.309	89
660.512	80
660.716	93
660.919	91
661.123	77
661.326	76
661.53	75
661.733	89
661.936	83
662.14	77
662.343	82
662.546	97
662.75	104
662.953	83
663.156	73
663.36	70
663.563	81
663.766	82
663.969	90
664.173	89
664.376	85
664.579	89
664.782	88
664.985	81
665.188	85
665.391	89
665.594	84
665.797	86
666	89
666.203	88
666.406	90
666.609	88
666.812	76
667.015	80
667.218	87
667.421	76
667.624	75
667.827	79
668.03	79
668.232	87
668.435	74
668.638	82
668.841	86
669.043	89
669.246	66
669.449	80
669.651	106
669.854	76
670.057	87
670.259	82
670.462	83
670.665	63
670.867	69
671.07	73
671.272	75
671.475	85
671.677	83
671.88	91
672.082	85
672.284	71
672.487	71
672.689	81
672.892	67
