Data from Zn(NO3)2Standard.Agarose3%.GreenCap.LampEnergy10E.O_HRD10591_15-06-46-943.txt Node
Date: Mon Jul 22 15:06:46 EDT 2019
User: cochatt
Spectrometer: HR+D1059
Trigger mode: 1
Integration Time (sec): 1.000000E-1
Scans to average: 1
Electric dark correction enabled: true
Nonlinearity correction enabled: false
Boxcar width: 0
XAxis mode: Wavelengths
Number of Pixels in Spectrum: 2048
>>>>>Begin Spectral Data<<<<<
223.165	-24
223.4	-24
223.635	-24
223.869	-10
224.104	-24
224.338	-29
224.573	-4
224.808	-10
225.042	-15
225.277	-12
225.511	3
225.746	11
225.98	12
226.215	10
226.449	11
226.683	20
226.918	37
227.152	24
227.387	41
227.621	34
227.856	42
228.09	43
228.324	41
228.559	50
228.793	49
229.027	64
229.262	70
229.496	56
229.73	62
229.964	89
230.199	63
230.433	69
230.667	81
230.901	80
231.136	81
231.37	83
231.604	78
231.838	82
232.072	67
232.306	77
232.541	107
232.775	83
233.009	80
233.243	66
233.477	81
233.711	74
233.945	69
234.179	75
234.413	76
234.647	70
234.881	82
235.115	84
235.349	76
235.583	81
235.817	90
236.051	85
236.285	73
236.519	73
236.753	79
236.987	81
237.221	85
237.455	81
237.689	68
237.922	66
238.156	74
238.39	70
238.624	71
238.858	88
239.091	95
239.325	82
239.559	66
239.793	67
240.027	85
240.26	70
240.494	72
240.728	75
240.961	88
241.195	82
241.429	59
241.662	91
241.896	63
242.13	67
242.363	79
242.597	62
242.83	71
243.064	77
243.298	56
243.531	74
243.765	85
243.998	92
244.232	83
244.465	80
244.699	70
244.932	72
245.166	78
245.399	85
245.633	75
245.866	66
246.099	80
246.333	81
246.566	77
246.8	73
247.033	83
247.266	83
247.5	74
247.733	84
247.966	85
248.2	75
248.433	78
248.666	82
248.899	84
249.133	87
249.366	84
249.599	83
249.832	77
250.066	84
250.299	69
250.532	89
250.765	89
250.998	85
251.231	70
251.465	84
251.698	88
251.931	70
252.164	72
252.397	67
252.63	69
252.863	90
253.096	72
253.329	77
253.562	78
253.795	85
254.028	80
254.261	97
254.494	82
254.727	87
254.96	89
255.193	77
255.426	82
255.659	82
255.892	90
256.124	85
256.357	75
256.59	80
256.823	77
257.056	69
257.289	84
257.521	84
257.754	69
257.987	72
258.22	79
258.452	83
258.685	72
258.918	81
259.151	76
259.383	64
259.616	81
259.849	96
260.081	74
260.314	75
260.547	91
260.779	82
261.012	91
261.244	92
261.477	77
261.71	84
261.942	82
262.175	86
262.407	82
262.64	72
262.872	75
263.105	74
263.337	89
263.57	78
263.802	74
264.035	71
264.267	85
264.499	82
264.732	84
264.964	89
265.197	90
265.429	84
265.661	78
265.894	83
266.126	68
266.358	76
266.591	79
266.823	82
267.055	54
267.287	73
267.52	74
267.752	82
267.984	66
268.216	87
268.448	69
268.681	78
268.913	73
269.145	90
269.377	86
269.609	89
269.841	69
270.073	80
270.306	83
270.538	96
270.77	82
271.002	98
271.234	81
271.466	79
271.698	89
271.93	97
272.162	83
272.394	89
272.626	81
272.858	75
273.09	91
273.322	88
273.553	86
273.785	89
274.017	87
274.249	82
274.481	69
274.713	81
274.945	81
275.176	89
275.408	87
275.64	86
275.872	77
276.104	64
276.335	88
276.567	86
276.799	85
277.031	81
277.262	88
277.494	76
277.726	89
277.957	70
278.189	88
278.421	74
278.652	90
278.884	85
279.115	85
279.347	72
279.579	82
279.81	96
280.042	81
280.273	87
280.505	94
280.736	87
280.968	86
281.199	93
281.431	85
281.662	82
281.894	95
282.125	91
282.356	83
282.588	90
282.819	86
283.051	94
283.282	76
283.513	88
283.745	80
283.976	90
284.207	90
284.439	96
284.67	84
284.901	93
285.132	77
285.364	85
285.595	96
285.826	78
286.057	77
286.288	79
286.52	87
286.751	84
286.982	93
287.213	76
287.444	88
287.675	76
287.906	91
288.138	72
288.369	92
288.6	84
288.831	91
289.062	97
289.293	94
289.524	88
289.755	84
289.986	81
290.217	94
290.448	77
290.679	87
290.91	84
291.141	77
291.371	91
291.602	72
291.833	85
292.064	86
292.295	75
292.526	94
292.757	83
292.987	77
293.218	86
293.449	87
293.68	88
293.91	73
294.141	87
294.372	75
294.603	90
294.833	89
295.064	91
295.295	80
295.525	91
295.756	86
295.987	88
296.217	80
296.448	80
296.679	75
296.909	89
297.14	103
297.37	90
297.601	81
297.831	81
298.062	87
298.292	85
298.523	85
298.753	89
298.984	86
299.214	74
299.445	68
299.675	90
299.905	78
300.136	77
300.366	82
300.597	84
300.827	94
301.057	93
301.288	61
301.518	79
301.748	83
301.979	67
302.209	80
302.439	89
302.669	90
302.9	79
303.13	76
303.36	97
303.59	84
303.82	82
304.051	88
304.281	83
304.511	104
304.741	91
304.971	75
305.201	95
305.431	86
305.661	74
305.891	76
306.121	92
306.352	86
306.582	84
306.812	88
307.042	73
307.272	77
307.502	83
307.731	86
307.961	88
308.191	95
308.421	83
308.651	81
308.881	88
309.111	93
309.341	78
309.571	86
309.8	91
310.03	86
310.26	99
310.49	75
310.72	78
310.949	83
311.179	90
311.409	105
311.639	82
311.868	86
312.098	108
312.328	96
312.557	86
312.787	68
313.017	90
313.246	69
313.476	79
313.706	91
313.935	81
314.165	90
314.394	93
314.624	79
314.853	84
315.083	82
315.312	99
315.542	93
315.771	91
316.001	83
316.23	94
316.46	81
316.689	77
316.919	85
317.148	93
317.377	99
317.607	80
317.836	78
318.065	91
318.295	79
318.524	90
318.753	78
318.983	94
319.212	90
319.441	82
319.67	79
319.9	91
320.129	90
320.358	103
320.587	86
320.816	90
321.046	90
321.275	82
321.504	75
321.733	99
321.962	86
322.191	83
322.42	78
322.649	81
322.878	70
323.108	85
323.337	83
323.566	86
323.795	86
324.024	92
324.253	85
324.482	64
324.71	98
324.939	86
325.168	86
325.397	78
325.626	84
325.855	93
326.084	89
326.313	85
326.542	91
326.77	76
326.999	81
327.228	101
327.457	96
327.686	81
327.914	81
328.143	86
328.372	72
328.6	71
328.829	88
329.058	89
329.287	89
329.515	87
329.744	87
329.972	76
330.201	91
330.43	93
330.658	79
330.887	83
331.115	67
331.344	83
331.572	88
331.801	86
332.03	96
332.258	84
332.486	84
332.715	86
332.943	76
333.172	86
333.4	81
333.629	77
333.857	85
334.085	73
334.314	84
334.542	80
334.771	77
334.999	84
335.227	75
335.455	86
335.684	94
335.912	89
336.14	97
336.369	89
336.597	74
336.825	74
337.053	92
337.281	77
337.51	75
337.738	94
337.966	86
338.194	84
338.422	81
338.65	68
338.878	85
339.106	85
339.334	74
339.562	83
339.79	75
340.018	88
340.246	92
340.474	86
340.702	85
340.93	93
341.158	91
341.386	82
341.614	63
341.842	81
342.07	80
342.298	84
342.526	77
342.754	89
342.981	83
343.209	88
343.437	86
343.665	79
343.893	89
344.12	91
344.348	96
344.576	85
344.804	86
345.031	65
345.259	92
345.487	86
345.714	78
345.942	63
346.17	84
346.397	84
346.625	99
346.853	91
347.08	82
347.308	89
347.535	88
347.763	88
347.99	86
348.218	78
348.445	90
348.673	84
348.9	93
349.128	91
349.355	90
349.583	87
349.81	90
350.037	84
350.265	76
350.492	67
350.72	87
350.947	86
351.174	91
351.402	104
351.629	75
351.856	83
352.083	79
352.311	93
352.538	88
352.765	85
352.992	82
353.22	84
353.447	77
353.674	96
353.901	82
354.128	94
354.355	93
354.583	79
354.81	89
355.037	93
355.264	87
355.491	94
355.718	80
355.945	84
356.172	82
356.399	94
356.626	88
356.853	93
357.08	86
357.307	79
357.534	80
357.761	85
357.988	87
358.215	77
358.441	83
358.668	93
358.895	84
359.122	87
359.349	71
359.576	85
359.802	81
360.029	79
360.256	83
360.483	89
360.709	82
360.936	87
361.163	87
361.39	84
361.616	81
361.843	84
362.07	77
362.296	87
362.523	80
362.749	73
362.976	82
363.203	102
363.429	92
363.656	85
363.882	81
364.109	78
364.335	82
364.562	95
364.788	92
365.015	85
365.241	76
365.468	85
365.694	77
365.92	85
366.147	90
366.373	75
366.599	84
366.826	97
367.052	89
367.278	82
367.505	90
367.731	81
367.957	73
368.184	78
368.41	83
368.636	98
368.862	84
369.089	78
369.315	86
369.541	87
369.767	99
369.993	87
370.219	84
370.445	86
370.672	84
370.898	89
371.124	85
371.35	91
371.576	88
371.802	96
372.028	83
372.254	91
372.48	85
372.706	78
372.932	88
373.158	92
373.384	81
373.61	88
373.835	78
374.061	90
374.287	89
374.513	90
374.739	82
374.965	85
375.191	81
375.416	99
375.642	97
375.868	96
376.094	93
376.319	90
376.545	88
376.771	85
376.997	84
377.222	85
377.448	104
377.674	77
377.899	84
378.125	82
378.35	87
378.576	90
378.802	98
379.027	88
379.253	84
379.478	96
379.704	82
379.929	88
380.155	90
380.38	98
380.606	96
380.831	88
381.057	92
381.282	90
381.507	92
381.733	83
381.958	83
382.184	87
382.409	83
382.634	86
382.86	95
383.085	98
383.31	91
383.535	92
383.761	91
383.986	84
384.211	89
384.436	88
384.662	92
384.887	86
385.112	88
385.337	91
385.562	83
385.787	85
386.013	77
386.238	86
386.463	95
386.688	76
386.913	98
387.138	94
387.363	80
387.588	104
387.813	89
388.038	82
388.263	94
388.488	88
388.713	82
388.938	96
389.163	88
389.387	91
389.612	105
389.837	99
390.062	79
390.287	88
390.512	94
390.736	96
390.961	99
391.186	90
391.411	95
391.636	113
391.86	92
392.085	82
392.31	97
392.534	100
392.759	97
392.984	91
393.208	88
393.433	84
393.658	96
393.882	83
394.107	88
394.331	93
394.556	93
394.78	100
395.005	88
395.229	91
395.454	100
395.678	96
395.903	100
396.127	86
396.352	79
396.576	91
396.801	99
397.025	76
397.249	91
397.474	101
397.698	87
397.922	91
398.147	89
398.371	94
398.595	97
398.82	105
399.044	96
399.268	99
399.492	99
399.717	84
399.941	92
400.165	90
400.389	91
400.613	102
400.837	82
401.062	97
401.286	92
401.51	101
401.734	95
401.958	99
402.182	94
402.406	114
402.63	102
402.854	112
403.078	93
403.302	91
403.526	98
403.75	97
403.974	95
404.198	106
404.422	101
404.645	102
404.869	93
405.093	102
405.317	106
405.541	102
405.765	96
405.988	95
406.212	98
406.436	95
406.66	92
406.883	97
407.107	84
407.331	94
407.555	117
407.778	103
408.002	102
408.226	92
408.449	95
408.673	107
408.896	97
409.12	86
409.344	96
409.567	96
409.791	97
410.014	105
410.238	93
410.461	105
410.685	104
410.908	94
411.132	116
411.355	88
411.578	104
411.802	100
412.025	105
412.249	90
412.472	103
412.695	103
412.919	99
413.142	95
413.365	106
413.589	79
413.812	93
414.035	94
414.258	95
414.482	88
414.705	90
414.928	96
415.151	94
415.374	101
415.597	97
415.821	107
416.044	94
416.267	92
416.49	112
416.713	105
416.936	108
417.159	103
417.382	100
417.605	91
417.828	113
418.051	106
418.274	112
418.497	104
418.72	100
418.943	107
419.166	106
419.389	107
419.611	116
419.834	109
420.057	119
420.28	94
420.503	103
420.726	108
420.948	98
421.171	120
421.394	108
421.617	112
421.839	100
422.062	100
422.285	103
422.507	108
422.73	104
422.953	105
423.175	104
423.398	115
423.621	101
423.843	101
424.066	100
424.288	116
424.511	110
424.733	123
424.956	116
425.178	95
425.401	99
425.623	102
425.846	120
426.068	94
426.291	94
426.513	106
426.735	94
426.958	114
427.18	107
427.402	115
427.625	101
427.847	105
428.069	101
428.292	99
428.514	101
428.736	99
428.958	105
429.181	113
429.403	116
429.625	99
429.847	103
430.069	109
430.292	109
430.514	103
430.736	96
430.958	108
431.18	100
431.402	98
431.624	103
431.846	96
432.068	88
432.29	88
432.512	107
432.734	114
432.956	116
433.178	108
433.4	98
433.622	118
433.844	109
434.066	96
434.287	101
434.509	94
434.731	98
434.953	108
435.175	97
435.397	94
435.618	101
435.84	96
436.062	103
436.284	104
436.505	109
436.727	115
436.949	94
437.17	98
437.392	96
437.614	118
437.835	102
438.057	101
438.278	98
438.5	96
438.721	105
438.943	113
439.165	111
439.386	109
439.608	128
439.829	107
440.05	107
440.272	114
440.493	112
440.715	118
440.936	108
441.158	107
441.379	108
441.6	124
441.822	117
442.043	102
442.264	109
442.486	109
442.707	108
442.928	99
443.149	118
443.371	109
443.592	117
443.813	114
444.034	124
444.255	120
444.476	105
444.698	108
444.919	116
445.14	220
445.361	169
445.582	119
445.803	121
446.024	121
446.245	115
446.466	116
446.687	121
446.908	108
447.129	108
447.35	124
447.571	106
447.792	120
448.013	118
448.234	118
448.455	131
448.675	112
448.896	126
449.117	101
449.338	98
449.559	105
449.779	99
450	108
450.221	102
450.442	101
450.662	97
450.883	114
451.104	114
451.324	106
451.545	112
451.766	103
451.986	109
452.207	110
452.428	108
452.648	94
452.869	109
453.089	107
453.31	81
453.53	93
453.751	96
453.971	92
454.192	88
454.412	101
454.633	78
454.853	91
455.073	98
455.294	114
455.514	92
455.734	99
455.955	98
456.175	97
456.395	94
456.616	102
456.836	99
457.056	113
457.276	96
457.497	104
457.717	90
457.937	97
458.157	102
458.377	88
458.598	86
458.818	82
459.038	87
459.258	89
459.478	89
459.698	87
459.918	95
460.138	89
460.358	106
460.578	102
460.798	108
461.018	86
461.238	76
461.458	106
461.678	108
461.898	92
462.118	107
462.338	99
462.558	97
462.777	98
462.997	96
463.217	103
463.437	89
463.657	122
463.876	101
464.096	105
464.316	93
464.536	110
464.755	107
464.975	98
465.195	95
465.414	88
465.634	103
465.854	96
466.073	100
466.293	116
466.512	107
466.732	107
466.951	94
467.171	103
467.391	94
467.61	104
467.829	107
468.049	96
468.268	106
468.488	101
468.707	109
468.927	120
469.146	98
469.365	104
469.585	103
469.804	112
470.023	100
470.243	114
470.462	116
470.681	115
470.901	109
471.12	102
471.339	120
471.558	120
471.777	99
471.997	98
472.216	104
472.435	113
472.654	94
472.873	100
473.092	89
473.311	114
473.53	111
473.749	127
473.968	112
474.187	102
474.406	106
474.625	114
474.844	116
475.063	95
475.282	102
475.501	82
475.72	99
475.939	107
476.158	121
476.377	98
476.596	91
476.814	103
477.033	88
477.252	102
477.471	92
477.69	110
477.908	117
478.127	97
478.346	123
478.564	108
478.783	106
479.002	97
479.22	92
479.439	107
479.658	93
479.876	101
480.095	99
480.313	100
480.532	105
480.751	93
480.969	95
481.188	90
481.406	83
481.624	86
481.843	84
482.061	85
482.28	107
482.498	111
482.717	97
482.935	91
483.153	105
483.372	119
483.59	107
483.808	102
484.027	85
484.245	115
484.463	103
484.681	116
484.9	104
485.118	114
485.336	109
485.554	102
485.772	96
485.99	91
486.209	92
486.427	98
486.645	88
486.863	107
487.081	120
487.299	110
487.517	110
487.735	124
487.953	125
488.171	129
488.389	142
488.607	117
488.825	121
489.043	106
489.261	123
489.479	112
489.696	114
489.914	115
490.132	111
490.35	119
490.568	117
490.786	121
491.003	126
491.221	142
491.439	128
491.657	132
491.874	140
492.092	151
492.31	154
492.527	147
492.745	153
492.963	136
493.18	123
493.398	132
493.615	134
493.833	122
494.05	129
494.268	113
494.485	130
494.703	138
494.92	123
495.138	122
495.355	135
495.573	131
495.79	115
496.008	132
496.225	107
496.442	118
496.66	119
496.877	119
497.094	126
497.312	123
497.529	121
497.746	115
497.963	106
498.181	116
498.398	116
498.615	95
498.832	101
499.049	112
499.267	98
499.484	114
499.701	97
499.918	95
500.135	105
500.352	116
500.569	114
500.786	111
501.003	114
501.22	109
501.437	98
501.654	101
501.871	111
502.088	118
502.305	110
502.522	96
502.739	103
502.956	94
503.172	115
503.389	89
503.606	92
503.823	101
504.04	96
504.256	109
504.473	100
504.69	89
504.907	104
505.123	100
505.34	103
505.557	104
505.773	109
505.99	98
506.207	97
506.423	94
506.64	97
506.856	104
507.073	103
507.289	103
507.506	108
507.722	105
507.939	112
508.155	107
508.372	115
508.588	100
508.805	114
509.021	101
509.238	97
509.454	97
509.67	97
509.887	93
510.103	88
510.319	105
510.536	96
510.752	85
510.968	89
511.184	82
511.401	84
511.617	78
511.833	100
512.049	105
512.265	91
512.481	89
512.698	89
512.914	71
513.13	95
513.346	76
513.562	99
513.778	82
513.994	88
514.21	93
514.426	92
514.642	87
514.858	92
515.074	83
515.29	89
515.506	98
515.721	90
515.937	81
516.153	103
516.369	86
516.585	79
516.801	97
517.016	84
517.232	85
517.448	83
517.664	80
517.879	93
518.095	88
518.311	105
518.527	95
518.742	96
518.958	83
519.173	95
519.389	101
519.605	92
519.82	98
520.036	101
520.251	80
520.467	94
520.682	98
520.898	107
521.113	86
521.329	88
521.544	90
521.76	77
521.975	104
522.19	81
522.406	100
522.621	81
522.836	104
523.052	96
523.267	93
523.482	92
523.698	93
523.913	98
524.128	94
524.343	97
524.559	111
524.774	100
524.989	114
525.204	108
525.419	98
525.634	93
525.849	101
526.064	97
526.28	96
526.495	87
526.71	89
526.925	83
527.14	90
527.355	77
527.57	83
527.785	92
527.999	95
528.214	97
528.429	101
528.644	102
528.859	101
529.074	113
529.289	126
529.503	131
529.718	107
529.933	94
530.148	103
530.363	98
530.577	75
530.792	67
531.007	85
531.221	87
531.436	89
531.651	87
531.865	84
532.08	94
532.295	80
532.509	85
532.724	84
532.938	75
533.153	93
533.367	102
533.582	101
533.796	108
534.011	100
534.225	88
534.44	94
534.654	91
534.868	105
535.083	79
535.297	91
535.511	90
535.726	108
535.94	108
536.154	84
536.369	102
536.583	99
536.797	85
537.011	84
537.225	94
537.44	102
537.654	89
537.868	88
538.082	77
538.296	80
538.51	92
538.724	95
538.938	99
539.153	107
539.367	106
539.581	106
539.795	103
540.009	99
540.222	103
540.436	97
540.65	97
540.864	99
541.078	112
541.292	114
541.506	122
541.72	120
541.934	141
542.147	142
542.361	134
542.575	120
542.789	110
543.002	117
543.216	109
543.43	102
543.644	98
543.857	117
544.071	138
544.285	116
544.498	109
544.712	132
544.925	128
545.139	122
545.352	126
545.566	119
545.779	120
545.993	120
546.206	128
546.42	119
546.633	122
546.847	124
547.06	125
547.274	121
547.487	128
547.7	137
547.914	130
548.127	126
548.34	140
548.554	120
548.767	122
548.98	121
549.193	104
549.407	117
549.62	131
549.833	112
550.046	125
550.259	122
550.473	123
550.686	106
550.899	114
551.112	103
551.325	112
551.538	100
551.751	100
551.964	89
552.177	114
552.39	101
552.603	110
552.816	123
553.029	131
553.242	119
553.455	117
553.667	120
553.88	108
554.093	114
554.306	114
554.519	123
554.732	124
554.944	144
555.157	130
555.37	110
555.583	130
555.795	118
556.008	120
556.221	115
556.433	98
556.646	101
556.859	100
557.071	104
557.284	112
557.496	137
557.709	118
557.921	111
558.134	110
558.346	121
558.559	109
558.771	110
558.984	108
559.196	96
559.409	100
559.621	116
559.833	97
560.046	101
560.258	97
560.47	102
560.683	113
560.895	112
561.107	99
561.32	103
561.532	109
561.744	109
561.956	113
562.168	110
562.381	115
562.593	105
562.805	107
563.017	104
563.229	98
563.441	98
563.653	93
563.865	108
564.077	116
564.289	88
564.501	105
564.713	106
564.925	92
565.137	108
565.349	113
565.561	112
565.773	104
565.985	89
566.197	91
566.408	97
566.62	109
566.832	94
567.044	100
567.255	102
567.467	104
567.679	92
567.891	99
568.102	83
568.314	93
568.526	86
568.737	82
568.949	88
569.161	87
569.372	90
569.584	93
569.795	84
570.007	86
570.218	89
570.43	97
570.641	102
570.853	77
571.064	96
571.276	82
571.487	77
571.698	91
571.91	94
572.121	93
572.333	89
572.544	93
572.755	93
572.966	95
573.178	99
573.389	94
573.6	86
573.811	93
574.023	91
574.234	87
574.445	93
574.656	85
574.867	103
575.078	95
575.289	106
575.501	95
575.712	81
575.923	84
576.134	109
576.345	101
576.556	85
576.767	88
576.978	84
577.188	96
577.399	89
577.61	100
577.821	81
578.032	100
578.243	97
578.454	100
578.665	92
578.875	85
579.086	79
579.297	74
579.508	86
579.718	90
579.929	98
580.14	79
580.35	98
580.561	73
580.772	84
580.982	98
581.193	87
581.403	86
581.614	91
581.825	97
582.035	91
582.246	96
582.456	91
582.667	90
582.877	88
583.087	90
583.298	97
583.508	95
583.719	89
583.929	90
584.139	83
584.35	79
584.56	86
584.77	84
584.981	91
585.191	95
585.401	90
585.611	100
585.821	83
586.032	81
586.242	70
586.452	96
586.662	93
586.872	84
587.082	79
587.292	76
587.502	89
587.713	82
587.923	74
588.133	89
588.343	86
588.553	73
588.762	94
588.972	91
589.182	74
589.392	89
589.602	84
589.812	89
590.022	87
590.232	95
590.441	88
590.651	90
590.861	85
591.071	74
591.281	83
591.49	86
591.7	75
591.91	81
592.119	86
592.329	80
592.539	93
592.748	79
592.958	89
593.167	92
593.377	76
593.587	90
593.796	84
594.006	92
594.215	93
594.424	92
594.634	89
594.843	77
595.053	96
595.262	77
595.472	86
595.681	84
595.89	93
596.1	91
596.309	77
596.518	89
596.727	97
596.937	97
597.146	97
597.355	105
597.564	86
597.774	73
597.983	95
598.192	77
598.401	80
598.61	84
598.819	95
599.028	74
599.237	105
599.446	95
599.655	94
599.864	96
600.073	88
600.282	91
600.491	91
600.7	93
600.909	104
601.118	86
601.327	93
601.536	117
601.745	116
601.953	94
602.162	105
602.371	92
602.58	97
602.789	89
602.997	109
603.206	102
603.415	106
603.623	103
603.832	92
604.041	100
604.249	101
604.458	98
604.666	94
604.875	92
605.084	90
605.292	86
605.501	91
605.709	83
605.918	93
606.126	96
606.334	106
606.543	88
606.751	105
606.96	86
607.168	100
607.376	110
607.585	93
607.793	105
608.001	88
608.21	105
608.418	105
608.626	94
608.834	94
609.043	103
609.251	100
609.459	96
609.667	100
609.875	111
610.083	98
610.291	109
610.499	108
610.707	108
610.916	100
611.124	101
611.332	85
611.54	90
611.748	86
611.955	104
612.163	94
612.371	93
612.579	92
612.787	104
612.995	106
613.203	94
613.411	108
613.618	101
613.826	106
614.034	97
614.242	93
614.449	110
614.657	106
614.865	99
615.072	79
615.28	115
615.488	106
615.695	100
615.903	98
616.111	100
616.318	101
616.526	108
616.733	87
616.941	90
617.148	99
617.356	90
617.563	88
617.771	90
617.978	92
618.185	97
618.393	92
618.6	106
618.807	100
619.015	88
619.222	99
619.429	91
619.637	91
619.844	81
620.051	99
620.258	93
620.466	93
620.673	93
620.88	94
621.087	96
621.294	103
621.501	100
621.708	105
621.915	101
622.122	83
622.329	97
622.536	104
622.743	96
622.95	99
623.157	96
623.364	92
623.571	98
623.778	96
623.985	105
624.192	96
624.399	92
624.606	91
624.812	94
625.019	98
625.226	108
625.433	107
625.639	85
625.846	77
626.053	107
626.259	91
626.466	88
626.673	81
626.879	88
627.086	72
627.293	92
627.499	84
627.706	91
627.912	97
628.119	89
628.325	95
628.532	105
628.738	94
628.945	94
629.151	98
629.357	87
629.564	88
629.77	84
629.976	82
630.183	90
630.389	92
630.595	81
630.802	97
631.008	105
631.214	104
631.42	85
631.627	105
631.833	82
632.039	96
632.245	111
632.451	102
632.657	102
632.863	82
633.069	104
633.275	93
633.481	96
633.688	86
633.893	89
634.099	92
634.305	95
634.511	88
634.717	101
634.923	94
635.129	92
635.335	92
635.541	83
635.747	102
635.952	86
636.158	85
636.364	91
636.57	93
636.775	101
636.981	93
637.187	100
637.392	83
637.598	85
637.804	98
638.009	91
638.215	102
638.421	93
638.626	103
638.832	89
639.037	89
639.243	101
639.448	97
639.654	102
639.859	99
640.065	91
640.27	89
640.475	87
640.681	94
640.886	94
641.091	90
641.297	85
641.502	86
641.707	97
641.913	105
642.118	96
642.323	88
642.528	89
642.733	98
642.939	91
643.144	100
643.349	87
643.554	98
643.759	112
643.964	100
644.169	96
644.374	81
644.579	92
644.784	83
644.989	92
645.194	89
645.399	93
645.604	100
645.809	97
646.014	88
646.219	94
646.423	108
646.628	93
646.833	91
647.038	95
647.243	98
647.447	90
647.652	87
647.857	94
648.062	85
648.266	83
648.471	98
648.676	98
648.88	80
649.085	97
649.289	91
649.494	85
649.698	97
649.903	102
650.107	90
650.312	82
650.516	98
650.721	89
650.925	91
651.13	84
651.334	82
651.539	81
651.743	76
651.947	92
652.152	106
652.356	88
652.56	92
652.764	100
652.969	84
653.173	91
653.377	87
653.581	84
653.785	83
653.99	81
654.194	90
654.398	77
654.602	80
654.806	93
655.01	78
655.214	97
655.418	83
655.622	91
655.826	89
656.03	82
656.234	78
656.438	91
656.642	90
656.846	96
657.049	68
657.253	63
657.457	82
657.661	83
657.865	71
658.068	86
658.272	88
658.476	82
658.68	92
658.883	74
659.087	88
659.291	100
659.494	80
659.698	85
659.901	99
660.105	69
660.309	80
660.512	75
660.716	83
660.919	80
661.123	83
661.326	80
661.53	87
661.733	89
661.936	88
662.14	89
662.343	100
662.546	81
662.75	85
662.953	87
663.156	93
663.36	68
663.563	77
663.766	83
663.969	92
664.173	75
664.376	82
664.579	73
664.782	78
664.985	87
665.188	88
665.391	71
665.594	88
665.797	75
666	82
666.203	80
666.406	85
666.609	86
666.812	88
667.015	89
667.218	86
667.421	83
667.624	71
667.827	85
668.03	81
668.232	89
668.435	69
668.638	83
668.841	83
669.043	82
669.246	90
669.449	84
669.651	91
669.854	101
670.057	82
670.259	78
670.462	84
670.665	76
670.867	83
671.07	79
671.272	91
671.475	92
671.677	82
671.88	84
672.082	77
672.284	78
672.487	81
672.689	99
672.892	87
