Data from Zn(NO3)2Standard.Agarose3%.GreenCap.LampEnergy5.5.E.O_HRD10591_15-01-04-768.txt Node
Date: Mon Jul 22 15:01:04 EDT 2019
User: cochatt
Spectrometer: HR+D1059
Trigger mode: 1
Integration Time (sec): 1.000000E-1
Scans to average: 1
Electric dark correction enabled: true
Nonlinearity correction enabled: false
Boxcar width: 0
XAxis mode: Wavelengths
Number of Pixels in Spectrum: 2048
>>>>>Begin Spectral Data<<<<<
223.165	-3
223.4	-3
223.635	-3
223.869	-11
224.104	-23
224.338	-18
224.573	-22
224.808	-22
225.042	-12
225.277	8
225.511	-3
225.746	-1
225.98	4
226.215	17
226.449	22
226.683	21
226.918	21
227.152	22
227.387	30
227.621	43
227.856	56
228.09	39
228.324	63
228.559	42
228.793	58
229.027	60
229.262	67
229.496	68
229.73	85
229.964	74
230.199	64
230.433	83
230.667	76
230.901	73
231.136	83
231.37	90
231.604	89
231.838	78
232.072	88
232.306	85
232.541	79
232.775	82
233.009	78
233.243	82
233.477	74
233.711	87
233.945	86
234.179	84
234.413	82
234.647	74
234.881	77
235.115	74
235.349	82
235.583	89
235.817	89
236.051	79
236.285	67
236.519	75
236.753	78
236.987	75
237.221	81
237.455	90
237.689	81
237.922	81
238.156	77
238.39	72
238.624	71
238.858	76
239.091	77
239.325	83
239.559	87
239.793	71
240.027	74
240.26	81
240.494	84
240.728	85
240.961	62
241.195	84
241.429	62
241.662	90
241.896	75
242.13	91
242.363	78
242.597	85
242.83	78
243.064	75
243.298	78
243.531	94
243.765	85
243.998	87
244.232	87
244.465	84
244.699	82
244.932	77
245.166	82
245.399	82
245.633	73
245.866	96
246.099	80
246.333	91
246.566	92
246.8	79
247.033	93
247.266	77
247.5	83
247.733	82
247.966	91
248.2	90
248.433	85
248.666	75
248.899	94
249.133	78
249.366	72
249.599	67
249.832	84
250.066	64
250.299	73
250.532	77
250.765	88
250.998	79
251.231	87
251.465	87
251.698	80
251.931	91
252.164	78
252.397	83
252.63	88
252.863	79
253.096	79
253.329	80
253.562	74
253.795	77
254.028	86
254.261	78
254.494	81
254.727	86
254.96	81
255.193	85
255.426	83
255.659	75
255.892	70
256.124	86
256.357	86
256.59	86
256.823	87
257.056	90
257.289	95
257.521	72
257.754	80
257.987	86
258.22	71
258.452	94
258.685	92
258.918	85
259.151	72
259.383	86
259.616	76
259.849	82
260.081	84
260.314	81
260.547	79
260.779	99
261.012	79
261.244	82
261.477	89
261.71	86
261.942	92
262.175	82
262.407	68
262.64	82
262.872	83
263.105	86
263.337	90
263.57	72
263.802	89
264.035	59
264.267	73
264.499	80
264.732	85
264.964	77
265.197	74
265.429	83
265.661	96
265.894	82
266.126	79
266.358	93
266.591	78
266.823	97
267.055	80
267.287	89
267.52	71
267.752	75
267.984	106
268.216	102
268.448	87
268.681	76
268.913	90
269.145	91
269.377	86
269.609	86
269.841	93
270.073	82
270.306	95
270.538	72
270.77	84
271.002	90
271.234	86
271.466	78
271.698	101
271.93	81
272.162	91
272.394	74
272.626	87
272.858	99
273.09	76
273.322	77
273.553	91
273.785	68
274.017	74
274.249	86
274.481	98
274.713	98
274.945	86
275.176	77
275.408	86
275.64	95
275.872	88
276.104	83
276.335	94
276.567	94
276.799	83
277.031	84
277.262	95
277.494	96
277.726	70
277.957	64
278.189	91
278.421	90
278.652	97
278.884	85
279.115	92
279.347	106
279.579	79
279.81	67
280.042	90
280.273	94
280.505	86
280.736	78
280.968	88
281.199	87
281.431	91
281.662	86
281.894	76
282.125	79
282.356	91
282.588	75
282.819	85
283.051	87
283.282	91
283.513	86
283.745	80
283.976	92
284.207	82
284.439	86
284.67	91
284.901	80
285.132	85
285.364	82
285.595	90
285.826	86
286.057	84
286.288	71
286.52	91
286.751	84
286.982	89
287.213	82
287.444	96
287.675	86
287.906	90
288.138	82
288.369	83
288.6	95
288.831	95
289.062	73
289.293	88
289.524	95
289.755	90
289.986	75
290.217	79
290.448	87
290.679	85
290.91	90
291.141	88
291.371	72
291.602	80
291.833	75
292.064	86
292.295	90
292.526	81
292.757	91
292.987	84
293.218	83
293.449	89
293.68	95
293.91	81
294.141	93
294.372	92
294.603	80
294.833	80
295.064	79
295.295	93
295.525	93
295.756	89
295.987	81
296.217	94
296.448	87
296.679	93
296.909	87
297.14	86
297.37	86
297.601	74
297.831	90
298.062	93
298.292	75
298.523	96
298.753	95
298.984	95
299.214	85
299.445	86
299.675	85
299.905	88
300.136	74
300.366	87
300.597	79
300.827	88
301.057	78
301.288	91
301.518	76
301.748	83
301.979	97
302.209	77
302.439	79
302.669	87
302.9	87
303.13	91
303.36	87
303.59	94
303.82	96
304.051	80
304.281	99
304.511	98
304.741	92
304.971	86
305.201	94
305.431	91
305.661	97
305.891	74
306.121	91
306.352	90
306.582	77
306.812	104
307.042	93
307.272	94
307.502	77
307.731	90
307.961	84
308.191	87
308.421	92
308.651	86
308.881	90
309.111	94
309.341	81
309.571	84
309.8	91
310.03	85
310.26	83
310.49	87
310.72	84
310.949	86
311.179	91
311.409	80
311.639	89
311.868	82
312.098	81
312.328	92
312.557	91
312.787	70
313.017	80
313.246	84
313.476	77
313.706	88
313.935	84
314.165	92
314.394	78
314.624	99
314.853	82
315.083	92
315.312	82
315.542	75
315.771	88
316.001	103
316.23	104
316.46	87
316.689	94
316.919	86
317.148	87
317.377	77
317.607	78
317.836	76
318.065	82
318.295	80
318.524	78
318.753	75
318.983	88
319.212	85
319.441	86
319.67	79
319.9	95
320.129	72
320.358	93
320.587	88
320.816	88
321.046	86
321.275	82
321.504	76
321.733	98
321.962	87
322.191	92
322.42	94
322.649	88
322.878	88
323.108	85
323.337	76
323.566	80
323.795	79
324.024	83
324.253	86
324.482	84
324.71	80
324.939	94
325.168	74
325.397	82
325.626	84
325.855	84
326.084	85
326.313	88
326.542	95
326.77	83
326.999	93
327.228	97
327.457	95
327.686	88
327.914	93
328.143	84
328.372	96
328.6	83
328.829	88
329.058	82
329.287	75
329.515	87
329.744	89
329.972	94
330.201	87
330.43	100
330.658	98
330.887	89
331.115	82
331.344	87
331.572	83
331.801	80
332.03	96
332.258	87
332.486	83
332.715	92
332.943	77
333.172	85
333.4	82
333.629	80
333.857	94
334.085	99
334.314	85
334.542	87
334.771	84
334.999	88
335.227	93
335.455	75
335.684	86
335.912	82
336.14	88
336.369	83
336.597	89
336.825	79
337.053	98
337.281	86
337.51	84
337.738	85
337.966	83
338.194	80
338.422	79
338.65	81
338.878	100
339.106	80
339.334	77
339.562	100
339.79	83
340.018	84
340.246	90
340.474	87
340.702	88
340.93	77
341.158	91
341.386	84
341.614	87
341.842	68
342.07	87
342.298	76
342.526	78
342.754	87
342.981	104
343.209	77
343.437	90
343.665	78
343.893	87
344.12	85
344.348	94
344.576	71
344.804	70
345.031	88
345.259	92
345.487	76
345.714	91
345.942	82
346.17	100
346.397	91
346.625	86
346.853	93
347.08	96
347.308	73
347.535	67
347.763	79
347.99	75
348.218	86
348.445	82
348.673	77
348.9	79
349.128	84
349.355	76
349.583	91
349.81	97
350.037	95
350.265	86
350.492	71
350.72	91
350.947	84
351.174	88
351.402	78
351.629	86
351.856	86
352.083	83
352.311	76
352.538	106
352.765	86
352.992	88
353.22	105
353.447	82
353.674	85
353.901	92
354.128	91
354.355	75
354.583	99
354.81	89
355.037	79
355.264	83
355.491	86
355.718	89
355.945	78
356.172	89
356.399	86
356.626	87
356.853	77
357.08	91
357.307	79
357.534	86
357.761	77
357.988	86
358.215	88
358.441	85
358.668	98
358.895	96
359.122	87
359.349	91
359.576	78
359.802	103
360.029	81
360.256	92
360.483	87
360.709	88
360.936	89
361.163	93
361.39	79
361.616	83
361.843	99
362.07	81
362.296	79
362.523	82
362.749	80
362.976	96
363.203	95
363.429	90
363.656	78
363.882	87
364.109	91
364.335	94
364.562	90
364.788	92
365.015	89
365.241	84
365.468	87
365.694	75
365.92	90
366.147	83
366.373	80
366.599	74
366.826	89
367.052	93
367.278	80
367.505	81
367.731	88
367.957	89
368.184	75
368.41	93
368.636	105
368.862	91
369.089	86
369.315	82
369.541	86
369.767	78
369.993	81
370.219	87
370.445	95
370.672	78
370.898	92
371.124	87
371.35	87
371.576	73
371.802	72
372.028	89
372.254	97
372.48	83
372.706	78
372.932	91
373.158	89
373.384	98
373.61	83
373.835	80
374.061	77
374.287	100
374.513	86
374.739	80
374.965	80
375.191	91
375.416	94
375.642	80
375.868	76
376.094	83
376.319	93
376.545	87
376.771	91
376.997	78
377.222	89
377.448	80
377.674	95
377.899	84
378.125	81
378.35	85
378.576	88
378.802	85
379.027	88
379.253	79
379.478	87
379.704	71
379.929	90
380.155	81
380.38	87
380.606	80
380.831	75
381.057	95
381.282	98
381.507	72
381.733	97
381.958	87
382.184	94
382.409	85
382.634	93
382.86	82
383.085	85
383.31	87
383.535	90
383.761	105
383.986	86
384.211	84
384.436	84
384.662	89
384.887	78
385.112	100
385.337	70
385.562	87
385.787	70
386.013	90
386.238	95
386.463	92
386.688	93
386.913	91
387.138	87
387.363	85
387.588	85
387.813	88
388.038	100
388.263	94
388.488	89
388.713	86
388.938	91
389.163	72
389.387	86
389.612	79
389.837	80
390.062	85
390.287	87
390.512	86
390.736	84
390.961	92
391.186	88
391.411	94
391.636	84
391.86	93
392.085	97
392.31	80
392.534	89
392.759	90
392.984	95
393.208	79
393.433	85
393.658	80
393.882	82
394.107	84
394.331	81
394.556	84
394.78	82
395.005	86
395.229	81
395.454	96
395.678	79
395.903	89
396.127	83
396.352	61
396.576	87
396.801	79
397.025	92
397.249	94
397.474	93
397.698	83
397.922	80
398.147	96
398.371	91
398.595	102
398.82	86
399.044	92
399.268	87
399.492	89
399.717	78
399.941	90
400.165	80
400.389	84
400.613	79
400.837	85
401.062	85
401.286	84
401.51	94
401.734	73
401.958	95
402.182	87
402.406	86
402.63	84
402.854	83
403.078	86
403.302	90
403.526	106
403.75	86
403.974	76
404.198	102
404.422	79
404.645	89
404.869	90
405.093	90
405.317	86
405.541	88
405.765	100
405.988	81
406.212	92
406.436	98
406.66	106
406.883	85
407.107	79
407.331	81
407.555	84
407.778	88
408.002	78
408.226	98
408.449	100
408.673	86
408.896	92
409.12	82
409.344	92
409.567	99
409.791	81
410.014	91
410.238	103
410.461	84
410.685	94
410.908	79
411.132	83
411.355	82
411.578	100
411.802	85
412.025	84
412.249	94
412.472	90
412.695	68
412.919	103
413.142	95
413.365	83
413.589	76
413.812	85
414.035	100
414.258	101
414.482	100
414.705	85
414.928	74
415.151	98
415.374	81
415.597	86
415.821	68
416.044	80
416.267	71
416.49	75
416.713	79
416.936	83
417.159	95
417.382	74
417.605	102
417.828	75
418.051	73
418.274	89
418.497	103
418.72	93
418.943	80
419.166	91
419.389	78
419.611	88
419.834	92
420.057	80
420.28	92
420.503	98
420.726	85
420.948	97
421.171	85
421.394	89
421.617	96
421.839	95
422.062	90
422.285	89
422.507	80
422.73	85
422.953	83
423.175	104
423.398	90
423.621	91
423.843	86
424.066	81
424.288	82
424.511	94
424.733	102
424.956	87
425.178	95
425.401	76
425.623	89
425.846	79
426.068	82
426.291	78
426.513	76
426.735	90
426.958	72
427.18	95
427.402	96
427.625	97
427.847	96
428.069	106
428.292	91
428.514	83
428.736	83
428.958	83
429.181	92
429.403	82
429.625	81
429.847	98
430.069	86
430.292	93
430.514	99
430.736	89
430.958	85
431.18	93
431.402	94
431.624	90
431.846	75
432.068	86
432.29	94
432.512	95
432.734	80
432.956	84
433.178	88
433.4	80
433.622	110
433.844	88
434.066	94
434.287	92
434.509	80
434.731	82
434.953	82
435.175	86
435.397	88
435.618	96
435.84	96
436.062	90
436.284	83
436.505	94
436.727	87
436.949	94
437.17	99
437.392	99
437.614	90
437.835	74
438.057	86
438.278	87
438.5	103
438.721	81
438.943	80
439.165	90
439.386	72
439.608	92
439.829	87
440.05	93
440.272	95
440.493	86
440.715	92
440.936	90
441.158	77
441.379	106
441.6	105
441.822	102
442.043	94
442.264	96
442.486	106
442.707	85
442.928	106
443.149	81
443.371	99
443.592	82
443.813	102
444.034	97
444.255	78
444.476	89
444.698	88
444.919	91
445.14	182
445.361	141
445.582	103
445.803	81
446.024	100
446.245	91
446.466	95
446.687	83
446.908	90
447.129	92
447.35	83
447.571	99
447.792	94
448.013	87
448.234	91
448.455	86
448.675	89
448.896	86
449.117	92
449.338	86
449.559	90
449.779	90
450	79
450.221	90
450.442	95
450.662	89
450.883	86
451.104	86
451.324	89
451.545	93
451.766	85
451.986	88
452.207	90
452.428	83
452.648	95
452.869	91
453.089	77
453.31	91
453.53	85
453.751	80
453.971	85
454.192	81
454.412	77
454.633	95
454.853	89
455.073	91
455.294	89
455.514	85
455.734	80
455.955	95
456.175	88
456.395	89
456.616	94
456.836	92
457.056	88
457.276	99
457.497	100
457.717	96
457.937	107
458.157	89
458.377	76
458.598	101
458.818	78
459.038	95
459.258	77
459.478	87
459.698	79
459.918	82
460.138	79
460.358	88
460.578	108
460.798	86
461.018	96
461.238	91
461.458	93
461.678	83
461.898	79
462.118	97
462.338	77
462.558	94
462.777	94
462.997	84
463.217	73
463.437	85
463.657	88
463.876	91
464.096	92
464.316	72
464.536	103
464.755	90
464.975	90
465.195	81
465.414	86
465.634	98
465.854	98
466.073	86
466.293	95
466.512	100
466.732	80
466.951	89
467.171	104
467.391	93
467.61	85
467.829	91
468.049	96
468.268	99
468.488	94
468.707	88
468.927	85
469.146	99
469.365	94
469.585	87
469.804	103
470.023	87
470.243	95
470.462	95
470.681	91
470.901	86
471.12	101
471.339	87
471.558	90
471.777	94
471.997	90
472.216	88
472.435	77
472.654	85
472.873	95
473.092	86
473.311	86
473.53	87
473.749	95
473.968	79
474.187	86
474.406	87
474.625	86
474.844	84
475.063	79
475.282	88
475.501	87
475.72	85
475.939	86
476.158	83
476.377	77
476.596	96
476.814	84
477.033	85
477.252	78
477.471	84
477.69	79
477.908	106
478.127	87
478.346	87
478.564	95
478.783	89
479.002	101
479.22	95
479.439	87
479.658	100
479.876	82
480.095	80
480.313	74
480.532	89
480.751	76
480.969	92
481.188	95
481.406	86
481.624	87
481.843	86
482.061	80
482.28	84
482.498	84
482.717	102
482.935	90
483.153	101
483.372	96
483.59	96
483.808	88
484.027	99
484.245	92
484.463	101
484.681	104
484.9	100
485.118	97
485.336	88
485.554	86
485.772	86
485.99	74
486.209	98
486.427	84
486.645	73
486.863	92
487.081	95
487.299	101
487.517	85
487.735	85
487.953	101
488.171	94
488.389	105
488.607	81
488.825	84
489.043	78
489.261	110
489.479	92
489.696	92
489.914	94
490.132	86
490.35	95
490.568	87
490.786	93
491.003	101
491.221	107
491.439	104
491.657	93
491.874	90
492.092	118
492.31	100
492.527	95
492.745	101
492.963	99
493.18	107
493.398	105
493.615	108
493.833	108
494.05	111
494.268	91
494.485	108
494.703	97
494.92	102
495.138	98
495.355	81
495.573	95
495.79	104
496.008	108
496.225	98
496.442	95
496.66	91
496.877	97
497.094	103
497.312	100
497.529	106
497.746	104
497.963	80
498.181	94
498.398	82
498.615	90
498.832	84
499.049	82
499.267	91
499.484	95
499.701	86
499.918	86
500.135	100
500.352	91
500.569	91
500.786	92
501.003	103
501.22	111
501.437	85
501.654	93
501.871	92
502.088	96
502.305	98
502.522	92
502.739	86
502.956	80
503.172	95
503.389	73
503.606	90
503.823	86
504.04	99
504.256	93
504.473	78
504.69	90
504.907	100
505.123	68
505.34	95
505.557	100
505.773	100
505.99	80
506.207	91
506.423	101
506.64	90
506.856	95
507.073	88
507.289	92
507.506	109
507.722	100
507.939	87
508.155	87
508.372	99
508.588	76
508.805	87
509.021	84
509.238	97
509.454	87
509.67	91
509.887	82
510.103	81
510.319	85
510.536	94
510.752	85
510.968	84
511.184	77
511.401	83
511.617	84
511.833	86
512.049	91
512.265	87
512.481	81
512.698	88
512.914	83
513.13	91
513.346	84
513.562	98
513.778	86
513.994	87
514.21	84
514.426	87
514.642	83
514.858	84
515.074	86
515.29	82
515.506	89
515.721	85
515.937	104
516.153	92
516.369	86
516.585	91
516.801	79
517.016	88
517.232	88
517.448	90
517.664	71
517.879	89
518.095	80
518.311	89
518.527	84
518.742	78
518.958	94
519.173	91
519.389	87
519.605	95
519.82	78
520.036	93
520.251	87
520.467	87
520.682	79
520.898	86
521.113	93
521.329	98
521.544	94
521.76	89
521.975	88
522.19	84
522.406	94
522.621	76
522.836	84
523.052	82
523.267	86
523.482	98
523.698	93
523.913	99
524.128	91
524.343	105
524.559	90
524.774	85
524.989	91
525.204	96
525.419	74
525.634	90
525.849	99
526.064	80
526.28	96
526.495	86
526.71	86
526.925	83
527.14	88
527.355	88
527.57	77
527.785	83
527.999	86
528.214	99
528.429	109
528.644	95
528.859	97
529.074	94
529.289	108
529.503	97
529.718	92
529.933	86
530.148	77
530.363	96
530.577	94
530.792	84
531.007	81
531.221	81
531.436	93
531.651	91
531.865	86
532.08	88
532.295	83
532.509	78
532.724	78
532.938	74
533.153	81
533.367	92
533.582	91
533.796	88
534.011	98
534.225	99
534.44	89
534.654	103
534.868	87
535.083	76
535.297	85
535.511	101
535.726	104
535.94	82
536.154	97
536.369	75
536.583	80
536.797	77
537.011	92
537.225	92
537.44	86
537.654	79
537.868	71
538.082	71
538.296	74
538.51	96
538.724	96
538.938	90
539.153	108
539.367	91
539.581	74
539.795	76
540.009	92
540.222	97
540.436	86
540.65	90
540.864	89
541.078	97
541.292	99
541.506	95
541.72	94
541.934	110
542.147	108
542.361	117
542.575	98
542.789	93
543.002	100
543.216	92
543.43	93
543.644	86
543.857	88
544.071	98
544.285	116
544.498	100
544.712	97
544.925	97
545.139	95
545.352	106
545.566	95
545.779	108
545.993	93
546.206	93
546.42	99
546.633	99
546.847	93
547.06	108
547.274	87
547.487	106
547.7	108
547.914	102
548.127	106
548.34	91
548.554	94
548.767	102
548.98	103
549.193	106
549.407	95
549.62	106
549.833	104
550.046	107
550.259	100
550.473	100
550.686	89
550.899	109
551.112	111
551.325	88
551.538	88
551.751	102
551.964	83
552.177	90
552.39	98
552.603	100
552.816	107
553.029	89
553.242	95
553.455	100
553.667	107
553.88	102
554.093	102
554.306	103
554.519	102
554.732	96
554.944	95
555.157	87
555.37	102
555.583	102
555.795	104
556.008	105
556.221	93
556.433	100
556.646	96
556.859	92
557.071	110
557.284	100
557.496	85
557.709	98
557.921	87
558.134	108
558.346	100
558.559	85
558.771	83
558.984	93
559.196	109
559.409	98
559.621	100
559.833	97
560.046	100
560.258	114
560.47	97
560.683	93
560.895	99
561.107	96
561.32	91
561.532	86
561.744	93
561.956	102
562.168	95
562.381	90
562.593	94
562.805	93
563.017	98
563.229	92
563.441	96
563.653	96
563.865	97
564.077	90
564.289	93
564.501	80
564.713	104
564.925	101
565.137	105
565.349	96
565.561	80
565.773	89
565.985	94
566.197	98
566.408	96
566.62	92
566.832	102
567.044	105
567.255	92
567.467	95
567.679	85
567.891	85
568.102	91
568.314	88
568.526	91
568.737	85
568.949	88
569.161	80
569.372	83
569.584	78
569.795	86
570.007	89
570.218	85
570.43	84
570.641	95
570.853	96
571.064	96
571.276	86
571.487	96
571.698	90
571.91	92
572.121	100
572.333	93
572.544	96
572.755	80
572.966	84
573.178	91
573.389	94
573.6	82
573.811	87
574.023	75
574.234	86
574.445	83
574.656	81
574.867	95
575.078	78
575.289	86
575.501	91
575.712	87
575.923	91
576.134	88
576.345	82
576.556	91
576.767	73
576.978	93
577.188	78
577.399	78
577.61	86
577.821	92
578.032	92
578.243	88
578.454	105
578.665	98
578.875	90
579.086	87
579.297	95
579.508	82
579.718	91
579.929	93
580.14	90
580.35	86
580.561	101
580.772	72
580.982	103
581.193	87
581.403	77
581.614	104
581.825	91
582.035	91
582.246	83
582.456	92
582.667	93
582.877	103
583.087	98
583.298	91
583.508	100
583.719	92
583.929	91
584.139	93
584.35	79
584.56	67
584.77	99
584.981	79
585.191	93
585.401	82
585.611	85
585.821	75
586.032	94
586.242	75
586.452	87
586.662	87
586.872	86
587.082	85
587.292	83
587.502	84
587.713	83
587.923	102
588.133	87
588.343	98
588.553	86
588.762	89
588.972	100
589.182	99
589.392	86
589.602	92
589.812	86
590.022	109
590.232	102
590.441	84
590.651	91
590.861	84
591.071	68
591.281	93
591.49	78
591.7	92
591.91	93
592.119	61
592.329	93
592.539	97
592.748	89
592.958	88
593.167	78
593.377	88
593.587	101
593.796	82
594.006	85
594.215	85
594.424	79
594.634	100
594.843	94
595.053	93
595.262	94
595.472	83
595.681	86
595.89	70
596.1	88
596.309	98
596.518	88
596.727	92
596.937	89
597.146	95
597.355	94
597.564	88
597.774	87
597.983	75
598.192	81
598.401	76
598.61	93
598.819	93
599.028	90
599.237	86
599.446	85
599.655	79
599.864	95
600.073	93
600.282	80
600.491	90
600.7	99
600.909	94
601.118	86
601.327	101
601.536	77
601.745	97
601.953	80
602.162	81
602.371	86
602.58	86
602.789	88
602.997	87
603.206	95
603.415	90
603.623	80
603.832	86
604.041	87
604.249	87
604.458	92
604.666	85
604.875	93
605.084	88
605.292	88
605.501	96
605.709	91
605.918	86
606.126	77
606.334	97
606.543	87
606.751	107
606.96	95
607.168	83
607.376	81
607.585	86
607.793	98
608.001	89
608.21	100
608.418	102
608.626	75
608.834	97
609.043	105
609.251	90
609.459	91
609.667	84
609.875	86
610.083	86
610.291	97
610.499	95
610.707	96
610.916	96
611.124	89
611.332	95
611.54	79
611.748	101
611.955	93
612.163	83
612.371	88
612.579	96
612.787	85
612.995	98
613.203	101
613.411	102
613.618	78
613.826	99
614.034	86
614.242	101
614.449	88
614.657	86
614.865	83
615.072	84
615.28	99
615.488	87
615.695	99
615.903	84
616.111	93
616.318	80
616.526	90
616.733	79
616.941	91
617.148	98
617.356	80
617.563	96
617.771	95
617.978	95
618.185	77
618.393	103
618.6	104
618.807	100
619.015	94
619.222	93
619.429	103
619.637	94
619.844	79
620.051	88
620.258	93
620.466	84
620.673	91
620.88	91
621.087	87
621.294	85
621.501	81
621.708	91
621.915	86
622.122	102
622.329	88
622.536	94
622.743	94
622.95	97
623.157	105
623.364	90
623.571	99
623.778	90
623.985	99
624.192	82
624.399	88
624.606	90
624.812	92
625.019	89
625.226	79
625.433	89
625.639	93
625.846	91
626.053	88
626.259	105
626.466	91
626.673	92
626.879	71
627.086	84
627.293	88
627.499	88
627.706	88
627.912	104
628.119	99
628.325	89
628.532	92
628.738	87
628.945	96
629.151	96
629.357	87
629.564	88
629.77	74
629.976	86
630.183	92
630.389	89
630.595	83
630.802	94
631.008	76
631.214	95
631.42	95
631.627	96
631.833	102
632.039	75
632.245	94
632.451	93
632.657	94
632.863	85
633.069	88
633.275	93
633.481	94
633.688	98
633.893	95
634.099	78
634.305	100
634.511	87
634.717	81
634.923	80
635.129	77
635.335	81
635.541	95
635.747	98
635.952	84
636.158	89
636.364	94
636.57	74
636.775	93
636.981	80
637.187	95
637.392	85
637.598	85
637.804	98
638.009	101
638.215	87
638.421	95
638.626	94
638.832	99
639.037	91
639.243	81
639.448	88
639.654	70
639.859	91
640.065	89
640.27	101
640.475	74
640.681	87
640.886	107
641.091	80
641.297	94
641.502	74
641.707	87
641.913	88
642.118	102
642.323	95
642.528	98
642.733	95
642.939	86
643.144	95
643.349	90
643.554	80
643.759	86
643.964	83
644.169	86
644.374	95
644.579	91
644.784	86
644.989	91
645.194	90
645.399	91
645.604	83
645.809	86
646.014	93
646.219	92
646.423	84
646.628	86
646.833	85
647.038	97
647.243	79
647.447	89
647.652	87
647.857	81
648.062	85
648.266	81
648.471	90
648.676	82
648.88	76
649.085	93
649.289	96
649.494	84
649.698	95
649.903	95
650.107	88
650.312	88
650.516	89
650.721	93
650.925	84
651.13	88
651.334	93
651.539	85
651.743	81
651.947	98
652.152	98
652.356	81
652.56	87
652.764	80
652.969	88
653.173	91
653.377	82
653.581	86
653.785	80
653.99	87
654.194	84
654.398	76
654.602	70
654.806	74
655.01	72
655.214	91
655.418	80
655.622	103
655.826	76
656.03	84
656.234	86
656.438	82
656.642	93
656.846	82
657.049	101
657.253	83
657.457	84
657.661	93
657.865	90
658.068	90
658.272	69
658.476	90
658.68	84
658.883	76
659.087	79
659.291	65
659.494	85
659.698	93
659.901	85
660.105	85
660.309	92
660.512	86
660.716	81
660.919	75
661.123	87
661.326	80
661.53	82
661.733	97
661.936	87
662.14	79
662.343	89
662.546	70
662.75	98
662.953	88
663.156	92
663.36	87
663.563	79
663.766	90
663.969	91
664.173	78
664.376	81
664.579	76
664.782	71
664.985	97
665.188	75
665.391	94
665.594	91
665.797	88
666	94
666.203	90
666.406	83
666.609	82
666.812	81
667.015	90
667.218	74
667.421	92
667.624	93
667.827	96
668.03	99
668.232	91
668.435	103
668.638	74
668.841	88
669.043	99
669.246	84
669.449	76
669.651	92
669.854	82
670.057	100
670.259	87
670.462	68
670.665	73
670.867	81
671.07	71
671.272	87
671.475	86
671.677	88
671.88	82
672.082	99
672.284	80
672.487	86
672.689	88
672.892	73
