Data from Zn(NO3)2Standard.Agarose3%.GreenCap.LampEnergy10E.O_HRD10591_15-07-40-945.txt Node
Date: Mon Jul 22 15:07:40 EDT 2019
User: cochatt
Spectrometer: HR+D1059
Trigger mode: 1
Integration Time (sec): 1.000000E-1
Scans to average: 1
Electric dark correction enabled: true
Nonlinearity correction enabled: false
Boxcar width: 0
XAxis mode: Wavelengths
Number of Pixels in Spectrum: 2048
>>>>>Begin Spectral Data<<<<<
223.165	-16
223.4	-16
223.635	-16
223.869	-14
224.104	-21
224.338	-14
224.573	-28
224.808	-24
225.042	-11
225.277	-2
225.511	8
225.746	10
225.98	9
226.215	18
226.449	10
226.683	18
226.918	33
227.152	24
227.387	31
227.621	50
227.856	33
228.09	41
228.324	56
228.559	59
228.793	61
229.027	64
229.262	57
229.496	66
229.73	71
229.964	68
230.199	71
230.433	77
230.667	79
230.901	81
231.136	67
231.37	83
231.604	77
231.838	75
232.072	80
232.306	76
232.541	83
232.775	78
233.009	75
233.243	67
233.477	73
233.711	74
233.945	78
234.179	88
234.413	77
234.647	75
234.881	77
235.115	77
235.349	79
235.583	88
235.817	79
236.051	91
236.285	77
236.519	75
236.753	76
236.987	82
237.221	67
237.455	80
237.689	79
237.922	75
238.156	80
238.39	78
238.624	77
238.858	88
239.091	73
239.325	60
239.559	74
239.793	78
240.027	84
240.26	76
240.494	82
240.728	64
240.961	73
241.195	79
241.429	74
241.662	59
241.896	74
242.13	87
242.363	89
242.597	82
242.83	92
243.064	82
243.298	65
243.531	54
243.765	72
243.998	96
244.232	68
244.465	60
244.699	77
244.932	71
245.166	84
245.399	90
245.633	78
245.866	89
246.099	84
246.333	79
246.566	76
246.8	74
247.033	91
247.266	88
247.5	78
247.733	69
247.966	78
248.2	75
248.433	65
248.666	64
248.899	84
249.133	78
249.366	71
249.599	69
249.832	69
250.066	85
250.299	84
250.532	82
250.765	86
250.998	76
251.231	99
251.465	73
251.698	83
251.931	86
252.164	77
252.397	86
252.63	85
252.863	73
253.096	85
253.329	72
253.562	84
253.795	79
254.028	86
254.261	79
254.494	86
254.727	88
254.96	69
255.193	84
255.426	85
255.659	88
255.892	89
256.124	77
256.357	84
256.59	72
256.823	71
257.056	82
257.289	84
257.521	78
257.754	75
257.987	88
258.22	78
258.452	85
258.685	80
258.918	87
259.151	81
259.383	95
259.616	83
259.849	87
260.081	84
260.314	75
260.547	103
260.779	88
261.012	81
261.244	97
261.477	85
261.71	72
261.942	73
262.175	83
262.407	72
262.64	81
262.872	88
263.105	85
263.337	85
263.57	81
263.802	87
264.035	86
264.267	89
264.499	86
264.732	88
264.964	78
265.197	80
265.429	77
265.661	93
265.894	93
266.126	92
266.358	92
266.591	83
266.823	73
267.055	83
267.287	84
267.52	78
267.752	82
267.984	90
268.216	79
268.448	75
268.681	82
268.913	84
269.145	80
269.377	93
269.609	81
269.841	87
270.073	89
270.306	77
270.538	72
270.77	76
271.002	85
271.234	81
271.466	73
271.698	75
271.93	100
272.162	90
272.394	78
272.626	64
272.858	78
273.09	78
273.322	71
273.553	90
273.785	104
274.017	76
274.249	79
274.481	69
274.713	78
274.945	72
275.176	86
275.408	107
275.64	82
275.872	84
276.104	91
276.335	89
276.567	64
276.799	89
277.031	84
277.262	81
277.494	87
277.726	76
277.957	92
278.189	88
278.421	88
278.652	84
278.884	96
279.115	86
279.347	71
279.579	90
279.81	80
280.042	91
280.273	79
280.505	88
280.736	77
280.968	86
281.199	77
281.431	82
281.662	82
281.894	97
282.125	85
282.356	81
282.588	92
282.819	81
283.051	82
283.282	81
283.513	81
283.745	100
283.976	74
284.207	88
284.439	75
284.67	76
284.901	81
285.132	78
285.364	98
285.595	90
285.826	88
286.057	75
286.288	89
286.52	83
286.751	86
286.982	65
287.213	87
287.444	77
287.675	98
287.906	95
288.138	87
288.369	83
288.6	82
288.831	97
289.062	99
289.293	86
289.524	91
289.755	85
289.986	88
290.217	71
290.448	97
290.679	90
290.91	88
291.141	89
291.371	88
291.602	83
291.833	79
292.064	88
292.295	73
292.526	96
292.757	78
292.987	93
293.218	81
293.449	81
293.68	74
293.91	93
294.141	75
294.372	94
294.603	77
294.833	79
295.064	86
295.295	85
295.525	82
295.756	81
295.987	77
296.217	96
296.448	82
296.679	82
296.909	84
297.14	72
297.37	88
297.601	81
297.831	89
298.062	86
298.292	81
298.523	91
298.753	88
298.984	84
299.214	86
299.445	77
299.675	86
299.905	86
300.136	86
300.366	74
300.597	85
300.827	81
301.057	67
301.288	75
301.518	94
301.748	69
301.979	78
302.209	88
302.439	91
302.669	83
302.9	85
303.13	76
303.36	67
303.59	87
303.82	97
304.051	93
304.281	84
304.511	92
304.741	82
304.971	92
305.201	87
305.431	82
305.661	92
305.891	84
306.121	92
306.352	80
306.582	82
306.812	95
307.042	86
307.272	81
307.502	90
307.731	90
307.961	81
308.191	90
308.421	81
308.651	88
308.881	80
309.111	90
309.341	89
309.571	88
309.8	72
310.03	94
310.26	83
310.49	81
310.72	75
310.949	102
311.179	75
311.409	78
311.639	90
311.868	81
312.098	77
312.328	94
312.557	73
312.787	77
313.017	85
313.246	90
313.476	67
313.706	77
313.935	90
314.165	84
314.394	90
314.624	79
314.853	76
315.083	76
315.312	97
315.542	85
315.771	90
316.001	90
316.23	85
316.46	88
316.689	80
316.919	91
317.148	76
317.377	84
317.607	73
317.836	88
318.065	81
318.295	88
318.524	84
318.753	83
318.983	90
319.212	96
319.441	100
319.67	86
319.9	77
320.129	81
320.358	104
320.587	80
320.816	85
321.046	92
321.275	95
321.504	88
321.733	77
321.962	84
322.191	87
322.42	84
322.649	91
322.878	89
323.108	80
323.337	87
323.566	91
323.795	79
324.024	79
324.253	81
324.482	72
324.71	82
324.939	91
325.168	80
325.397	93
325.626	77
325.855	83
326.084	90
326.313	82
326.542	86
326.77	71
326.999	86
327.228	85
327.457	78
327.686	76
327.914	82
328.143	103
328.372	103
328.6	89
328.829	88
329.058	95
329.287	82
329.515	88
329.744	82
329.972	69
330.201	83
330.43	72
330.658	83
330.887	94
331.115	84
331.344	88
331.572	87
331.801	82
332.03	79
332.258	95
332.486	101
332.715	87
332.943	76
333.172	97
333.4	80
333.629	78
333.857	80
334.085	71
334.314	77
334.542	78
334.771	87
334.999	91
335.227	80
335.455	77
335.684	80
335.912	74
336.14	86
336.369	86
336.597	85
336.825	78
337.053	76
337.281	95
337.51	82
337.738	86
337.966	98
338.194	80
338.422	98
338.65	93
338.878	85
339.106	94
339.334	76
339.562	80
339.79	77
340.018	89
340.246	71
340.474	96
340.702	88
340.93	93
341.158	80
341.386	87
341.614	92
341.842	95
342.07	85
342.298	82
342.526	78
342.754	86
342.981	86
343.209	77
343.437	77
343.665	86
343.893	94
344.12	91
344.348	97
344.576	84
344.804	78
345.031	89
345.259	81
345.487	80
345.714	86
345.942	71
346.17	82
346.397	86
346.625	85
346.853	79
347.08	92
347.308	90
347.535	81
347.763	73
347.99	62
348.218	80
348.445	76
348.673	73
348.9	91
349.128	85
349.355	84
349.583	93
349.81	76
350.037	83
350.265	86
350.492	80
350.72	85
350.947	75
351.174	85
351.402	93
351.629	98
351.856	80
352.083	90
352.311	89
352.538	78
352.765	86
352.992	76
353.22	77
353.447	85
353.674	84
353.901	83
354.128	78
354.355	90
354.583	89
354.81	87
355.037	76
355.264	78
355.491	85
355.718	85
355.945	80
356.172	85
356.399	93
356.626	97
356.853	84
357.08	77
357.307	93
357.534	78
357.761	78
357.988	85
358.215	97
358.441	78
358.668	77
358.895	81
359.122	88
359.349	85
359.576	85
359.802	85
360.029	74
360.256	79
360.483	81
360.709	73
360.936	101
361.163	91
361.39	83
361.616	80
361.843	78
362.07	75
362.296	85
362.523	77
362.749	90
362.976	81
363.203	96
363.429	81
363.656	72
363.882	84
364.109	79
364.335	96
364.562	88
364.788	100
365.015	97
365.241	72
365.468	90
365.694	85
365.92	88
366.147	80
366.373	87
366.599	88
366.826	88
367.052	92
367.278	84
367.505	86
367.731	91
367.957	87
368.184	89
368.41	97
368.636	87
368.862	93
369.089	98
369.315	72
369.541	89
369.767	72
369.993	77
370.219	96
370.445	76
370.672	87
370.898	88
371.124	88
371.35	77
371.576	84
371.802	96
372.028	89
372.254	81
372.48	85
372.706	67
372.932	84
373.158	91
373.384	82
373.61	88
373.835	78
374.061	104
374.287	93
374.513	78
374.739	88
374.965	80
375.191	82
375.416	87
375.642	100
375.868	100
376.094	96
376.319	82
376.545	77
376.771	85
376.997	82
377.222	77
377.448	91
377.674	79
377.899	96
378.125	77
378.35	112
378.576	78
378.802	87
379.027	83
379.253	96
379.478	92
379.704	92
379.929	81
380.155	81
380.38	84
380.606	79
380.831	92
381.057	104
381.282	93
381.507	102
381.733	74
381.958	86
382.184	69
382.409	73
382.634	84
382.86	86
383.085	82
383.31	87
383.535	88
383.761	88
383.986	87
384.211	94
384.436	91
384.662	84
384.887	96
385.112	100
385.337	88
385.562	83
385.787	85
386.013	99
386.238	89
386.463	85
386.688	96
386.913	92
387.138	97
387.363	96
387.588	97
387.813	88
388.038	94
388.263	88
388.488	88
388.713	77
388.938	81
389.163	85
389.387	108
389.612	86
389.837	91
390.062	91
390.287	91
390.512	97
390.736	98
390.961	94
391.186	87
391.411	94
391.636	81
391.86	96
392.085	90
392.31	86
392.534	89
392.759	98
392.984	86
393.208	82
393.433	95
393.658	89
393.882	93
394.107	95
394.331	94
394.556	89
394.78	88
395.005	90
395.229	86
395.454	97
395.678	100
395.903	89
396.127	104
396.352	92
396.576	99
396.801	95
397.025	99
397.249	87
397.474	98
397.698	84
397.922	103
398.147	107
398.371	88
398.595	99
398.82	94
399.044	109
399.268	107
399.492	98
399.717	90
399.941	87
400.165	93
400.389	81
400.613	90
400.837	90
401.062	112
401.286	84
401.51	101
401.734	92
401.958	95
402.182	106
402.406	96
402.63	107
402.854	86
403.078	89
403.302	105
403.526	112
403.75	88
403.974	85
404.198	87
404.422	98
404.645	100
404.869	96
405.093	92
405.317	99
405.541	89
405.765	89
405.988	104
406.212	102
406.436	90
406.66	104
406.883	105
407.107	100
407.331	96
407.555	101
407.778	97
408.002	83
408.226	90
408.449	109
408.673	88
408.896	101
409.12	89
409.344	84
409.567	105
409.791	101
410.014	100
410.238	107
410.461	85
410.685	93
410.908	83
411.132	100
411.355	92
411.578	94
411.802	91
412.025	87
412.249	103
412.472	105
412.695	99
412.919	88
413.142	86
413.365	98
413.589	107
413.812	98
414.035	122
414.258	104
414.482	101
414.705	93
414.928	95
415.151	96
415.374	107
415.597	104
415.821	108
416.044	106
416.267	104
416.49	103
416.713	99
416.936	109
417.159	106
417.382	107
417.605	94
417.828	106
418.051	106
418.274	99
418.497	112
418.72	104
418.943	100
419.166	102
419.389	113
419.611	114
419.834	103
420.057	88
420.28	121
420.503	101
420.726	102
420.948	108
421.171	128
421.394	99
421.617	90
421.839	112
422.062	105
422.285	103
422.507	94
422.73	101
422.953	117
423.175	104
423.398	108
423.621	105
423.843	100
424.066	103
424.288	109
424.511	103
424.733	109
424.956	102
425.178	108
425.401	111
425.623	92
425.846	95
426.068	107
426.291	92
426.513	106
426.735	97
426.958	104
427.18	108
427.402	108
427.625	124
427.847	98
428.069	89
428.292	94
428.514	97
428.736	104
428.958	93
429.181	104
429.403	91
429.625	112
429.847	114
430.069	100
430.292	97
430.514	114
430.736	98
430.958	95
431.18	100
431.402	100
431.624	108
431.846	89
432.068	90
432.29	90
432.512	92
432.734	107
432.956	98
433.178	118
433.4	114
433.622	92
433.844	108
434.066	92
434.287	87
434.509	72
434.731	84
434.953	95
435.175	98
435.397	96
435.618	87
435.84	100
436.062	100
436.284	93
436.505	98
436.727	99
436.949	98
437.17	109
437.392	101
437.614	99
437.835	90
438.057	99
438.278	92
438.5	100
438.721	95
438.943	111
439.165	115
439.386	99
439.608	97
439.829	101
440.05	118
440.272	120
440.493	112
440.715	109
440.936	121
441.158	97
441.379	117
441.6	124
441.822	133
442.043	115
442.264	115
442.486	114
442.707	94
442.928	118
443.149	120
443.371	96
443.592	117
443.813	112
444.034	118
444.255	111
444.476	108
444.698	112
444.919	116
445.14	260
445.361	164
445.582	117
445.803	117
446.024	109
446.245	112
446.466	128
446.687	125
446.908	124
447.129	111
447.35	126
447.571	104
447.792	123
448.013	97
448.234	120
448.455	117
448.675	113
448.896	124
449.117	102
449.338	108
449.559	112
449.779	114
450	102
450.221	114
450.442	110
450.662	125
450.883	92
451.104	115
451.324	122
451.545	109
451.766	99
451.986	95
452.207	92
452.428	96
452.648	101
452.869	115
453.089	102
453.31	102
453.53	88
453.751	99
453.971	89
454.192	93
454.412	90
454.633	98
454.853	92
455.073	101
455.294	101
455.514	92
455.734	102
455.955	106
456.175	110
456.395	81
456.616	96
456.836	83
457.056	88
457.276	96
457.497	98
457.717	92
457.937	85
458.157	101
458.377	87
458.598	99
458.818	94
459.038	81
459.258	82
459.478	84
459.698	83
459.918	92
460.138	93
460.358	82
460.578	101
460.798	96
461.018	98
461.238	98
461.458	102
461.678	99
461.898	100
462.118	92
462.338	107
462.558	110
462.777	85
462.997	94
463.217	88
463.437	83
463.657	86
463.876	93
464.096	112
464.316	101
464.536	112
464.755	105
464.975	94
465.195	91
465.414	98
465.634	115
465.854	105
466.073	108
466.293	105
466.512	99
466.732	110
466.951	97
467.171	100
467.391	102
467.61	99
467.829	102
468.049	97
468.268	100
468.488	100
468.707	114
468.927	98
469.146	102
469.365	117
469.585	90
469.804	105
470.023	115
470.243	94
470.462	97
470.681	114
470.901	93
471.12	125
471.339	115
471.558	97
471.777	108
471.997	104
472.216	104
472.435	99
472.654	93
472.873	106
473.092	104
473.311	102
473.53	92
473.749	92
473.968	110
474.187	99
474.406	95
474.625	114
474.844	105
475.063	103
475.282	102
475.501	97
475.72	86
475.939	108
476.158	109
476.377	106
476.596	96
476.814	107
477.033	102
477.252	114
477.471	124
477.69	116
477.908	107
478.127	109
478.346	111
478.564	109
478.783	115
479.002	115
479.22	121
479.439	114
479.658	109
479.876	94
480.095	85
480.313	99
480.532	103
480.751	111
480.969	98
481.188	86
481.406	90
481.624	80
481.843	79
482.061	89
482.28	100
482.498	92
482.717	89
482.935	106
483.153	106
483.372	115
483.59	106
483.808	120
484.027	109
484.245	108
484.463	116
484.681	121
484.9	121
485.118	113
485.336	105
485.554	97
485.772	89
485.99	100
486.209	103
486.427	98
486.645	106
486.863	101
487.081	114
487.299	114
487.517	105
487.735	139
487.953	125
488.171	126
488.389	114
488.607	122
488.825	101
489.043	122
489.261	106
489.479	105
489.696	104
489.914	107
490.132	109
490.35	123
490.568	117
490.786	113
491.003	138
491.221	129
491.439	118
491.657	139
491.874	128
492.092	140
492.31	165
492.527	155
492.745	149
492.963	150
493.18	138
493.398	119
493.615	135
493.833	154
494.05	125
494.268	140
494.485	128
494.703	126
494.92	131
495.138	116
495.355	128
495.573	132
495.79	119
496.008	118
496.225	120
496.442	108
496.66	129
496.877	120
497.094	130
497.312	113
497.529	115
497.746	129
497.963	106
498.181	100
498.398	88
498.615	100
498.832	100
499.049	107
499.267	109
499.484	106
499.701	121
499.918	114
500.135	115
500.352	114
500.569	120
500.786	117
501.003	103
501.22	114
501.437	107
501.654	94
501.871	116
502.088	105
502.305	102
502.522	94
502.739	121
502.956	102
503.172	100
503.389	109
503.606	101
503.823	97
504.04	97
504.256	104
504.473	99
504.69	97
504.907	105
505.123	108
505.34	106
505.557	108
505.773	96
505.99	105
506.207	108
506.423	99
506.64	109
506.856	97
507.073	111
507.289	104
507.506	84
507.722	103
507.939	107
508.155	114
508.372	104
508.588	99
508.805	98
509.021	93
509.238	92
509.454	91
509.67	96
509.887	107
510.103	91
510.319	91
510.536	90
510.752	77
510.968	88
511.184	86
511.401	72
511.617	90
511.833	86
512.049	73
512.265	98
512.481	82
512.698	86
512.914	86
513.13	89
513.346	80
513.562	97
513.778	88
513.994	83
514.21	100
514.426	81
514.642	83
514.858	76
515.074	88
515.29	93
515.506	81
515.721	86
515.937	92
516.153	81
516.369	91
516.585	78
516.801	89
517.016	93
517.232	103
517.448	92
517.664	85
517.879	88
518.095	87
518.311	88
518.527	71
518.742	92
518.958	106
519.173	92
519.389	78
519.605	106
519.82	97
520.036	96
520.251	93
520.467	103
520.682	86
520.898	100
521.113	81
521.329	72
521.544	90
521.76	81
521.975	80
522.19	80
522.406	96
522.621	102
522.836	81
523.052	98
523.267	95
523.482	86
523.698	102
523.913	98
524.128	107
524.343	100
524.559	113
524.774	100
524.989	101
525.204	106
525.419	102
525.634	89
525.849	108
526.064	105
526.28	101
526.495	90
526.71	88
526.925	87
527.14	79
527.355	83
527.57	76
527.785	84
527.999	87
528.214	101
528.429	93
528.644	113
528.859	99
529.074	100
529.289	110
529.503	115
529.718	120
529.933	113
530.148	82
530.363	96
530.577	91
530.792	88
531.007	69
531.221	87
531.436	92
531.651	87
531.865	86
532.08	75
532.295	75
532.509	85
532.724	85
532.938	77
533.153	100
533.367	97
533.582	88
533.796	107
534.011	120
534.225	82
534.44	79
534.654	91
534.868	86
535.083	89
535.297	97
535.511	99
535.726	98
535.94	99
536.154	70
536.369	90
536.583	94
536.797	82
537.011	81
537.225	86
537.44	93
537.654	94
537.868	98
538.082	97
538.296	97
538.51	97
538.724	108
538.938	101
539.153	103
539.367	105
539.581	102
539.795	91
540.009	97
540.222	75
540.436	95
540.65	90
540.864	102
541.078	109
541.292	114
541.506	120
541.72	116
541.934	140
542.147	136
542.361	124
542.575	129
542.789	114
543.002	116
543.216	89
543.43	101
543.644	112
543.857	104
544.071	110
544.285	125
544.498	107
544.712	125
544.925	122
545.139	110
545.352	112
545.566	118
545.779	115
545.993	123
546.206	131
546.42	123
546.633	122
546.847	122
547.06	123
547.274	125
547.487	111
547.7	124
547.914	122
548.127	137
548.34	110
548.554	123
548.767	132
548.98	123
549.193	106
549.407	118
549.62	123
549.833	112
550.046	117
550.259	123
550.473	125
550.686	128
550.899	118
551.112	116
551.325	102
551.538	98
551.751	103
551.964	88
552.177	99
552.39	100
552.603	120
552.816	118
553.029	122
553.242	131
553.455	119
553.667	120
553.88	117
554.093	113
554.306	113
554.519	120
554.732	130
554.944	118
555.157	112
555.37	124
555.583	102
555.795	126
556.008	114
556.221	103
556.433	117
556.646	113
556.859	100
557.071	110
557.284	101
557.496	106
557.709	129
557.921	110
558.134	110
558.346	125
558.559	120
558.771	112
558.984	112
559.196	106
559.409	104
559.621	97
559.833	105
560.046	104
560.258	100
560.47	96
560.683	113
560.895	100
561.107	106
561.32	114
561.532	111
561.744	116
561.956	105
562.168	112
562.381	114
562.593	102
562.805	110
563.017	94
563.229	117
563.441	110
563.653	101
563.865	104
564.077	115
564.289	114
564.501	93
564.713	100
564.925	91
565.137	91
565.349	106
565.561	105
565.773	105
565.985	99
566.197	117
566.408	107
566.62	84
566.832	98
567.044	100
567.255	114
567.467	109
567.679	105
567.891	103
568.102	90
568.314	100
568.526	96
568.737	89
568.949	78
569.161	78
569.372	88
569.584	81
569.795	98
570.007	80
570.218	89
570.43	83
570.641	97
570.853	90
571.064	91
571.276	82
571.487	75
571.698	82
571.91	96
572.121	82
572.333	85
572.544	96
572.755	87
572.966	99
573.178	87
573.389	85
573.6	83
573.811	77
574.023	82
574.234	93
574.445	79
574.656	96
574.867	93
575.078	80
575.289	102
575.501	79
575.712	84
575.923	106
576.134	62
576.345	80
576.556	87
576.767	81
576.978	98
577.188	99
577.399	91
577.61	78
577.821	90
578.032	77
578.243	76
578.454	89
578.665	112
578.875	92
579.086	81
579.297	72
579.508	79
579.718	86
579.929	81
580.14	60
580.35	85
580.561	88
580.772	86
580.982	91
581.193	98
581.403	95
581.614	94
581.825	86
582.035	90
582.246	98
582.456	85
582.667	72
582.877	87
583.087	85
583.298	75
583.508	84
583.719	81
583.929	75
584.139	86
584.35	83
584.56	89
584.77	83
584.981	78
585.191	85
585.401	90
585.611	72
585.821	78
586.032	97
586.242	85
586.452	84
586.662	96
586.872	88
587.082	91
587.292	79
587.502	86
587.713	92
587.923	86
588.133	77
588.343	93
588.553	89
588.762	85
588.972	78
589.182	77
589.392	87
589.602	75
589.812	93
590.022	79
590.232	74
590.441	90
590.651	79
590.861	75
591.071	83
591.281	91
591.49	76
591.7	78
591.91	96
592.119	82
592.329	89
592.539	77
592.748	89
592.958	88
593.167	77
593.377	85
593.587	86
593.796	86
594.006	81
594.215	91
594.424	92
594.634	93
594.843	96
595.053	80
595.262	87
595.472	101
595.681	83
595.89	86
596.1	81
596.309	77
596.518	88
596.727	89
596.937	85
597.146	89
597.355	85
597.564	89
597.774	108
597.983	87
598.192	85
598.401	86
598.61	88
598.819	74
599.028	81
599.237	92
599.446	82
599.655	82
599.864	88
600.073	88
600.282	96
600.491	93
600.7	82
600.909	92
601.118	95
601.327	98
601.536	93
601.745	93
601.953	98
602.162	122
602.371	91
602.58	96
602.789	92
602.997	106
603.206	105
603.415	99
603.623	102
603.832	105
604.041	85
604.249	85
604.458	86
604.666	86
604.875	99
605.084	94
605.292	90
605.501	88
605.709	89
605.918	92
606.126	100
606.334	103
606.543	100
606.751	98
606.96	101
607.168	84
607.376	101
607.585	97
607.793	91
608.001	95
608.21	103
608.418	104
608.626	103
608.834	100
609.043	99
609.251	101
609.459	93
609.667	95
609.875	102
610.083	101
610.291	94
610.499	96
610.707	86
610.916	99
611.124	97
611.332	96
611.54	98
611.748	98
611.955	96
612.163	75
612.371	86
612.579	105
612.787	103
612.995	99
613.203	100
613.411	96
613.618	93
613.826	107
614.034	111
614.242	86
614.449	87
614.657	102
614.865	84
615.072	91
615.28	90
615.488	96
615.695	100
615.903	87
616.111	89
616.318	113
616.526	101
616.733	95
616.941	92
617.148	106
617.356	109
617.563	109
617.771	93
617.978	101
618.185	87
618.393	102
618.6	90
618.807	89
619.015	97
619.222	107
619.429	94
619.637	102
619.844	92
620.051	79
620.258	87
620.466	81
620.673	101
620.88	93
621.087	98
621.294	95
621.501	80
621.708	86
621.915	91
622.122	97
622.329	99
622.536	92
622.743	86
622.95	86
623.157	102
623.364	92
623.571	101
623.778	88
623.985	102
624.192	88
624.399	91
624.606	85
624.812	102
625.019	103
625.226	89
625.433	96
625.639	88
625.846	106
626.053	103
626.259	86
626.466	96
626.673	92
626.879	96
627.086	107
627.293	81
627.499	85
627.706	108
627.912	88
628.119	83
628.325	99
628.532	90
628.738	100
628.945	101
629.151	94
629.357	84
629.564	86
629.77	102
629.976	73
630.183	84
630.389	86
630.595	90
630.802	90
631.008	102
631.214	100
631.42	88
631.627	85
631.833	109
632.039	86
632.245	96
632.451	71
632.657	87
632.863	94
633.069	90
633.275	99
633.481	77
633.688	93
633.893	92
634.099	99
634.305	99
634.511	98
634.717	90
634.923	87
635.129	100
635.335	76
635.541	84
635.747	88
635.952	104
636.158	96
636.364	105
636.57	99
636.775	93
636.981	94
637.187	82
637.392	92
637.598	93
637.804	98
638.009	108
638.215	104
638.421	97
638.626	93
638.832	95
639.037	86
639.243	94
639.448	102
639.654	93
639.859	93
640.065	91
640.27	102
640.475	96
640.681	96
640.886	74
641.091	96
641.297	92
641.502	93
641.707	116
641.913	104
642.118	99
642.323	82
642.528	87
642.733	59
642.939	91
643.144	91
643.349	97
643.554	109
643.759	91
643.964	91
644.169	89
644.374	83
644.579	98
644.784	97
644.989	86
645.194	79
645.399	92
645.604	95
645.809	96
646.014	90
646.219	86
646.423	91
646.628	99
646.833	92
647.038	88
647.243	87
647.447	92
647.652	99
647.857	88
648.062	84
648.266	96
648.471	97
648.676	89
648.88	85
649.085	91
649.289	87
649.494	101
649.698	90
649.903	77
650.107	93
650.312	108
650.516	90
650.721	88
650.925	90
651.13	93
651.334	90
651.539	86
651.743	75
651.947	88
652.152	79
652.356	91
652.56	90
652.764	89
652.969	102
653.173	96
653.377	83
653.581	87
653.785	92
653.99	79
654.194	90
654.398	81
654.602	88
654.806	96
655.01	90
655.214	77
655.418	86
655.622	76
655.826	85
656.03	92
656.234	87
656.438	85
656.642	94
656.846	85
657.049	86
657.253	78
657.457	75
657.661	86
657.865	92
658.068	102
658.272	92
658.476	98
658.68	83
658.883	95
659.087	83
659.291	78
659.494	87
659.698	100
659.901	86
660.105	94
660.309	89
660.512	85
660.716	81
660.919	89
661.123	103
661.326	86
661.53	79
661.733	96
661.936	85
662.14	82
662.343	88
662.546	74
662.75	88
662.953	71
663.156	79
663.36	99
663.563	83
663.766	75
663.969	84
664.173	77
664.376	86
664.579	81
664.782	77
664.985	73
665.188	80
665.391	73
665.594	98
665.797	90
666	77
666.203	78
666.406	84
666.609	88
666.812	84
667.015	92
667.218	89
667.421	92
667.624	87
667.827	82
668.03	89
668.232	89
668.435	82
668.638	76
668.841	105
669.043	89
669.246	81
669.449	91
669.651	95
669.854	77
670.057	84
670.259	90
670.462	70
670.665	91
670.867	86
671.07	86
671.272	91
671.475	90
671.677	105
671.88	85
672.082	79
672.284	78
672.487	84
672.689	80
672.892	87
