Data from Zn(NO3)2Standard.Agarose3%.GreenCap.LampEnergy5.5.E.O_HRD10591_15-01-19-768.txt Node
Date: Mon Jul 22 15:01:19 EDT 2019
User: cochatt
Spectrometer: HR+D1059
Trigger mode: 1
Integration Time (sec): 1.000000E-1
Scans to average: 1
Electric dark correction enabled: true
Nonlinearity correction enabled: false
Boxcar width: 0
XAxis mode: Wavelengths
Number of Pixels in Spectrum: 2048
>>>>>Begin Spectral Data<<<<<
223.165	-22
223.4	-22
223.635	-22
223.869	-21
224.104	-14
224.338	-21
224.573	6
224.808	-5
225.042	-13
225.277	1
225.511	0
225.746	-2
225.98	10
226.215	13
226.449	17
226.683	17
226.918	23
227.152	11
227.387	38
227.621	32
227.856	41
228.09	44
228.324	48
228.559	53
228.793	62
229.027	73
229.262	67
229.496	67
229.73	63
229.964	83
230.199	76
230.433	87
230.667	68
230.901	73
231.136	82
231.37	72
231.604	74
231.838	74
232.072	82
232.306	89
232.541	88
232.775	68
233.009	101
233.243	64
233.477	83
233.711	84
233.945	81
234.179	84
234.413	74
234.647	65
234.881	86
235.115	75
235.349	77
235.583	77
235.817	70
236.051	74
236.285	86
236.519	78
236.753	82
236.987	84
237.221	80
237.455	79
237.689	78
237.922	75
238.156	71
238.39	66
238.624	68
238.858	67
239.091	74
239.325	76
239.559	66
239.793	70
240.027	78
240.26	85
240.494	90
240.728	73
240.961	77
241.195	76
241.429	79
241.662	72
241.896	70
242.13	74
242.363	70
242.597	87
242.83	71
243.064	80
243.298	88
243.531	71
243.765	73
243.998	77
244.232	81
244.465	66
244.699	89
244.932	83
245.166	72
245.399	84
245.633	72
245.866	84
246.099	73
246.333	89
246.566	71
246.8	84
247.033	67
247.266	78
247.5	75
247.733	85
247.966	78
248.2	91
248.433	72
248.666	78
248.899	84
249.133	83
249.366	64
249.599	84
249.832	81
250.066	78
250.299	81
250.532	70
250.765	72
250.998	77
251.231	66
251.465	76
251.698	90
251.931	88
252.164	66
252.397	84
252.63	99
252.863	79
253.096	81
253.329	81
253.562	75
253.795	93
254.028	75
254.261	85
254.494	83
254.727	82
254.96	85
255.193	92
255.426	73
255.659	70
255.892	75
256.124	67
256.357	76
256.59	86
256.823	72
257.056	81
257.289	65
257.521	72
257.754	75
257.987	75
258.22	99
258.452	75
258.685	78
258.918	88
259.151	91
259.383	82
259.616	90
259.849	77
260.081	82
260.314	88
260.547	84
260.779	72
261.012	88
261.244	81
261.477	86
261.71	73
261.942	93
262.175	73
262.407	94
262.64	79
262.872	77
263.105	80
263.337	89
263.57	77
263.802	79
264.035	81
264.267	88
264.499	85
264.732	95
264.964	80
265.197	82
265.429	93
265.661	89
265.894	64
266.126	90
266.358	85
266.591	76
266.823	73
267.055	74
267.287	83
267.52	70
267.752	81
267.984	81
268.216	91
268.448	85
268.681	89
268.913	73
269.145	99
269.377	84
269.609	70
269.841	87
270.073	73
270.306	104
270.538	84
270.77	84
271.002	74
271.234	91
271.466	74
271.698	91
271.93	72
272.162	82
272.394	82
272.626	92
272.858	85
273.09	75
273.322	72
273.553	88
273.785	86
274.017	93
274.249	73
274.481	68
274.713	66
274.945	88
275.176	82
275.408	76
275.64	91
275.872	102
276.104	75
276.335	95
276.567	83
276.799	81
277.031	85
277.262	89
277.494	101
277.726	77
277.957	77
278.189	82
278.421	76
278.652	91
278.884	78
279.115	77
279.347	88
279.579	86
279.81	85
280.042	87
280.273	79
280.505	69
280.736	66
280.968	85
281.199	76
281.431	96
281.662	82
281.894	68
282.125	90
282.356	87
282.588	80
282.819	83
283.051	83
283.282	83
283.513	83
283.745	77
283.976	85
284.207	86
284.439	84
284.67	83
284.901	89
285.132	96
285.364	89
285.595	82
285.826	106
286.057	88
286.288	76
286.52	71
286.751	88
286.982	90
287.213	83
287.444	72
287.675	97
287.906	85
288.138	77
288.369	93
288.6	86
288.831	85
289.062	90
289.293	75
289.524	65
289.755	79
289.986	84
290.217	81
290.448	70
290.679	88
290.91	99
291.141	87
291.371	84
291.602	95
291.833	75
292.064	99
292.295	76
292.526	78
292.757	89
292.987	89
293.218	93
293.449	86
293.68	97
293.91	82
294.141	78
294.372	88
294.603	95
294.833	69
295.064	86
295.295	94
295.525	80
295.756	94
295.987	76
296.217	61
296.448	96
296.679	100
296.909	83
297.14	86
297.37	83
297.601	84
297.831	93
298.062	75
298.292	60
298.523	98
298.753	83
298.984	77
299.214	72
299.445	77
299.675	78
299.905	81
300.136	86
300.366	83
300.597	68
300.827	92
301.057	72
301.288	81
301.518	78
301.748	82
301.979	71
302.209	79
302.439	86
302.669	98
302.9	71
303.13	79
303.36	93
303.59	86
303.82	61
304.051	78
304.281	89
304.511	83
304.741	78
304.971	80
305.201	64
305.431	80
305.661	77
305.891	65
306.121	85
306.352	86
306.582	87
306.812	70
307.042	86
307.272	92
307.502	75
307.731	78
307.961	70
308.191	86
308.421	78
308.651	101
308.881	100
309.111	92
309.341	75
309.571	83
309.8	76
310.03	84
310.26	84
310.49	75
310.72	71
310.949	74
311.179	85
311.409	81
311.639	72
311.868	92
312.098	75
312.328	83
312.557	76
312.787	87
313.017	85
313.246	84
313.476	79
313.706	76
313.935	100
314.165	86
314.394	79
314.624	75
314.853	92
315.083	85
315.312	86
315.542	83
315.771	80
316.001	101
316.23	70
316.46	77
316.689	75
316.919	81
317.148	82
317.377	92
317.607	85
317.836	84
318.065	70
318.295	88
318.524	86
318.753	91
318.983	88
319.212	84
319.441	82
319.67	73
319.9	88
320.129	73
320.358	91
320.587	88
320.816	105
321.046	91
321.275	90
321.504	75
321.733	93
321.962	79
322.191	81
322.42	77
322.649	92
322.878	74
323.108	82
323.337	82
323.566	93
323.795	87
324.024	90
324.253	88
324.482	92
324.71	80
324.939	84
325.168	88
325.397	85
325.626	87
325.855	76
326.084	80
326.313	84
326.542	78
326.77	94
326.999	84
327.228	86
327.457	83
327.686	80
327.914	82
328.143	84
328.372	90
328.6	85
328.829	84
329.058	100
329.287	90
329.515	89
329.744	95
329.972	83
330.201	84
330.43	89
330.658	91
330.887	77
331.115	80
331.344	94
331.572	81
331.801	79
332.03	92
332.258	82
332.486	84
332.715	82
332.943	75
333.172	98
333.4	78
333.629	97
333.857	94
334.085	72
334.314	91
334.542	79
334.771	89
334.999	72
335.227	87
335.455	83
335.684	85
335.912	89
336.14	82
336.369	77
336.597	92
336.825	88
337.053	87
337.281	76
337.51	80
337.738	92
337.966	83
338.194	84
338.422	76
338.65	89
338.878	91
339.106	96
339.334	103
339.562	83
339.79	82
340.018	76
340.246	65
340.474	84
340.702	92
340.93	79
341.158	98
341.386	92
341.614	84
341.842	87
342.07	85
342.298	86
342.526	76
342.754	81
342.981	75
343.209	97
343.437	89
343.665	83
343.893	93
344.12	78
344.348	80
344.576	63
344.804	91
345.031	80
345.259	89
345.487	80
345.714	78
345.942	74
346.17	80
346.397	85
346.625	86
346.853	82
347.08	82
347.308	93
347.535	78
347.763	60
347.99	80
348.218	85
348.445	94
348.673	76
348.9	95
349.128	89
349.355	82
349.583	94
349.81	77
350.037	80
350.265	83
350.492	89
350.72	97
350.947	86
351.174	75
351.402	87
351.629	99
351.856	97
352.083	91
352.311	97
352.538	88
352.765	81
352.992	90
353.22	84
353.447	72
353.674	75
353.901	65
354.128	96
354.355	84
354.583	77
354.81	75
355.037	69
355.264	70
355.491	84
355.718	86
355.945	88
356.172	74
356.399	81
356.626	80
356.853	94
357.08	86
357.307	86
357.534	84
357.761	91
357.988	86
358.215	93
358.441	82
358.668	89
358.895	85
359.122	86
359.349	87
359.576	84
359.802	82
360.029	85
360.256	90
360.483	78
360.709	86
360.936	84
361.163	84
361.39	85
361.616	89
361.843	80
362.07	73
362.296	86
362.523	87
362.749	92
362.976	60
363.203	90
363.429	88
363.656	78
363.882	80
364.109	82
364.335	87
364.562	90
364.788	83
365.015	87
365.241	102
365.468	88
365.694	84
365.92	75
366.147	80
366.373	83
366.599	81
366.826	82
367.052	82
367.278	74
367.505	88
367.731	86
367.957	93
368.184	88
368.41	72
368.636	71
368.862	75
369.089	95
369.315	68
369.541	86
369.767	99
369.993	87
370.219	69
370.445	79
370.672	89
370.898	85
371.124	79
371.35	84
371.576	76
371.802	88
372.028	87
372.254	97
372.48	85
372.706	78
372.932	64
373.158	73
373.384	94
373.61	76
373.835	80
374.061	78
374.287	74
374.513	88
374.739	95
374.965	90
375.191	71
375.416	86
375.642	88
375.868	88
376.094	78
376.319	87
376.545	85
376.771	64
376.997	80
377.222	81
377.448	89
377.674	96
377.899	91
378.125	81
378.35	80
378.576	81
378.802	81
379.027	81
379.253	92
379.478	94
379.704	85
379.929	77
380.155	73
380.38	93
380.606	77
380.831	85
381.057	92
381.282	85
381.507	81
381.733	91
381.958	74
382.184	73
382.409	79
382.634	99
382.86	81
383.085	87
383.31	95
383.535	90
383.761	105
383.986	93
384.211	82
384.436	70
384.662	85
384.887	77
385.112	82
385.337	82
385.562	84
385.787	85
386.013	90
386.238	78
386.463	68
386.688	82
386.913	87
387.138	82
387.363	94
387.588	73
387.813	83
388.038	85
388.263	93
388.488	83
388.713	93
388.938	71
389.163	84
389.387	68
389.612	88
389.837	80
390.062	91
390.287	92
390.512	85
390.736	87
390.961	74
391.186	72
391.411	100
391.636	100
391.86	69
392.085	96
392.31	79
392.534	84
392.759	93
392.984	72
393.208	93
393.433	77
393.658	90
393.882	82
394.107	96
394.331	93
394.556	78
394.78	93
395.005	85
395.229	96
395.454	86
395.678	85
395.903	83
396.127	86
396.352	89
396.576	80
396.801	78
397.025	70
397.249	81
397.474	83
397.698	88
397.922	73
398.147	90
398.371	82
398.595	79
398.82	79
399.044	83
399.268	76
399.492	90
399.717	78
399.941	67
400.165	86
400.389	94
400.613	78
400.837	83
401.062	88
401.286	103
401.51	86
401.734	80
401.958	82
402.182	72
402.406	89
402.63	76
402.854	89
403.078	80
403.302	77
403.526	82
403.75	79
403.974	83
404.198	89
404.422	89
404.645	87
404.869	85
405.093	69
405.317	87
405.541	95
405.765	93
405.988	85
406.212	90
406.436	78
406.66	78
406.883	98
407.107	76
407.331	89
407.555	91
407.778	98
408.002	83
408.226	99
408.449	86
408.673	94
408.896	86
409.12	86
409.344	87
409.567	91
409.791	81
410.014	84
410.238	77
410.461	67
410.685	72
410.908	78
411.132	82
411.355	82
411.578	88
411.802	78
412.025	79
412.249	77
412.472	86
412.695	102
412.919	90
413.142	84
413.365	75
413.589	82
413.812	89
414.035	87
414.258	71
414.482	81
414.705	72
414.928	80
415.151	91
415.374	98
415.597	74
415.821	89
416.044	83
416.267	84
416.49	103
416.713	100
416.936	84
417.159	78
417.382	82
417.605	89
417.828	73
418.051	88
418.274	98
418.497	96
418.72	78
418.943	84
419.166	90
419.389	107
419.611	78
419.834	93
420.057	85
420.28	110
420.503	80
420.726	106
420.948	89
421.171	84
421.394	94
421.617	73
421.839	94
422.062	100
422.285	94
422.507	88
422.73	98
422.953	101
423.175	98
423.398	97
423.621	88
423.843	93
424.066	94
424.288	84
424.511	80
424.733	92
424.956	97
425.178	99
425.401	95
425.623	85
425.846	90
426.068	83
426.291	97
426.513	96
426.735	86
426.958	94
427.18	84
427.402	81
427.625	89
427.847	92
428.069	74
428.292	81
428.514	85
428.736	94
428.958	78
429.181	97
429.403	92
429.625	86
429.847	99
430.069	81
430.292	94
430.514	100
430.736	83
430.958	86
431.18	89
431.402	91
431.624	102
431.846	82
432.068	82
432.29	80
432.512	105
432.734	87
432.956	85
433.178	105
433.4	79
433.622	91
433.844	101
434.066	88
434.287	86
434.509	86
434.731	93
434.953	84
435.175	92
435.397	81
435.618	82
435.84	78
436.062	84
436.284	71
436.505	80
436.727	75
436.949	90
437.17	105
437.392	81
437.614	89
437.835	80
438.057	80
438.278	92
438.5	67
438.721	92
438.943	107
439.165	94
439.386	103
439.608	91
439.829	92
440.05	92
440.272	87
440.493	94
440.715	80
440.936	89
441.158	96
441.379	79
441.6	78
441.822	76
442.043	98
442.264	95
442.486	87
442.707	92
442.928	96
443.149	98
443.371	99
443.592	84
443.813	105
444.034	88
444.255	68
444.476	87
444.698	85
444.919	100
445.14	190
445.361	128
445.582	84
445.803	105
446.024	88
446.245	91
446.466	84
446.687	86
446.908	90
447.129	99
447.35	91
447.571	93
447.792	92
448.013	81
448.234	88
448.455	91
448.675	97
448.896	76
449.117	94
449.338	77
449.559	75
449.779	89
450	84
450.221	85
450.442	93
450.662	100
450.883	88
451.104	105
451.324	91
451.545	70
451.766	90
451.986	72
452.207	90
452.428	93
452.648	92
452.869	88
453.089	90
453.31	96
453.53	90
453.751	82
453.971	83
454.192	86
454.412	86
454.633	101
454.853	100
455.073	86
455.294	91
455.514	90
455.734	72
455.955	75
456.175	94
456.395	84
456.616	92
456.836	92
457.056	90
457.276	87
457.497	72
457.717	89
457.937	92
458.157	84
458.377	88
458.598	82
458.818	89
459.038	88
459.258	88
459.478	94
459.698	83
459.918	87
460.138	93
460.358	86
460.578	89
460.798	87
461.018	95
461.238	92
461.458	81
461.678	85
461.898	76
462.118	84
462.338	90
462.558	76
462.777	87
462.997	77
463.217	76
463.437	76
463.657	77
463.876	86
464.096	90
464.316	90
464.536	87
464.755	82
464.975	83
465.195	88
465.414	85
465.634	79
465.854	85
466.073	84
466.293	75
466.512	91
466.732	90
466.951	87
467.171	99
467.391	98
467.61	81
467.829	99
468.049	94
468.268	107
468.488	89
468.707	92
468.927	93
469.146	93
469.365	81
469.585	90
469.804	79
470.023	100
470.243	82
470.462	85
470.681	91
470.901	75
471.12	97
471.339	83
471.558	108
471.777	82
471.997	82
472.216	86
472.435	104
472.654	109
472.873	96
473.092	88
473.311	97
473.53	77
473.749	86
473.968	90
474.187	85
474.406	82
474.625	103
474.844	88
475.063	91
475.282	90
475.501	100
475.72	96
475.939	84
476.158	90
476.377	81
476.596	77
476.814	85
477.033	91
477.252	99
477.471	88
477.69	83
477.908	83
478.127	95
478.346	105
478.564	86
478.783	93
479.002	93
479.22	93
479.439	87
479.658	91
479.876	85
480.095	91
480.313	102
480.532	81
480.751	94
480.969	89
481.188	78
481.406	80
481.624	89
481.843	73
482.061	81
482.28	90
482.498	91
482.717	82
482.935	89
483.153	105
483.372	102
483.59	85
483.808	94
484.027	92
484.245	74
484.463	89
484.681	102
484.9	99
485.118	89
485.336	88
485.554	84
485.772	89
485.99	87
486.209	81
486.427	97
486.645	91
486.863	81
487.081	93
487.299	90
487.517	78
487.735	98
487.953	116
488.171	104
488.389	105
488.607	97
488.825	92
489.043	80
489.261	100
489.479	103
489.696	84
489.914	105
490.132	99
490.35	108
490.568	98
490.786	94
491.003	87
491.221	86
491.439	95
491.657	84
491.874	104
492.092	112
492.31	97
492.527	121
492.745	110
492.963	104
493.18	98
493.398	102
493.615	97
493.833	106
494.05	104
494.268	97
494.485	101
494.703	107
494.92	100
495.138	107
495.355	105
495.573	111
495.79	106
496.008	113
496.225	98
496.442	98
496.66	93
496.877	102
497.094	106
497.312	94
497.529	104
497.746	103
497.963	107
498.181	82
498.398	86
498.615	85
498.832	90
499.049	76
499.267	95
499.484	95
499.701	89
499.918	96
500.135	91
500.352	107
500.569	89
500.786	88
501.003	100
501.22	94
501.437	86
501.654	87
501.871	88
502.088	88
502.305	86
502.522	84
502.739	89
502.956	93
503.172	91
503.389	89
503.606	97
503.823	86
504.04	94
504.256	84
504.473	88
504.69	87
504.907	102
505.123	83
505.34	89
505.557	90
505.773	95
505.99	93
506.207	105
506.423	93
506.64	92
506.856	84
507.073	99
507.289	89
507.506	81
507.722	86
507.939	95
508.155	82
508.372	78
508.588	96
508.805	86
509.021	101
509.238	94
509.454	92
509.67	90
509.887	81
510.103	87
510.319	89
510.536	90
510.752	82
510.968	89
511.184	84
511.401	91
511.617	96
511.833	82
512.049	86
512.265	81
512.481	88
512.698	86
512.914	77
513.13	87
513.346	88
513.562	88
513.778	79
513.994	76
514.21	91
514.426	90
514.642	78
514.858	88
515.074	77
515.29	86
515.506	90
515.721	87
515.937	78
516.153	70
516.369	80
516.585	102
516.801	73
517.016	79
517.232	83
517.448	85
517.664	87
517.879	85
518.095	96
518.311	77
518.527	93
518.742	81
518.958	91
519.173	102
519.389	93
519.605	88
519.82	92
520.036	85
520.251	83
520.467	90
520.682	87
520.898	96
521.113	87
521.329	72
521.544	80
521.76	81
521.975	86
522.19	88
522.406	91
522.621	85
522.836	97
523.052	81
523.267	76
523.482	82
523.698	88
523.913	85
524.128	92
524.343	86
524.559	94
524.774	89
524.989	89
525.204	93
525.419	75
525.634	84
525.849	88
526.064	97
526.28	84
526.495	84
526.71	75
526.925	75
527.14	96
527.355	76
527.57	93
527.785	89
527.999	84
528.214	99
528.429	86
528.644	89
528.859	91
529.074	97
529.289	117
529.503	110
529.718	88
529.933	99
530.148	96
530.363	85
530.577	92
530.792	77
531.007	87
531.221	90
531.436	82
531.651	77
531.865	87
532.08	83
532.295	85
532.509	81
532.724	90
532.938	98
533.153	79
533.367	82
533.582	91
533.796	92
534.011	80
534.225	82
534.44	82
534.654	89
534.868	73
535.083	87
535.297	84
535.511	85
535.726	97
535.94	86
536.154	85
536.369	91
536.583	86
536.797	91
537.011	80
537.225	86
537.44	94
537.654	74
537.868	76
538.082	93
538.296	98
538.51	86
538.724	88
538.938	97
539.153	95
539.367	87
539.581	91
539.795	90
540.009	88
540.222	74
540.436	86
540.65	92
540.864	85
541.078	100
541.292	99
541.506	82
541.72	85
541.934	89
542.147	102
542.361	98
542.575	93
542.789	94
543.002	88
543.216	91
543.43	98
543.644	78
543.857	101
544.071	96
544.285	118
544.498	106
544.712	94
544.925	105
545.139	93
545.352	91
545.566	101
545.779	97
545.993	94
546.206	91
546.42	98
546.633	108
546.847	98
547.06	95
547.274	90
547.487	104
547.7	100
547.914	93
548.127	92
548.34	99
548.554	94
548.767	92
548.98	92
549.193	99
549.407	98
549.62	94
549.833	107
550.046	93
550.259	101
550.473	93
550.686	107
550.899	92
551.112	92
551.325	88
551.538	93
551.751	90
551.964	109
552.177	99
552.39	95
552.603	92
552.816	93
553.029	104
553.242	94
553.455	84
553.667	100
553.88	107
554.093	96
554.306	96
554.519	109
554.732	92
554.944	97
555.157	83
555.37	97
555.583	90
555.795	96
556.008	94
556.221	87
556.433	91
556.646	98
556.859	93
557.071	108
557.284	98
557.496	82
557.709	101
557.921	91
558.134	87
558.346	95
558.559	105
558.771	99
558.984	98
559.196	87
559.409	100
559.621	84
559.833	83
560.046	91
560.258	97
560.47	85
560.683	88
560.895	88
561.107	97
561.32	91
561.532	92
561.744	98
561.956	89
562.168	87
562.381	104
562.593	78
562.805	85
563.017	86
563.229	84
563.441	92
563.653	98
563.865	91
564.077	98
564.289	93
564.501	89
564.713	73
564.925	84
565.137	94
565.349	87
565.561	102
565.773	76
565.985	98
566.197	87
566.408	92
566.62	99
566.832	89
567.044	88
567.255	80
567.467	90
567.679	86
567.891	89
568.102	97
568.314	86
568.526	97
568.737	78
568.949	93
569.161	90
569.372	82
569.584	88
569.795	86
570.007	88
570.218	81
570.43	87
570.641	96
570.853	95
571.064	84
571.276	84
571.487	86
571.698	85
571.91	88
572.121	85
572.333	85
572.544	83
572.755	72
572.966	78
573.178	81
573.389	92
573.6	73
573.811	80
574.023	82
574.234	88
574.445	75
574.656	93
574.867	81
575.078	96
575.289	88
575.501	89
575.712	86
575.923	89
576.134	87
576.345	82
576.556	101
576.767	84
576.978	91
577.188	96
577.399	79
577.61	84
577.821	98
578.032	80
578.243	77
578.454	85
578.665	85
578.875	84
579.086	85
579.297	96
579.508	84
579.718	77
579.929	96
580.14	90
580.35	66
580.561	77
580.772	101
580.982	89
581.193	80
581.403	84
581.614	99
581.825	91
582.035	102
582.246	81
582.456	78
582.667	86
582.877	78
583.087	84
583.298	90
583.508	84
583.719	75
583.929	78
584.139	75
584.35	82
584.56	76
584.77	93
584.981	85
585.191	88
585.401	77
585.611	75
585.821	83
586.032	81
586.242	98
586.452	99
586.662	93
586.872	80
587.082	87
587.292	96
587.502	91
587.713	82
587.923	88
588.133	74
588.343	94
588.553	94
588.762	109
588.972	83
589.182	76
589.392	92
589.602	84
589.812	94
590.022	78
590.232	71
590.441	86
590.651	84
590.861	79
591.071	94
591.281	81
591.49	75
591.7	85
591.91	84
592.119	83
592.329	96
592.539	72
592.748	77
592.958	92
593.167	83
593.377	86
593.587	72
593.796	86
594.006	77
594.215	93
594.424	88
594.634	76
594.843	81
595.053	93
595.262	89
595.472	90
595.681	91
595.89	68
596.1	89
596.309	87
596.518	80
596.727	92
596.937	89
597.146	78
597.355	86
597.564	81
597.774	90
597.983	87
598.192	86
598.401	67
598.61	84
598.819	82
599.028	97
599.237	86
599.446	70
599.655	80
599.864	81
600.073	90
600.282	90
600.491	90
600.7	86
600.909	69
601.118	86
601.327	80
601.536	84
601.745	77
601.953	92
602.162	88
602.371	87
602.58	84
602.789	83
602.997	94
603.206	91
603.415	85
603.623	77
603.832	85
604.041	84
604.249	83
604.458	99
604.666	82
604.875	86
605.084	76
605.292	88
605.501	97
605.709	94
605.918	84
606.126	89
606.334	90
606.543	94
606.751	94
606.96	93
607.168	80
607.376	83
607.585	90
607.793	78
608.001	91
608.21	88
608.418	88
608.626	82
608.834	92
609.043	89
609.251	81
609.459	91
609.667	99
609.875	82
610.083	77
610.291	88
610.499	90
610.707	85
610.916	98
611.124	90
611.332	108
611.54	90
611.748	96
611.955	89
612.163	88
612.371	90
612.579	92
612.787	88
612.995	90
613.203	91
613.411	90
613.618	97
613.826	82
614.034	90
614.242	88
614.449	80
614.657	88
614.865	81
615.072	79
615.28	85
615.488	80
615.695	79
615.903	87
616.111	90
616.318	80
616.526	86
616.733	76
616.941	96
617.148	91
617.356	75
617.563	96
617.771	78
617.978	81
618.185	86
618.393	87
618.6	75
618.807	91
619.015	97
619.222	86
619.429	92
619.637	82
619.844	80
620.051	75
620.258	77
620.466	86
620.673	90
620.88	84
621.087	88
621.294	99
621.501	96
621.708	79
621.915	100
622.122	73
622.329	92
622.536	104
622.743	82
622.95	67
623.157	90
623.364	85
623.571	87
623.778	78
623.985	91
624.192	83
624.399	78
624.606	100
624.812	77
625.019	102
625.226	86
625.433	88
625.639	94
625.846	84
626.053	99
626.259	89
626.466	93
626.673	89
626.879	77
627.086	93
627.293	85
627.499	89
627.706	82
627.912	83
628.119	84
628.325	81
628.532	75
628.738	72
628.945	81
629.151	92
629.357	78
629.564	78
629.77	86
629.976	85
630.183	76
630.389	94
630.595	86
630.802	80
631.008	89
631.214	70
631.42	78
631.627	87
631.833	82
632.039	83
632.245	75
632.451	89
632.657	91
632.863	88
633.069	71
633.275	77
633.481	69
633.688	89
633.893	89
634.099	89
634.305	78
634.511	100
634.717	91
634.923	81
635.129	90
635.335	90
635.541	94
635.747	79
635.952	97
636.158	91
636.364	89
636.57	90
636.775	84
636.981	100
637.187	80
637.392	82
637.598	82
637.804	104
638.009	86
638.215	88
638.421	103
638.626	95
638.832	81
639.037	92
639.243	87
639.448	92
639.654	90
639.859	90
640.065	99
640.27	82
640.475	76
640.681	103
640.886	70
641.091	92
641.297	86
641.502	92
641.707	89
641.913	83
642.118	85
642.323	86
642.528	86
642.733	75
642.939	79
643.144	94
643.349	97
643.554	94
643.759	94
643.964	89
644.169	72
644.374	77
644.579	89
644.784	84
644.989	72
645.194	90
645.399	82
645.604	87
645.809	74
646.014	95
646.219	96
646.423	91
646.628	63
646.833	90
647.038	77
647.243	74
647.447	92
647.652	80
647.857	84
648.062	87
648.266	94
648.471	73
648.676	71
648.88	87
649.085	76
649.289	98
649.494	92
649.698	94
649.903	80
650.107	89
650.312	68
650.516	95
650.721	80
650.925	89
651.13	76
651.334	75
651.539	73
651.743	82
651.947	89
652.152	79
652.356	93
652.56	93
652.764	85
652.969	73
653.173	101
653.377	83
653.581	80
653.785	84
653.99	71
654.194	94
654.398	84
654.602	88
654.806	80
655.01	91
655.214	77
655.418	78
655.622	89
655.826	89
656.03	92
656.234	76
656.438	83
656.642	84
656.846	84
657.049	93
657.253	83
657.457	97
657.661	50
657.865	89
658.068	86
658.272	79
658.476	73
658.68	74
658.883	76
659.087	78
659.291	79
659.494	80
659.698	83
659.901	80
660.105	92
660.309	89
660.512	73
660.716	89
660.919	78
661.123	73
661.326	69
661.53	83
661.733	77
661.936	77
662.14	90
662.343	75
662.546	68
662.75	77
662.953	90
663.156	75
663.36	76
663.563	80
663.766	85
663.969	84
664.173	88
664.376	78
664.579	79
664.782	79
664.985	92
665.188	81
665.391	86
665.594	75
665.797	82
666	92
666.203	95
666.406	83
666.609	73
666.812	65
667.015	91
667.218	68
667.421	76
667.624	93
667.827	90
668.03	77
668.232	71
668.435	72
668.638	75
668.841	96
669.043	91
669.246	92
669.449	90
669.651	84
669.854	76
670.057	101
670.259	86
670.462	101
670.665	78
670.867	78
671.07	87
671.272	76
671.475	99
671.677	85
671.88	92
672.082	83
672.284	73
672.487	89
672.689	91
672.892	72
