Data from Zn(NO3)2Standard.Agarose3%.GreenCap.LampEnergy5.5.E.O_HRD10591_15-02-09-767.txt Node
Date: Mon Jul 22 15:02:09 EDT 2019
User: cochatt
Spectrometer: HR+D1059
Trigger mode: 1
Integration Time (sec): 1.000000E-1
Scans to average: 1
Electric dark correction enabled: true
Nonlinearity correction enabled: false
Boxcar width: 0
XAxis mode: Wavelengths
Number of Pixels in Spectrum: 2048
>>>>>Begin Spectral Data<<<<<
223.165	-14
223.4	-14
223.635	-14
223.869	-6
224.104	-14
224.338	-16
224.573	-12
224.808	-14
225.042	-6
225.277	-8
225.511	-7
225.746	-6
225.98	11
226.215	1
226.449	26
226.683	13
226.918	22
227.152	30
227.387	34
227.621	29
227.856	41
228.09	55
228.324	40
228.559	39
228.793	37
229.027	54
229.262	58
229.496	72
229.73	74
229.964	64
230.199	70
230.433	80
230.667	71
230.901	70
231.136	73
231.37	66
231.604	73
231.838	68
232.072	66
232.306	83
232.541	76
232.775	85
233.009	80
233.243	75
233.477	82
233.711	87
233.945	90
234.179	72
234.413	76
234.647	73
234.881	77
235.115	79
235.349	69
235.583	77
235.817	80
236.051	65
236.285	90
236.519	79
236.753	78
236.987	65
237.221	62
237.455	69
237.689	55
237.922	69
238.156	74
238.39	77
238.624	69
238.858	74
239.091	79
239.325	55
239.559	61
239.793	79
240.027	77
240.26	83
240.494	79
240.728	73
240.961	68
241.195	70
241.429	76
241.662	64
241.896	80
242.13	87
242.363	81
242.597	64
242.83	75
243.064	61
243.298	69
243.531	70
243.765	80
243.998	66
244.232	78
244.465	78
244.699	55
244.932	74
245.166	67
245.399	56
245.633	77
245.866	60
246.099	70
246.333	79
246.566	83
246.8	77
247.033	82
247.266	64
247.5	88
247.733	77
247.966	73
248.2	80
248.433	65
248.666	75
248.899	84
249.133	80
249.366	81
249.599	65
249.832	87
250.066	80
250.299	64
250.532	73
250.765	82
250.998	86
251.231	64
251.465	78
251.698	70
251.931	68
252.164	79
252.397	57
252.63	72
252.863	77
253.096	68
253.329	80
253.562	83
253.795	74
254.028	81
254.261	86
254.494	79
254.727	84
254.96	76
255.193	84
255.426	81
255.659	80
255.892	69
256.124	81
256.357	74
256.59	71
256.823	80
257.056	70
257.289	64
257.521	74
257.754	82
257.987	67
258.22	79
258.452	81
258.685	76
258.918	84
259.151	84
259.383	89
259.616	71
259.849	93
260.081	80
260.314	79
260.547	72
260.779	92
261.012	68
261.244	88
261.477	78
261.71	71
261.942	86
262.175	69
262.407	89
262.64	80
262.872	80
263.105	72
263.337	81
263.57	75
263.802	76
264.035	71
264.267	69
264.499	80
264.732	64
264.964	69
265.197	75
265.429	72
265.661	77
265.894	78
266.126	85
266.358	80
266.591	87
266.823	64
267.055	71
267.287	94
267.52	71
267.752	78
267.984	78
268.216	71
268.448	86
268.681	84
268.913	82
269.145	101
269.377	84
269.609	82
269.841	71
270.073	73
270.306	74
270.538	66
270.77	76
271.002	78
271.234	86
271.466	87
271.698	86
271.93	74
272.162	80
272.394	79
272.626	85
272.858	60
273.09	82
273.322	87
273.553	73
273.785	70
274.017	86
274.249	76
274.481	66
274.713	87
274.945	72
275.176	77
275.408	85
275.64	89
275.872	85
276.104	69
276.335	73
276.567	81
276.799	89
277.031	87
277.262	83
277.494	87
277.726	91
277.957	71
278.189	77
278.421	80
278.652	92
278.884	92
279.115	80
279.347	83
279.579	72
279.81	82
280.042	75
280.273	86
280.505	82
280.736	72
280.968	87
281.199	71
281.431	81
281.662	82
281.894	90
282.125	75
282.356	85
282.588	77
282.819	81
283.051	80
283.282	81
283.513	83
283.745	89
283.976	72
284.207	78
284.439	74
284.67	87
284.901	77
285.132	78
285.364	82
285.595	70
285.826	81
286.057	86
286.288	58
286.52	65
286.751	92
286.982	71
287.213	76
287.444	97
287.675	71
287.906	93
288.138	77
288.369	80
288.6	74
288.831	92
289.062	83
289.293	71
289.524	75
289.755	90
289.986	72
290.217	82
290.448	74
290.679	64
290.91	92
291.141	80
291.371	91
291.602	84
291.833	73
292.064	90
292.295	91
292.526	87
292.757	86
292.987	75
293.218	74
293.449	78
293.68	80
293.91	92
294.141	81
294.372	90
294.603	90
294.833	94
295.064	81
295.295	75
295.525	74
295.756	73
295.987	66
296.217	77
296.448	73
296.679	75
296.909	82
297.14	83
297.37	88
297.601	87
297.831	84
298.062	83
298.292	86
298.523	86
298.753	87
298.984	89
299.214	76
299.445	76
299.675	79
299.905	83
300.136	67
300.366	70
300.597	77
300.827	76
301.057	90
301.288	91
301.518	82
301.748	66
301.979	81
302.209	70
302.439	74
302.669	88
302.9	85
303.13	67
303.36	93
303.59	88
303.82	80
304.051	87
304.281	71
304.511	69
304.741	93
304.971	81
305.201	75
305.431	90
305.661	80
305.891	80
306.121	92
306.352	81
306.582	75
306.812	94
307.042	84
307.272	86
307.502	83
307.731	80
307.961	90
308.191	65
308.421	89
308.651	82
308.881	80
309.111	74
309.341	82
309.571	88
309.8	78
310.03	75
310.26	89
310.49	101
310.72	79
310.949	80
311.179	88
311.409	85
311.639	93
311.868	71
312.098	90
312.328	84
312.557	75
312.787	86
313.017	69
313.246	82
313.476	88
313.706	86
313.935	93
314.165	79
314.394	81
314.624	85
314.853	85
315.083	82
315.312	88
315.542	102
315.771	88
316.001	75
316.23	77
316.46	82
316.689	76
316.919	86
317.148	75
317.377	86
317.607	97
317.836	95
318.065	72
318.295	81
318.524	98
318.753	70
318.983	79
319.212	82
319.441	85
319.67	80
319.9	78
320.129	77
320.358	86
320.587	79
320.816	79
321.046	70
321.275	96
321.504	89
321.733	101
321.962	81
322.191	74
322.42	76
322.649	91
322.878	83
323.108	86
323.337	80
323.566	84
323.795	72
324.024	88
324.253	90
324.482	92
324.71	83
324.939	87
325.168	81
325.397	79
325.626	81
325.855	97
326.084	89
326.313	95
326.542	77
326.77	86
326.999	82
327.228	75
327.457	98
327.686	74
327.914	84
328.143	99
328.372	98
328.6	86
328.829	73
329.058	75
329.287	68
329.515	75
329.744	78
329.972	83
330.201	65
330.43	79
330.658	69
330.887	88
331.115	84
331.344	69
331.572	77
331.801	74
332.03	77
332.258	81
332.486	65
332.715	74
332.943	72
333.172	80
333.4	80
333.629	87
333.857	85
334.085	77
334.314	93
334.542	82
334.771	98
334.999	72
335.227	82
335.455	82
335.684	100
335.912	92
336.14	60
336.369	59
336.597	73
336.825	77
337.053	84
337.281	90
337.51	83
337.738	77
337.966	76
338.194	73
338.422	82
338.65	79
338.878	80
339.106	80
339.334	81
339.562	73
339.79	88
340.018	78
340.246	73
340.474	77
340.702	82
340.93	82
341.158	87
341.386	92
341.614	68
341.842	71
342.07	86
342.298	83
342.526	80
342.754	78
342.981	93
343.209	71
343.437	79
343.665	86
343.893	83
344.12	87
344.348	78
344.576	82
344.804	81
345.031	83
345.259	82
345.487	78
345.714	78
345.942	74
346.17	82
346.397	78
346.625	72
346.853	77
347.08	84
347.308	73
347.535	72
347.763	80
347.99	69
348.218	73
348.445	80
348.673	73
348.9	77
349.128	89
349.355	72
349.583	93
349.81	74
350.037	81
350.265	82
350.492	86
350.72	74
350.947	82
351.174	96
351.402	73
351.629	82
351.856	75
352.083	89
352.311	71
352.538	84
352.765	64
352.992	69
353.22	80
353.447	81
353.674	76
353.901	78
354.128	89
354.355	76
354.583	80
354.81	71
355.037	80
355.264	78
355.491	77
355.718	82
355.945	79
356.172	89
356.399	75
356.626	82
356.853	78
357.08	70
357.307	68
357.534	68
357.761	73
357.988	98
358.215	84
358.441	91
358.668	83
358.895	83
359.122	89
359.349	86
359.576	66
359.802	80
360.029	83
360.256	84
360.483	98
360.709	78
360.936	76
361.163	78
361.39	73
361.616	83
361.843	82
362.07	89
362.296	82
362.523	87
362.749	90
362.976	77
363.203	83
363.429	78
363.656	81
363.882	69
364.109	83
364.335	75
364.562	94
364.788	77
365.015	95
365.241	62
365.468	76
365.694	71
365.92	100
366.147	78
366.373	72
366.599	76
366.826	81
367.052	90
367.278	77
367.505	86
367.731	92
367.957	78
368.184	80
368.41	75
368.636	78
368.862	81
369.089	67
369.315	78
369.541	68
369.767	75
369.993	84
370.219	74
370.445	72
370.672	78
370.898	66
371.124	89
371.35	94
371.576	93
371.802	86
372.028	73
372.254	93
372.48	76
372.706	62
372.932	74
373.158	81
373.384	84
373.61	74
373.835	90
374.061	81
374.287	88
374.513	77
374.739	73
374.965	83
375.191	77
375.416	71
375.642	95
375.868	74
376.094	85
376.319	85
376.545	86
376.771	71
376.997	82
377.222	80
377.448	79
377.674	74
377.899	85
378.125	77
378.35	69
378.576	80
378.802	74
379.027	86
379.253	75
379.478	78
379.704	65
379.929	66
380.155	81
380.38	76
380.606	74
380.831	77
381.057	78
381.282	75
381.507	76
381.733	74
381.958	89
382.184	75
382.409	86
382.634	79
382.86	85
383.085	83
383.31	75
383.535	70
383.761	80
383.986	81
384.211	64
384.436	97
384.662	74
384.887	80
385.112	94
385.337	78
385.562	82
385.787	84
386.013	81
386.238	94
386.463	82
386.688	87
386.913	72
387.138	85
387.363	73
387.588	78
387.813	85
388.038	78
388.263	69
388.488	74
388.713	67
388.938	87
389.163	82
389.387	81
389.612	79
389.837	65
390.062	76
390.287	78
390.512	87
390.736	90
390.961	98
391.186	82
391.411	72
391.636	74
391.86	79
392.085	82
392.31	103
392.534	80
392.759	74
392.984	80
393.208	84
393.433	72
393.658	84
393.882	76
394.107	80
394.331	74
394.556	87
394.78	81
395.005	70
395.229	84
395.454	79
395.678	81
395.903	78
396.127	85
396.352	90
396.576	67
396.801	87
397.025	80
397.249	77
397.474	75
397.698	81
397.922	75
398.147	84
398.371	77
398.595	83
398.82	75
399.044	85
399.268	76
399.492	74
399.717	89
399.941	77
400.165	84
400.389	78
400.613	81
400.837	81
401.062	72
401.286	80
401.51	80
401.734	63
401.958	77
402.182	81
402.406	68
402.63	73
402.854	88
403.078	65
403.302	82
403.526	97
403.75	94
403.974	77
404.198	91
404.422	92
404.645	83
404.869	88
405.093	78
405.317	78
405.541	80
405.765	78
405.988	73
406.212	81
406.436	84
406.66	79
406.883	82
407.107	74
407.331	84
407.555	79
407.778	79
408.002	84
408.226	78
408.449	81
408.673	82
408.896	78
409.12	89
409.344	79
409.567	78
409.791	89
410.014	85
410.238	96
410.461	86
410.685	82
410.908	85
411.132	78
411.355	75
411.578	79
411.802	72
412.025	85
412.249	80
412.472	80
412.695	68
412.919	78
413.142	82
413.365	76
413.589	71
413.812	74
414.035	97
414.258	91
414.482	83
414.705	79
414.928	87
415.151	88
415.374	82
415.597	88
415.821	79
416.044	77
416.267	86
416.49	80
416.713	77
416.936	99
417.159	83
417.382	76
417.605	79
417.828	85
418.051	84
418.274	94
418.497	87
418.72	92
418.943	83
419.166	81
419.389	67
419.611	77
419.834	77
420.057	86
420.28	82
420.503	80
420.726	79
420.948	92
421.171	74
421.394	93
421.617	80
421.839	91
422.062	92
422.285	87
422.507	86
422.73	84
422.953	80
423.175	70
423.398	72
423.621	71
423.843	79
424.066	100
424.288	81
424.511	77
424.733	73
424.956	72
425.178	85
425.401	81
425.623	95
425.846	88
426.068	92
426.291	85
426.513	89
426.735	92
426.958	84
427.18	73
427.402	75
427.625	88
427.847	88
428.069	87
428.292	93
428.514	76
428.736	70
428.958	88
429.181	87
429.403	80
429.625	93
429.847	102
430.069	86
430.292	101
430.514	82
430.736	73
430.958	91
431.18	69
431.402	78
431.624	84
431.846	74
432.068	84
432.29	77
432.512	79
432.734	92
432.956	88
433.178	85
433.4	91
433.622	74
433.844	96
434.066	77
434.287	73
434.509	97
434.731	84
434.953	84
435.175	77
435.397	78
435.618	85
435.84	89
436.062	76
436.284	87
436.505	90
436.727	86
436.949	74
437.17	90
437.392	71
437.614	72
437.835	82
438.057	78
438.278	66
438.5	80
438.721	74
438.943	79
439.165	80
439.386	95
439.608	84
439.829	88
440.05	87
440.272	94
440.493	74
440.715	70
440.936	95
441.158	97
441.379	91
441.6	81
441.822	102
442.043	91
442.264	83
442.486	83
442.707	98
442.928	88
443.149	82
443.371	72
443.592	92
443.813	86
444.034	86
444.255	86
444.476	79
444.698	103
444.919	79
445.14	244
445.361	139
445.582	87
445.803	101
446.024	75
446.245	101
446.466	84
446.687	87
446.908	84
447.129	96
447.35	89
447.571	81
447.792	88
448.013	93
448.234	84
448.455	89
448.675	93
448.896	78
449.117	96
449.338	71
449.559	79
449.779	84
450	99
450.221	73
450.442	93
450.662	79
450.883	81
451.104	77
451.324	95
451.545	79
451.766	101
451.986	92
452.207	84
452.428	83
452.648	93
452.869	73
453.089	87
453.31	82
453.53	82
453.751	77
453.971	80
454.192	75
454.412	81
454.633	75
454.853	80
455.073	79
455.294	80
455.514	74
455.734	86
455.955	85
456.175	87
456.395	79
456.616	79
456.836	67
457.056	91
457.276	82
457.497	87
457.717	77
457.937	90
458.157	78
458.377	84
458.598	72
458.818	74
459.038	63
459.258	84
459.478	79
459.698	75
459.918	84
460.138	65
460.358	80
460.578	90
460.798	69
461.018	80
461.238	72
461.458	84
461.678	85
461.898	79
462.118	74
462.338	80
462.558	81
462.777	68
462.997	84
463.217	84
463.437	81
463.657	76
463.876	78
464.096	87
464.316	77
464.536	92
464.755	85
464.975	80
465.195	81
465.414	92
465.634	87
465.854	95
466.073	86
466.293	99
466.512	90
466.732	78
466.951	93
467.171	77
467.391	92
467.61	87
467.829	94
468.049	83
468.268	80
468.488	96
468.707	87
468.927	86
469.146	79
469.365	91
469.585	89
469.804	75
470.023	71
470.243	91
470.462	91
470.681	81
470.901	82
471.12	75
471.339	89
471.558	93
471.777	80
471.997	85
472.216	72
472.435	84
472.654	74
472.873	90
473.092	79
473.311	77
473.53	77
473.749	81
473.968	96
474.187	88
474.406	69
474.625	86
474.844	80
475.063	85
475.282	98
475.501	80
475.72	96
475.939	79
476.158	84
476.377	87
476.596	80
476.814	82
477.033	84
477.252	89
477.471	87
477.69	86
477.908	93
478.127	86
478.346	89
478.564	77
478.783	95
479.002	94
479.22	86
479.439	81
479.658	85
479.876	80
480.095	95
480.313	71
480.532	93
480.751	86
480.969	78
481.188	72
481.406	84
481.624	80
481.843	85
482.061	81
482.28	69
482.498	83
482.717	72
482.935	91
483.153	85
483.372	92
483.59	81
483.808	77
484.027	89
484.245	79
484.463	79
484.681	98
484.9	90
485.118	96
485.336	68
485.554	78
485.772	84
485.99	83
486.209	79
486.427	81
486.645	81
486.863	82
487.081	87
487.299	71
487.517	76
487.735	90
487.953	87
488.171	88
488.389	90
488.607	93
488.825	84
489.043	89
489.261	94
489.479	93
489.696	85
489.914	78
490.132	86
490.35	103
490.568	95
490.786	88
491.003	83
491.221	95
491.439	91
491.657	96
491.874	98
492.092	87
492.31	111
492.527	89
492.745	100
492.963	86
493.18	118
493.398	104
493.615	111
493.833	96
494.05	104
494.268	93
494.485	110
494.703	86
494.92	94
495.138	93
495.355	102
495.573	100
495.79	98
496.008	91
496.225	100
496.442	82
496.66	90
496.877	80
497.094	97
497.312	80
497.529	99
497.746	76
497.963	91
498.181	82
498.398	81
498.615	83
498.832	94
499.049	72
499.267	81
499.484	89
499.701	82
499.918	97
500.135	86
500.352	92
500.569	94
500.786	89
501.003	96
501.22	86
501.437	92
501.654	89
501.871	88
502.088	85
502.305	82
502.522	85
502.739	89
502.956	84
503.172	80
503.389	79
503.606	82
503.823	82
504.04	80
504.256	85
504.473	80
504.69	104
504.907	95
505.123	92
505.34	81
505.557	79
505.773	77
505.99	67
506.207	93
506.423	84
506.64	90
506.856	89
507.073	88
507.289	89
507.506	78
507.722	95
507.939	73
508.155	89
508.372	79
508.588	87
508.805	81
509.021	89
509.238	72
509.454	92
509.67	80
509.887	80
510.103	79
510.319	81
510.536	78
510.752	69
510.968	75
511.184	76
511.401	81
511.617	75
511.833	81
512.049	67
512.265	100
512.481	87
512.698	84
512.914	87
513.13	89
513.346	88
513.562	84
513.778	70
513.994	77
514.21	80
514.426	84
514.642	84
514.858	78
515.074	81
515.29	85
515.506	85
515.721	72
515.937	82
516.153	79
516.369	83
516.585	85
516.801	90
517.016	81
517.232	74
517.448	80
517.664	93
517.879	83
518.095	88
518.311	76
518.527	85
518.742	62
518.958	81
519.173	80
519.389	84
519.605	85
519.82	83
520.036	84
520.251	88
520.467	82
520.682	72
520.898	91
521.113	72
521.329	76
521.544	84
521.76	84
521.975	71
522.19	79
522.406	87
522.621	70
522.836	88
523.052	66
523.267	77
523.482	76
523.698	72
523.913	85
524.128	83
524.343	87
524.559	84
524.774	77
524.989	90
525.204	84
525.419	66
525.634	92
525.849	93
526.064	84
526.28	86
526.495	69
526.71	79
526.925	87
527.14	78
527.355	74
527.57	83
527.785	74
527.999	87
528.214	90
528.429	81
528.644	96
528.859	85
529.074	99
529.289	99
529.503	102
529.718	82
529.933	66
530.148	88
530.363	83
530.577	80
530.792	79
531.007	81
531.221	82
531.436	77
531.651	76
531.865	70
532.08	82
532.295	70
532.509	84
532.724	93
532.938	101
533.153	78
533.367	94
533.582	85
533.796	83
534.011	88
534.225	83
534.44	75
534.654	81
534.868	86
535.083	75
535.297	78
535.511	79
535.726	79
535.94	86
536.154	81
536.369	79
536.583	83
536.797	89
537.011	87
537.225	75
537.44	86
537.654	81
537.868	86
538.082	73
538.296	79
538.51	89
538.724	85
538.938	79
539.153	72
539.367	76
539.581	79
539.795	78
540.009	98
540.222	89
540.436	93
540.65	74
540.864	86
541.078	90
541.292	85
541.506	76
541.72	98
541.934	101
542.147	92
542.361	101
542.575	96
542.789	71
543.002	88
543.216	90
543.43	78
543.644	99
543.857	88
544.071	98
544.285	95
544.498	94
544.712	98
544.925	92
545.139	82
545.352	84
545.566	90
545.779	92
545.993	87
546.206	79
546.42	89
546.633	90
546.847	92
547.06	83
547.274	96
547.487	81
547.7	93
547.914	71
548.127	100
548.34	93
548.554	100
548.767	93
548.98	99
549.193	79
549.407	102
549.62	79
549.833	78
550.046	95
550.259	102
550.473	96
550.686	90
550.899	88
551.112	89
551.325	90
551.538	86
551.751	78
551.964	84
552.177	92
552.39	73
552.603	86
552.816	97
553.029	83
553.242	95
553.455	102
553.667	92
553.88	100
554.093	89
554.306	92
554.519	92
554.732	84
554.944	81
555.157	89
555.37	82
555.583	78
555.795	83
556.008	86
556.221	94
556.433	100
556.646	93
556.859	88
557.071	90
557.284	99
557.496	108
557.709	97
557.921	104
558.134	87
558.346	104
558.559	88
558.771	86
558.984	86
559.196	79
559.409	88
559.621	83
559.833	100
560.046	89
560.258	95
560.47	71
560.683	91
560.895	84
561.107	88
561.32	74
561.532	93
561.744	96
561.956	102
562.168	93
562.381	94
562.593	98
562.805	83
563.017	78
563.229	97
563.441	100
563.653	91
563.865	88
564.077	85
564.289	91
564.501	94
564.713	97
564.925	91
565.137	79
565.349	89
565.561	91
565.773	87
565.985	89
566.197	88
566.408	90
566.62	85
566.832	98
567.044	98
567.255	77
567.467	79
567.679	83
567.891	80
568.102	88
568.314	77
568.526	80
568.737	83
568.949	72
569.161	86
569.372	88
569.584	88
569.795	84
570.007	88
570.218	85
570.43	88
570.641	80
570.853	93
571.064	82
571.276	92
571.487	85
571.698	83
571.91	90
572.121	100
572.333	86
572.544	84
572.755	69
572.966	76
573.178	84
573.389	87
573.6	75
573.811	78
574.023	73
574.234	71
574.445	78
574.656	88
574.867	87
575.078	78
575.289	82
575.501	87
575.712	101
575.923	92
576.134	91
576.345	74
576.556	91
576.767	80
576.978	88
577.188	79
577.399	80
577.61	70
577.821	79
578.032	78
578.243	76
578.454	86
578.665	83
578.875	99
579.086	91
579.297	78
579.508	81
579.718	89
579.929	77
580.14	77
580.35	97
580.561	85
580.772	77
580.982	74
581.193	88
581.403	105
581.614	94
581.825	81
582.035	82
582.246	92
582.456	89
582.667	87
582.877	84
583.087	73
583.298	75
583.508	76
583.719	68
583.929	80
584.139	83
584.35	78
584.56	85
584.77	89
584.981	82
585.191	92
585.401	87
585.611	93
585.821	96
586.032	86
586.242	82
586.452	76
586.662	87
586.872	79
587.082	81
587.292	89
587.502	89
587.713	82
587.923	72
588.133	93
588.343	74
588.553	84
588.762	84
588.972	71
589.182	87
589.392	90
589.602	98
589.812	92
590.022	77
590.232	81
590.441	82
590.651	65
590.861	81
591.071	80
591.281	72
591.49	81
591.7	81
591.91	83
592.119	91
592.329	75
592.539	77
592.748	82
592.958	84
593.167	85
593.377	82
593.587	68
593.796	90
594.006	85
594.215	85
594.424	80
594.634	89
594.843	88
595.053	84
595.262	100
595.472	77
595.681	73
595.89	88
596.1	80
596.309	80
596.518	77
596.727	75
596.937	84
597.146	73
597.355	89
597.564	95
597.774	80
597.983	81
598.192	80
598.401	85
598.61	80
598.819	77
599.028	93
599.237	80
599.446	86
599.655	90
599.864	75
600.073	84
600.282	80
600.491	89
600.7	85
600.909	88
601.118	79
601.327	85
601.536	88
601.745	87
601.953	82
602.162	82
602.371	89
602.58	88
602.789	83
602.997	87
603.206	66
603.415	84
603.623	100
603.832	85
604.041	91
604.249	86
604.458	82
604.666	79
604.875	78
605.084	80
605.292	86
605.501	76
605.709	95
605.918	87
606.126	86
606.334	97
606.543	94
606.751	92
606.96	86
607.168	79
607.376	80
607.585	93
607.793	102
608.001	92
608.21	82
608.418	79
608.626	93
608.834	81
609.043	84
609.251	92
609.459	77
609.667	77
609.875	73
610.083	96
610.291	89
610.499	79
610.707	80
610.916	79
611.124	96
611.332	93
611.54	88
611.748	79
611.955	70
612.163	84
612.371	90
612.579	70
612.787	72
612.995	88
613.203	81
613.411	93
613.618	84
613.826	87
614.034	80
614.242	89
614.449	76
614.657	90
614.865	90
615.072	66
615.28	84
615.488	80
615.695	92
615.903	84
616.111	78
616.318	86
616.526	85
616.733	97
616.941	85
617.148	74
617.356	82
617.563	98
617.771	78
617.978	82
618.185	82
618.393	87
618.6	88
618.807	97
619.015	84
619.222	98
619.429	86
619.637	78
619.844	75
620.051	83
620.258	94
620.466	80
620.673	91
620.88	83
621.087	88
621.294	90
621.501	85
621.708	77
621.915	85
622.122	86
622.329	87
622.536	68
622.743	78
622.95	81
623.157	93
623.364	87
623.571	78
623.778	91
623.985	81
624.192	82
624.399	89
624.606	89
624.812	85
625.019	86
625.226	72
625.433	81
625.639	86
625.846	88
626.053	88
626.259	79
626.466	75
626.673	86
626.879	74
627.086	86
627.293	101
627.499	86
627.706	80
627.912	90
628.119	88
628.325	85
628.532	67
628.738	87
628.945	83
629.151	78
629.357	80
629.564	90
629.77	84
629.976	83
630.183	91
630.389	85
630.595	89
630.802	85
631.008	69
631.214	91
631.42	85
631.627	93
631.833	83
632.039	75
632.245	80
632.451	82
632.657	78
632.863	87
633.069	90
633.275	90
633.481	78
633.688	81
633.893	92
634.099	83
634.305	90
634.511	74
634.717	78
634.923	81
635.129	71
635.335	93
635.541	87
635.747	88
635.952	74
636.158	93
636.364	80
636.57	85
636.775	87
636.981	76
637.187	89
637.392	72
637.598	72
637.804	103
638.009	70
638.215	79
638.421	68
638.626	86
638.832	79
639.037	72
639.243	85
639.448	73
639.654	76
639.859	79
640.065	89
640.27	92
640.475	84
640.681	82
640.886	79
641.091	82
641.297	82
641.502	77
641.707	81
641.913	83
642.118	73
642.323	76
642.528	82
642.733	84
642.939	72
643.144	74
643.349	81
643.554	85
643.759	75
643.964	81
644.169	87
644.374	88
644.579	89
644.784	84
644.989	82
645.194	73
645.399	85
645.604	79
645.809	81
646.014	89
646.219	88
646.423	82
646.628	77
646.833	90
647.038	97
647.243	99
647.447	78
647.652	82
647.857	88
648.062	85
648.266	81
648.471	100
648.676	93
648.88	84
649.085	94
649.289	73
649.494	74
649.698	89
649.903	74
650.107	77
650.312	77
650.516	69
650.721	82
650.925	78
651.13	64
651.334	82
651.539	80
651.743	90
651.947	77
652.152	86
652.356	83
652.56	87
652.764	85
652.969	87
653.173	76
653.377	72
653.581	74
653.785	82
653.99	82
654.194	94
654.398	67
654.602	78
654.806	83
655.01	88
655.214	83
655.418	78
655.622	78
655.826	77
656.03	88
656.234	87
656.438	74
656.642	73
656.846	74
657.049	75
657.253	64
657.457	88
657.661	82
657.865	77
658.068	84
658.272	92
658.476	83
658.68	94
658.883	82
659.087	81
659.291	72
659.494	78
659.698	81
659.901	74
660.105	86
660.309	70
660.512	79
660.716	79
660.919	86
661.123	92
661.326	80
661.53	80
661.733	84
661.936	68
662.14	81
662.343	82
662.546	81
662.75	77
662.953	78
663.156	81
663.36	86
663.563	80
663.766	68
663.969	94
664.173	75
664.376	78
664.579	78
664.782	85
664.985	81
665.188	83
665.391	83
665.594	83
665.797	74
666	80
666.203	77
666.406	82
666.609	65
666.812	58
667.015	85
667.218	93
667.421	68
667.624	74
667.827	72
668.03	79
668.232	83
668.435	81
668.638	71
668.841	72
669.043	76
669.246	85
669.449	86
669.651	85
669.854	71
670.057	87
670.259	83
670.462	61
670.665	77
670.867	77
671.07	84
671.272	93
671.475	80
671.677	86
671.88	60
672.082	64
672.284	83
672.487	70
672.689	89
672.892	63
