Data from Zn(NO3)2Standard.Agarose3%.GreenCap.LampEnergy5.5.E.O_HRD10591_15-02-47-767.txt Node
Date: Mon Jul 22 15:02:47 EDT 2019
User: cochatt
Spectrometer: HR+D1059
Trigger mode: 1
Integration Time (sec): 1.000000E-1
Scans to average: 1
Electric dark correction enabled: true
Nonlinearity correction enabled: false
Boxcar width: 0
XAxis mode: Wavelengths
Number of Pixels in Spectrum: 2048
>>>>>Begin Spectral Data<<<<<
223.165	-14
223.4	-14
223.635	-14
223.869	-18
224.104	-23
224.338	-8
224.573	-2
224.808	-2
225.042	-15
225.277	-17
225.511	-10
225.746	-3
225.98	0
226.215	10
226.449	19
226.683	30
226.918	31
227.152	22
227.387	32
227.621	30
227.856	43
228.09	45
228.324	41
228.559	78
228.793	65
229.027	76
229.262	72
229.496	65
229.73	65
229.964	76
230.199	65
230.433	65
230.667	88
230.901	79
231.136	64
231.37	82
231.604	78
231.838	73
232.072	80
232.306	86
232.541	88
232.775	92
233.009	80
233.243	80
233.477	95
233.711	99
233.945	85
234.179	88
234.413	88
234.647	74
234.881	79
235.115	85
235.349	85
235.583	91
235.817	85
236.051	77
236.285	89
236.519	73
236.753	92
236.987	78
237.221	77
237.455	86
237.689	86
237.922	85
238.156	64
238.39	76
238.624	73
238.858	78
239.091	74
239.325	78
239.559	74
239.793	84
240.027	79
240.26	75
240.494	72
240.728	64
240.961	71
241.195	79
241.429	84
241.662	90
241.896	86
242.13	68
242.363	70
242.597	85
242.83	80
243.064	85
243.298	89
243.531	84
243.765	70
243.998	77
244.232	70
244.465	85
244.699	68
244.932	78
245.166	71
245.399	72
245.633	77
245.866	83
246.099	74
246.333	77
246.566	92
246.8	83
247.033	74
247.266	66
247.5	82
247.733	84
247.966	72
248.2	81
248.433	75
248.666	95
248.899	80
249.133	86
249.366	89
249.599	62
249.832	88
250.066	86
250.299	78
250.532	87
250.765	70
250.998	91
251.231	82
251.465	78
251.698	80
251.931	80
252.164	80
252.397	91
252.63	81
252.863	84
253.096	80
253.329	71
253.562	84
253.795	80
254.028	91
254.261	73
254.494	80
254.727	81
254.96	89
255.193	85
255.426	87
255.659	93
255.892	74
256.124	90
256.357	66
256.59	86
256.823	87
257.056	74
257.289	74
257.521	84
257.754	79
257.987	82
258.22	89
258.452	91
258.685	87
258.918	85
259.151	79
259.383	82
259.616	85
259.849	78
260.081	83
260.314	77
260.547	81
260.779	84
261.012	95
261.244	68
261.477	94
261.71	81
261.942	87
262.175	91
262.407	75
262.64	85
262.872	73
263.105	82
263.337	88
263.57	95
263.802	93
264.035	90
264.267	87
264.499	96
264.732	91
264.964	77
265.197	81
265.429	83
265.661	104
265.894	82
266.126	84
266.358	71
266.591	75
266.823	88
267.055	77
267.287	75
267.52	88
267.752	79
267.984	96
268.216	76
268.448	82
268.681	76
268.913	77
269.145	85
269.377	82
269.609	84
269.841	87
270.073	79
270.306	85
270.538	82
270.77	87
271.002	92
271.234	77
271.466	90
271.698	82
271.93	93
272.162	87
272.394	96
272.626	86
272.858	72
273.09	91
273.322	79
273.553	86
273.785	87
274.017	79
274.249	86
274.481	77
274.713	90
274.945	83
275.176	80
275.408	78
275.64	94
275.872	90
276.104	103
276.335	88
276.567	79
276.799	81
277.031	94
277.262	89
277.494	83
277.726	73
277.957	80
278.189	64
278.421	87
278.652	99
278.884	80
279.115	72
279.347	97
279.579	81
279.81	85
280.042	96
280.273	86
280.505	93
280.736	82
280.968	76
281.199	77
281.431	93
281.662	90
281.894	96
282.125	87
282.356	81
282.588	94
282.819	94
283.051	77
283.282	96
283.513	72
283.745	81
283.976	84
284.207	84
284.439	83
284.67	86
284.901	93
285.132	88
285.364	76
285.595	94
285.826	93
286.057	82
286.288	95
286.52	91
286.751	101
286.982	100
287.213	84
287.444	85
287.675	76
287.906	84
288.138	87
288.369	69
288.6	84
288.831	87
289.062	86
289.293	75
289.524	89
289.755	90
289.986	92
290.217	92
290.448	78
290.679	101
290.91	86
291.141	87
291.371	80
291.602	79
291.833	85
292.064	81
292.295	73
292.526	86
292.757	77
292.987	86
293.218	102
293.449	87
293.68	86
293.91	69
294.141	80
294.372	85
294.603	91
294.833	97
295.064	92
295.295	92
295.525	87
295.756	84
295.987	87
296.217	87
296.448	90
296.679	82
296.909	89
297.14	85
297.37	102
297.601	81
297.831	95
298.062	92
298.292	84
298.523	85
298.753	100
298.984	107
299.214	94
299.445	89
299.675	100
299.905	94
300.136	90
300.366	93
300.597	104
300.827	84
301.057	95
301.288	83
301.518	97
301.748	70
301.979	92
302.209	83
302.439	88
302.669	80
302.9	93
303.13	96
303.36	96
303.59	92
303.82	81
304.051	98
304.281	93
304.511	105
304.741	90
304.971	98
305.201	97
305.431	82
305.661	96
305.891	79
306.121	85
306.352	97
306.582	81
306.812	88
307.042	79
307.272	98
307.502	96
307.731	84
307.961	102
308.191	84
308.421	83
308.651	95
308.881	101
309.111	79
309.341	94
309.571	94
309.8	88
310.03	92
310.26	88
310.49	85
310.72	82
310.949	88
311.179	83
311.409	85
311.639	86
311.868	80
312.098	87
312.328	74
312.557	78
312.787	75
313.017	83
313.246	87
313.476	103
313.706	77
313.935	80
314.165	91
314.394	96
314.624	87
314.853	95
315.083	96
315.312	94
315.542	97
315.771	87
316.001	93
316.23	97
316.46	84
316.689	95
316.919	85
317.148	84
317.377	100
317.607	98
317.836	98
318.065	75
318.295	85
318.524	91
318.753	101
318.983	88
319.212	79
319.441	81
319.67	91
319.9	96
320.129	80
320.358	93
320.587	82
320.816	92
321.046	91
321.275	100
321.504	82
321.733	93
321.962	94
322.191	87
322.42	88
322.649	89
322.878	82
323.108	88
323.337	84
323.566	89
323.795	101
324.024	106
324.253	87
324.482	85
324.71	76
324.939	109
325.168	87
325.397	109
325.626	104
325.855	103
326.084	90
326.313	75
326.542	92
326.77	92
326.999	88
327.228	91
327.457	95
327.686	84
327.914	85
328.143	93
328.372	92
328.6	102
328.829	103
329.058	86
329.287	97
329.515	86
329.744	92
329.972	88
330.201	82
330.43	88
330.658	93
330.887	82
331.115	91
331.344	94
331.572	94
331.801	82
332.03	90
332.258	77
332.486	83
332.715	78
332.943	92
333.172	93
333.4	89
333.629	112
333.857	100
334.085	81
334.314	72
334.542	100
334.771	87
334.999	91
335.227	104
335.455	82
335.684	87
335.912	92
336.14	96
336.369	84
336.597	86
336.825	94
337.053	88
337.281	107
337.51	95
337.738	94
337.966	86
338.194	96
338.422	82
338.65	95
338.878	84
339.106	90
339.334	90
339.562	79
339.79	91
340.018	78
340.246	80
340.474	73
340.702	73
340.93	104
341.158	97
341.386	104
341.614	86
341.842	83
342.07	89
342.298	90
342.526	90
342.754	86
342.981	91
343.209	93
343.437	92
343.665	70
343.893	92
344.12	77
344.348	100
344.576	91
344.804	84
345.031	76
345.259	92
345.487	78
345.714	104
345.942	95
346.17	81
346.397	78
346.625	97
346.853	72
347.08	72
347.308	80
347.535	94
347.763	85
347.99	92
348.218	92
348.445	86
348.673	86
348.9	83
349.128	94
349.355	99
349.583	102
349.81	83
350.037	78
350.265	88
350.492	87
350.72	79
350.947	79
351.174	88
351.402	89
351.629	86
351.856	85
352.083	95
352.311	82
352.538	81
352.765	85
352.992	93
353.22	88
353.447	96
353.674	93
353.901	69
354.128	90
354.355	89
354.583	86
354.81	93
355.037	81
355.264	79
355.491	87
355.718	93
355.945	99
356.172	88
356.399	86
356.626	88
356.853	96
357.08	80
357.307	94
357.534	76
357.761	83
357.988	95
358.215	84
358.441	92
358.668	88
358.895	85
359.122	86
359.349	87
359.576	87
359.802	103
360.029	96
360.256	92
360.483	93
360.709	85
360.936	90
361.163	87
361.39	90
361.616	75
361.843	84
362.07	85
362.296	106
362.523	83
362.749	103
362.976	87
363.203	82
363.429	93
363.656	81
363.882	89
364.109	74
364.335	92
364.562	84
364.788	77
365.015	86
365.241	95
365.468	79
365.694	91
365.92	88
366.147	97
366.373	100
366.599	85
366.826	77
367.052	75
367.278	83
367.505	85
367.731	93
367.957	106
368.184	88
368.41	94
368.636	89
368.862	83
369.089	85
369.315	102
369.541	94
369.767	86
369.993	76
370.219	90
370.445	93
370.672	87
370.898	74
371.124	79
371.35	94
371.576	80
371.802	89
372.028	87
372.254	81
372.48	85
372.706	92
372.932	78
373.158	81
373.384	89
373.61	85
373.835	93
374.061	89
374.287	98
374.513	80
374.739	85
374.965	95
375.191	85
375.416	90
375.642	85
375.868	89
376.094	93
376.319	95
376.545	70
376.771	90
376.997	94
377.222	77
377.448	94
377.674	88
377.899	91
378.125	74
378.35	89
378.576	105
378.802	95
379.027	89
379.253	84
379.478	89
379.704	101
379.929	90
380.155	73
380.38	78
380.606	95
380.831	77
381.057	79
381.282	86
381.507	80
381.733	84
381.958	94
382.184	80
382.409	90
382.634	87
382.86	87
383.085	96
383.31	90
383.535	89
383.761	88
383.986	97
384.211	89
384.436	91
384.662	77
384.887	104
385.112	72
385.337	89
385.562	90
385.787	96
386.013	95
386.238	97
386.463	80
386.688	92
386.913	86
387.138	79
387.363	88
387.588	86
387.813	84
388.038	89
388.263	89
388.488	78
388.713	89
388.938	78
389.163	90
389.387	71
389.612	65
389.837	73
390.062	96
390.287	91
390.512	81
390.736	88
390.961	98
391.186	82
391.411	82
391.636	80
391.86	79
392.085	86
392.31	95
392.534	82
392.759	95
392.984	93
393.208	81
393.433	85
393.658	76
393.882	88
394.107	84
394.331	90
394.556	93
394.78	81
395.005	81
395.229	80
395.454	88
395.678	81
395.903	82
396.127	82
396.352	97
396.576	88
396.801	84
397.025	90
397.249	98
397.474	98
397.698	93
397.922	83
398.147	80
398.371	87
398.595	92
398.82	91
399.044	86
399.268	90
399.492	82
399.717	76
399.941	84
400.165	74
400.389	74
400.613	74
400.837	87
401.062	76
401.286	78
401.51	92
401.734	84
401.958	84
402.182	81
402.406	89
402.63	83
402.854	77
403.078	84
403.302	93
403.526	95
403.75	89
403.974	96
404.198	92
404.422	98
404.645	83
404.869	85
405.093	85
405.317	87
405.541	99
405.765	92
405.988	84
406.212	96
406.436	83
406.66	86
406.883	81
407.107	84
407.331	81
407.555	80
407.778	88
408.002	82
408.226	86
408.449	100
408.673	91
408.896	87
409.12	86
409.344	90
409.567	96
409.791	94
410.014	80
410.238	82
410.461	82
410.685	99
410.908	63
411.132	96
411.355	108
411.578	88
411.802	103
412.025	97
412.249	95
412.472	85
412.695	84
412.919	88
413.142	90
413.365	77
413.589	92
413.812	80
414.035	90
414.258	84
414.482	87
414.705	81
414.928	86
415.151	95
415.374	86
415.597	90
415.821	74
416.044	98
416.267	87
416.49	82
416.713	98
416.936	80
417.159	82
417.382	108
417.605	79
417.828	83
418.051	90
418.274	88
418.497	81
418.72	95
418.943	82
419.166	86
419.389	99
419.611	97
419.834	91
420.057	82
420.28	84
420.503	101
420.726	90
420.948	93
421.171	106
421.394	98
421.617	96
421.839	84
422.062	89
422.285	100
422.507	89
422.73	82
422.953	82
423.175	79
423.398	85
423.621	84
423.843	74
424.066	101
424.288	78
424.511	82
424.733	90
424.956	80
425.178	96
425.401	90
425.623	86
425.846	105
426.068	80
426.291	83
426.513	88
426.735	94
426.958	86
427.18	104
427.402	95
427.625	87
427.847	91
428.069	98
428.292	90
428.514	93
428.736	66
428.958	79
429.181	104
429.403	95
429.625	86
429.847	84
430.069	92
430.292	96
430.514	85
430.736	103
430.958	90
431.18	86
431.402	85
431.624	95
431.846	78
432.068	90
432.29	88
432.512	101
432.734	105
432.956	90
433.178	100
433.4	88
433.622	89
433.844	87
434.066	90
434.287	76
434.509	82
434.731	92
434.953	88
435.175	102
435.397	104
435.618	97
435.84	86
436.062	91
436.284	92
436.505	87
436.727	92
436.949	90
437.17	95
437.392	96
437.614	82
437.835	88
438.057	93
438.278	93
438.5	86
438.721	103
438.943	94
439.165	94
439.386	85
439.608	101
439.829	89
440.05	84
440.272	99
440.493	90
440.715	96
440.936	92
441.158	90
441.379	85
441.6	96
441.822	86
442.043	96
442.264	90
442.486	90
442.707	95
442.928	90
443.149	94
443.371	90
443.592	86
443.813	90
444.034	80
444.255	97
444.476	83
444.698	98
444.919	94
445.14	205
445.361	155
445.582	109
445.803	96
446.024	98
446.245	90
446.466	96
446.687	87
446.908	95
447.129	95
447.35	84
447.571	107
447.792	93
448.013	102
448.234	86
448.455	98
448.675	93
448.896	79
449.117	99
449.338	101
449.559	108
449.779	101
450	87
450.221	81
450.442	80
450.662	86
450.883	100
451.104	93
451.324	92
451.545	86
451.766	87
451.986	92
452.207	93
452.428	79
452.648	80
452.869	89
453.089	89
453.31	101
453.53	92
453.751	83
453.971	99
454.192	83
454.412	78
454.633	92
454.853	86
455.073	89
455.294	97
455.514	91
455.734	82
455.955	89
456.175	82
456.395	80
456.616	85
456.836	86
457.056	91
457.276	92
457.497	80
457.717	86
457.937	91
458.157	92
458.377	87
458.598	80
458.818	98
459.038	75
459.258	66
459.478	78
459.698	63
459.918	77
460.138	91
460.358	91
460.578	96
460.798	90
461.018	85
461.238	88
461.458	97
461.678	98
461.898	91
462.118	89
462.338	84
462.558	86
462.777	83
462.997	104
463.217	88
463.437	84
463.657	79
463.876	79
464.096	84
464.316	93
464.536	100
464.755	72
464.975	82
465.195	104
465.414	86
465.634	92
465.854	83
466.073	96
466.293	105
466.512	89
466.732	86
466.951	84
467.171	82
467.391	85
467.61	96
467.829	88
468.049	97
468.268	100
468.488	86
468.707	96
468.927	102
469.146	91
469.365	96
469.585	91
469.804	94
470.023	76
470.243	112
470.462	97
470.681	85
470.901	102
471.12	100
471.339	89
471.558	91
471.777	81
471.997	101
472.216	82
472.435	83
472.654	88
472.873	83
473.092	86
473.311	88
473.53	81
473.749	90
473.968	92
474.187	83
474.406	89
474.625	104
474.844	87
475.063	85
475.282	87
475.501	90
475.72	91
475.939	81
476.158	78
476.377	86
476.596	83
476.814	107
477.033	93
477.252	84
477.471	85
477.69	101
477.908	102
478.127	94
478.346	91
478.564	97
478.783	93
479.002	87
479.22	90
479.439	106
479.658	86
479.876	84
480.095	88
480.313	76
480.532	76
480.751	91
480.969	97
481.188	87
481.406	97
481.624	92
481.843	77
482.061	96
482.28	92
482.498	91
482.717	74
482.935	91
483.153	82
483.372	98
483.59	93
483.808	81
484.027	103
484.245	95
484.463	104
484.681	102
484.9	87
485.118	96
485.336	81
485.554	84
485.772	90
485.99	81
486.209	95
486.427	88
486.645	88
486.863	84
487.081	87
487.299	95
487.517	73
487.735	93
487.953	97
488.171	97
488.389	95
488.607	97
488.825	96
489.043	84
489.261	73
489.479	101
489.696	96
489.914	110
490.132	92
490.35	96
490.568	110
490.786	93
491.003	85
491.221	103
491.439	107
491.657	101
491.874	116
492.092	113
492.31	107
492.527	97
492.745	114
492.963	108
493.18	95
493.398	110
493.615	101
493.833	82
494.05	89
494.268	96
494.485	96
494.703	92
494.92	94
495.138	108
495.355	85
495.573	80
495.79	107
496.008	97
496.225	94
496.442	87
496.66	92
496.877	97
497.094	88
497.312	91
497.529	92
497.746	87
497.963	78
498.181	94
498.398	90
498.615	88
498.832	96
499.049	97
499.267	75
499.484	76
499.701	97
499.918	80
500.135	90
500.352	95
500.569	86
500.786	92
501.003	97
501.22	100
501.437	96
501.654	108
501.871	89
502.088	92
502.305	88
502.522	82
502.739	84
502.956	88
503.172	85
503.389	79
503.606	94
503.823	93
504.04	81
504.256	93
504.473	84
504.69	82
504.907	102
505.123	96
505.34	82
505.557	93
505.773	91
505.99	89
506.207	93
506.423	87
506.64	73
506.856	88
507.073	74
507.289	94
507.506	98
507.722	96
507.939	71
508.155	93
508.372	92
508.588	78
508.805	88
509.021	89
509.238	82
509.454	78
509.67	86
509.887	89
510.103	82
510.319	91
510.536	94
510.752	78
510.968	85
511.184	85
511.401	94
511.617	81
511.833	91
512.049	80
512.265	86
512.481	97
512.698	86
512.914	86
513.13	86
513.346	81
513.562	85
513.778	79
513.994	88
514.21	80
514.426	99
514.642	82
514.858	83
515.074	92
515.29	95
515.506	89
515.721	78
515.937	83
516.153	75
516.369	87
516.585	105
516.801	98
517.016	89
517.232	88
517.448	93
517.664	83
517.879	83
518.095	88
518.311	83
518.527	86
518.742	77
518.958	82
519.173	97
519.389	105
519.605	100
519.82	77
520.036	92
520.251	93
520.467	85
520.682	99
520.898	86
521.113	85
521.329	104
521.544	74
521.76	99
521.975	75
522.19	103
522.406	84
522.621	82
522.836	83
523.052	79
523.267	92
523.482	79
523.698	100
523.913	96
524.128	92
524.343	89
524.559	103
524.774	80
524.989	90
525.204	96
525.419	91
525.634	74
525.849	82
526.064	81
526.28	103
526.495	97
526.71	91
526.925	89
527.14	84
527.355	80
527.57	91
527.785	89
527.999	90
528.214	79
528.429	73
528.644	82
528.859	84
529.074	104
529.289	110
529.503	95
529.718	89
529.933	105
530.148	98
530.363	101
530.577	84
530.792	93
531.007	81
531.221	93
531.436	98
531.651	88
531.865	92
532.08	82
532.295	90
532.509	86
532.724	72
532.938	89
533.153	101
533.367	85
533.582	88
533.796	98
534.011	78
534.225	89
534.44	81
534.654	84
534.868	92
535.083	97
535.297	92
535.511	89
535.726	85
535.94	88
536.154	75
536.369	98
536.583	80
536.797	86
537.011	84
537.225	72
537.44	94
537.654	84
537.868	73
538.082	93
538.296	77
538.51	93
538.724	100
538.938	90
539.153	86
539.367	88
539.581	91
539.795	91
540.009	89
540.222	100
540.436	98
540.65	85
540.864	99
541.078	102
541.292	109
541.506	102
541.72	102
541.934	107
542.147	126
542.361	108
542.575	101
542.789	102
543.002	82
543.216	85
543.43	94
543.644	96
543.857	108
544.071	102
544.285	106
544.498	99
544.712	96
544.925	103
545.139	104
545.352	98
545.566	97
545.779	100
545.993	105
546.206	111
546.42	105
546.633	114
546.847	109
547.06	103
547.274	104
547.487	103
547.7	88
547.914	107
548.127	88
548.34	104
548.554	97
548.767	102
548.98	103
549.193	99
549.407	109
549.62	97
549.833	86
550.046	94
550.259	96
550.473	92
550.686	87
550.899	96
551.112	104
551.325	97
551.538	97
551.751	95
551.964	99
552.177	89
552.39	99
552.603	93
552.816	107
553.029	99
553.242	103
553.455	93
553.667	105
553.88	108
554.093	97
554.306	84
554.519	97
554.732	100
554.944	100
555.157	106
555.37	79
555.583	112
555.795	83
556.008	95
556.221	83
556.433	96
556.646	102
556.859	106
557.071	91
557.284	90
557.496	100
557.709	119
557.921	100
558.134	101
558.346	103
558.559	94
558.771	93
558.984	88
559.196	90
559.409	93
559.621	92
559.833	88
560.046	113
560.258	95
560.47	103
560.683	97
560.895	83
561.107	101
561.32	97
561.532	94
561.744	98
561.956	113
562.168	96
562.381	82
562.593	98
562.805	102
563.017	100
563.229	96
563.441	92
563.653	104
563.865	106
564.077	88
564.289	101
564.501	96
564.713	98
564.925	90
565.137	91
565.349	100
565.561	77
565.773	90
565.985	103
566.197	81
566.408	84
566.62	122
566.832	106
567.044	97
567.255	93
567.467	87
567.679	80
567.891	94
568.102	84
568.314	86
568.526	101
568.737	97
568.949	88
569.161	91
569.372	87
569.584	95
569.795	90
570.007	81
570.218	86
570.43	95
570.641	92
570.853	110
571.064	96
571.276	98
571.487	91
571.698	88
571.91	82
572.121	98
572.333	88
572.544	87
572.755	109
572.966	104
573.178	88
573.389	95
573.6	95
573.811	84
574.023	89
574.234	88
574.445	105
574.656	93
574.867	98
575.078	86
575.289	76
575.501	97
575.712	96
575.923	78
576.134	78
576.345	81
576.556	85
576.767	97
576.978	94
577.188	96
577.399	85
577.61	105
577.821	98
578.032	99
578.243	90
578.454	77
578.665	84
578.875	85
579.086	100
579.297	69
579.508	88
579.718	89
579.929	79
580.14	90
580.35	97
580.561	95
580.772	81
580.982	95
581.193	85
581.403	78
581.614	80
581.825	89
582.035	86
582.246	97
582.456	85
582.667	82
582.877	100
583.087	77
583.298	79
583.508	88
583.719	89
583.929	88
584.139	93
584.35	81
584.56	78
584.77	87
584.981	78
585.191	92
585.401	90
585.611	89
585.821	102
586.032	89
586.242	84
586.452	80
586.662	80
586.872	83
587.082	86
587.292	105
587.502	97
587.713	92
587.923	86
588.133	88
588.343	81
588.553	90
588.762	105
588.972	85
589.182	77
589.392	78
589.602	81
589.812	77
590.022	92
590.232	80
590.441	85
590.651	83
590.861	96
591.071	88
591.281	81
591.49	93
591.7	89
591.91	98
592.119	84
592.329	89
592.539	101
592.748	84
592.958	77
593.167	82
593.377	87
593.587	80
593.796	80
594.006	84
594.215	87
594.424	100
594.634	72
594.843	82
595.053	95
595.262	79
595.472	85
595.681	87
595.89	87
596.1	101
596.309	88
596.518	94
596.727	94
596.937	94
597.146	85
597.355	71
597.564	84
597.774	93
597.983	91
598.192	88
598.401	88
598.61	87
598.819	88
599.028	79
599.237	74
599.446	85
599.655	82
599.864	97
600.073	100
600.282	91
600.491	95
600.7	97
600.909	90
601.118	91
601.327	102
601.536	86
601.745	97
601.953	90
602.162	81
602.371	86
602.58	82
602.789	99
602.997	82
603.206	92
603.415	91
603.623	92
603.832	93
604.041	99
604.249	108
604.458	89
604.666	100
604.875	101
605.084	85
605.292	92
605.501	93
605.709	90
605.918	95
606.126	104
606.334	108
606.543	90
606.751	97
606.96	81
607.168	99
607.376	90
607.585	95
607.793	100
608.001	101
608.21	98
608.418	97
608.626	94
608.834	92
609.043	96
609.251	101
609.459	102
609.667	100
609.875	98
610.083	90
610.291	99
610.499	112
610.707	91
610.916	98
611.124	90
611.332	89
611.54	98
611.748	86
611.955	103
612.163	96
612.371	95
612.579	91
612.787	95
612.995	94
613.203	102
613.411	101
613.618	97
613.826	92
614.034	98
614.242	97
614.449	88
614.657	88
614.865	102
615.072	88
615.28	106
615.488	93
615.695	102
615.903	100
616.111	87
616.318	87
616.526	88
616.733	95
616.941	91
617.148	101
617.356	92
617.563	89
617.771	108
617.978	82
618.185	93
618.393	80
618.6	90
618.807	105
619.015	98
619.222	95
619.429	101
619.637	94
619.844	93
620.051	97
620.258	93
620.466	86
620.673	90
620.88	83
621.087	79
621.294	82
621.501	86
621.708	94
621.915	88
622.122	102
622.329	85
622.536	74
622.743	93
622.95	89
623.157	94
623.364	113
623.571	96
623.778	93
623.985	86
624.192	89
624.399	92
624.606	78
624.812	85
625.019	94
625.226	96
625.433	86
625.639	92
625.846	83
626.053	102
626.259	89
626.466	83
626.673	84
626.879	82
627.086	94
627.293	85
627.499	97
627.706	93
627.912	100
628.119	87
628.325	93
628.532	83
628.738	92
628.945	78
629.151	99
629.357	102
629.564	94
629.77	98
629.976	90
630.183	92
630.389	94
630.595	71
630.802	89
631.008	97
631.214	101
631.42	86
631.627	95
631.833	84
632.039	92
632.245	96
632.451	80
632.657	96
632.863	96
633.069	89
633.275	90
633.481	81
633.688	104
633.893	90
634.099	80
634.305	98
634.511	88
634.717	94
634.923	81
635.129	72
635.335	84
635.541	87
635.747	97
635.952	101
636.158	80
636.364	86
636.57	101
636.775	88
636.981	89
637.187	89
637.392	93
637.598	88
637.804	85
638.009	92
638.215	91
638.421	81
638.626	96
638.832	93
639.037	96
639.243	97
639.448	92
639.654	88
639.859	91
640.065	96
640.27	99
640.475	94
640.681	95
640.886	94
641.091	94
641.297	95
641.502	72
641.707	97
641.913	85
642.118	78
642.323	100
642.528	92
642.733	95
642.939	97
643.144	101
643.349	102
643.554	101
643.759	79
643.964	93
644.169	92
644.374	89
644.579	96
644.784	88
644.989	82
645.194	90
645.399	90
645.604	97
645.809	100
646.014	106
646.219	106
646.423	90
646.628	91
646.833	86
647.038	103
647.243	76
647.447	72
647.652	97
647.857	92
648.062	94
648.266	97
648.471	95
648.676	90
648.88	92
649.085	92
649.289	83
649.494	86
649.698	91
649.903	80
650.107	106
650.312	90
650.516	89
650.721	89
650.925	86
651.13	92
651.334	86
651.539	76
651.743	76
651.947	88
652.152	79
652.356	90
652.56	99
652.764	90
652.969	81
653.173	83
653.377	90
653.581	91
653.785	88
653.99	84
654.194	88
654.398	89
654.602	91
654.806	86
655.01	102
655.214	97
655.418	94
655.622	89
655.826	93
656.03	88
656.234	94
656.438	84
656.642	92
656.846	76
657.049	92
657.253	86
657.457	96
657.661	85
657.865	79
658.068	80
658.272	90
658.476	103
658.68	87
658.883	81
659.087	88
659.291	94
659.494	77
659.698	79
659.901	88
660.105	96
660.309	84
660.512	91
660.716	76
660.919	72
661.123	105
661.326	81
661.53	87
661.733	98
661.936	94
662.14	88
662.343	89
662.546	97
662.75	86
662.953	92
663.156	97
663.36	74
663.563	89
663.766	97
663.969	70
664.173	88
664.376	79
664.579	79
664.782	95
664.985	89
665.188	76
665.391	101
665.594	86
665.797	83
666	84
666.203	91
666.406	67
666.609	82
666.812	76
667.015	83
667.218	90
667.421	82
667.624	79
667.827	88
668.03	86
668.232	81
668.435	82
668.638	94
668.841	85
669.043	81
669.246	91
669.449	75
669.651	78
669.854	91
670.057	89
670.259	92
670.462	81
670.665	65
670.867	94
671.07	81
671.272	94
671.475	92
671.677	97
671.88	87
672.082	86
672.284	95
672.487	75
672.689	86
672.892	87
