Data from Zn(NO3)2Standard.Agarose3%.GreenCap.LampEnergy5.5.E.O_HRD10591_15-01-03-767.txt Node
Date: Mon Jul 22 15:01:03 EDT 2019
User: cochatt
Spectrometer: HR+D1059
Trigger mode: 1
Integration Time (sec): 1.000000E-1
Scans to average: 1
Electric dark correction enabled: true
Nonlinearity correction enabled: false
Boxcar width: 0
XAxis mode: Wavelengths
Number of Pixels in Spectrum: 2048
>>>>>Begin Spectral Data<<<<<
223.165	-22
223.4	-22
223.635	-22
223.869	-22
224.104	-20
224.338	-9
224.573	-17
224.808	-9
225.042	-10
225.277	4
225.511	-8
225.746	-7
225.98	4
226.215	17
226.449	4
226.683	22
226.918	35
227.152	38
227.387	32
227.621	41
227.856	52
228.09	37
228.324	59
228.559	61
228.793	60
229.027	47
229.262	67
229.496	58
229.73	71
229.964	73
230.199	76
230.433	77
230.667	76
230.901	83
231.136	80
231.37	102
231.604	102
231.838	84
232.072	68
232.306	78
232.541	79
232.775	97
233.009	79
233.243	86
233.477	91
233.711	75
233.945	78
234.179	79
234.413	75
234.647	78
234.881	84
235.115	74
235.349	77
235.583	82
235.817	91
236.051	81
236.285	74
236.519	90
236.753	69
236.987	87
237.221	77
237.455	92
237.689	85
237.922	83
238.156	93
238.39	82
238.624	79
238.858	81
239.091	65
239.325	82
239.559	78
239.793	70
240.027	78
240.26	86
240.494	85
240.728	73
240.961	83
241.195	79
241.429	86
241.662	83
241.896	73
242.13	85
242.363	78
242.597	72
242.83	77
243.064	82
243.298	81
243.531	70
243.765	70
243.998	89
244.232	78
244.465	93
244.699	74
244.932	80
245.166	71
245.399	71
245.633	69
245.866	74
246.099	77
246.333	86
246.566	77
246.8	74
247.033	77
247.266	93
247.5	81
247.733	70
247.966	70
248.2	72
248.433	83
248.666	69
248.899	80
249.133	78
249.366	69
249.599	73
249.832	81
250.066	87
250.299	67
250.532	96
250.765	86
250.998	83
251.231	67
251.465	75
251.698	79
251.931	81
252.164	78
252.397	80
252.63	84
252.863	78
253.096	85
253.329	75
253.562	82
253.795	90
254.028	82
254.261	83
254.494	100
254.727	86
254.96	88
255.193	75
255.426	96
255.659	81
255.892	85
256.124	77
256.357	87
256.59	80
256.823	85
257.056	74
257.289	81
257.521	97
257.754	81
257.987	84
258.22	77
258.452	74
258.685	98
258.918	78
259.151	72
259.383	87
259.616	81
259.849	79
260.081	80
260.314	87
260.547	78
260.779	74
261.012	86
261.244	86
261.477	86
261.71	81
261.942	82
262.175	94
262.407	91
262.64	80
262.872	85
263.105	84
263.337	85
263.57	93
263.802	84
264.035	86
264.267	81
264.499	80
264.732	84
264.964	84
265.197	91
265.429	93
265.661	73
265.894	85
266.126	81
266.358	87
266.591	87
266.823	101
267.055	66
267.287	73
267.52	71
267.752	86
267.984	86
268.216	79
268.448	78
268.681	85
268.913	87
269.145	90
269.377	91
269.609	99
269.841	76
270.073	92
270.306	88
270.538	105
270.77	98
271.002	85
271.234	87
271.466	72
271.698	83
271.93	85
272.162	78
272.394	80
272.626	83
272.858	88
273.09	86
273.322	70
273.553	80
273.785	88
274.017	88
274.249	101
274.481	89
274.713	82
274.945	89
275.176	79
275.408	79
275.64	99
275.872	83
276.104	78
276.335	89
276.567	89
276.799	83
277.031	80
277.262	79
277.494	68
277.726	87
277.957	96
278.189	88
278.421	104
278.652	87
278.884	77
279.115	92
279.347	73
279.579	85
279.81	81
280.042	85
280.273	66
280.505	87
280.736	91
280.968	77
281.199	87
281.431	80
281.662	90
281.894	99
282.125	92
282.356	87
282.588	83
282.819	93
283.051	86
283.282	91
283.513	82
283.745	87
283.976	88
284.207	94
284.439	97
284.67	100
284.901	83
285.132	90
285.364	79
285.595	88
285.826	76
286.057	82
286.288	93
286.52	67
286.751	108
286.982	82
287.213	88
287.444	95
287.675	76
287.906	82
288.138	95
288.369	79
288.6	88
288.831	92
289.062	83
289.293	90
289.524	86
289.755	85
289.986	68
290.217	104
290.448	85
290.679	84
290.91	87
291.141	84
291.371	83
291.602	90
291.833	101
292.064	91
292.295	81
292.526	76
292.757	78
292.987	89
293.218	90
293.449	77
293.68	104
293.91	85
294.141	97
294.372	98
294.603	100
294.833	87
295.064	79
295.295	82
295.525	95
295.756	90
295.987	76
296.217	92
296.448	90
296.679	88
296.909	88
297.14	89
297.37	76
297.601	99
297.831	76
298.062	81
298.292	76
298.523	94
298.753	91
298.984	79
299.214	78
299.445	87
299.675	80
299.905	84
300.136	85
300.366	82
300.597	89
300.827	91
301.057	90
301.288	95
301.518	93
301.748	79
301.979	88
302.209	83
302.439	80
302.669	77
302.9	91
303.13	88
303.36	85
303.59	97
303.82	91
304.051	79
304.281	99
304.511	113
304.741	79
304.971	100
305.201	85
305.431	78
305.661	83
305.891	83
306.121	74
306.352	75
306.582	85
306.812	91
307.042	91
307.272	101
307.502	76
307.731	89
307.961	88
308.191	73
308.421	82
308.651	81
308.881	96
309.111	102
309.341	74
309.571	91
309.8	86
310.03	82
310.26	83
310.49	103
310.72	81
310.949	82
311.179	86
311.409	98
311.639	92
311.868	97
312.098	82
312.328	83
312.557	89
312.787	79
313.017	77
313.246	97
313.476	98
313.706	90
313.935	91
314.165	84
314.394	78
314.624	83
314.853	106
315.083	92
315.312	81
315.542	90
315.771	99
316.001	87
316.23	92
316.46	72
316.689	94
316.919	85
317.148	93
317.377	89
317.607	89
317.836	85
318.065	68
318.295	88
318.524	57
318.753	83
318.983	100
319.212	82
319.441	84
319.67	74
319.9	88
320.129	90
320.358	91
320.587	87
320.816	88
321.046	86
321.275	77
321.504	78
321.733	98
321.962	79
322.191	98
322.42	94
322.649	97
322.878	93
323.108	88
323.337	92
323.566	74
323.795	86
324.024	90
324.253	79
324.482	85
324.71	82
324.939	84
325.168	73
325.397	92
325.626	89
325.855	93
326.084	89
326.313	74
326.542	95
326.77	76
326.999	84
327.228	80
327.457	82
327.686	88
327.914	80
328.143	96
328.372	86
328.6	81
328.829	85
329.058	90
329.287	85
329.515	77
329.744	71
329.972	87
330.201	84
330.43	75
330.658	87
330.887	98
331.115	76
331.344	79
331.572	82
331.801	81
332.03	88
332.258	81
332.486	85
332.715	76
332.943	89
333.172	80
333.4	95
333.629	87
333.857	91
334.085	81
334.314	92
334.542	76
334.771	77
334.999	95
335.227	87
335.455	78
335.684	95
335.912	103
336.14	98
336.369	97
336.597	95
336.825	81
337.053	85
337.281	69
337.51	85
337.738	97
337.966	103
338.194	96
338.422	84
338.65	85
338.878	91
339.106	82
339.334	97
339.562	86
339.79	81
340.018	86
340.246	94
340.474	82
340.702	81
340.93	91
341.158	82
341.386	84
341.614	85
341.842	83
342.07	78
342.298	90
342.526	82
342.754	81
342.981	81
343.209	92
343.437	92
343.665	92
343.893	89
344.12	89
344.348	82
344.576	84
344.804	88
345.031	86
345.259	82
345.487	87
345.714	95
345.942	87
346.17	74
346.397	89
346.625	92
346.853	83
347.08	85
347.308	83
347.535	80
347.763	88
347.99	84
348.218	96
348.445	103
348.673	87
348.9	82
349.128	72
349.355	83
349.583	89
349.81	99
350.037	93
350.265	83
350.492	89
350.72	85
350.947	85
351.174	79
351.402	93
351.629	88
351.856	91
352.083	89
352.311	86
352.538	77
352.765	84
352.992	71
353.22	78
353.447	83
353.674	89
353.901	98
354.128	93
354.355	88
354.583	76
354.81	73
355.037	83
355.264	86
355.491	90
355.718	92
355.945	76
356.172	86
356.399	86
356.626	70
356.853	92
357.08	84
357.307	94
357.534	72
357.761	83
357.988	90
358.215	95
358.441	77
358.668	88
358.895	79
359.122	83
359.349	90
359.576	93
359.802	77
360.029	91
360.256	86
360.483	98
360.709	90
360.936	96
361.163	79
361.39	89
361.616	92
361.843	90
362.07	87
362.296	90
362.523	84
362.749	84
362.976	78
363.203	83
363.429	80
363.656	71
363.882	80
364.109	95
364.335	79
364.562	79
364.788	83
365.015	93
365.241	78
365.468	89
365.694	97
365.92	78
366.147	106
366.373	94
366.599	76
366.826	85
367.052	83
367.278	76
367.505	83
367.731	97
367.957	86
368.184	83
368.41	78
368.636	105
368.862	89
369.089	78
369.315	97
369.541	75
369.767	88
369.993	92
370.219	82
370.445	86
370.672	70
370.898	83
371.124	87
371.35	91
371.576	79
371.802	70
372.028	86
372.254	78
372.48	81
372.706	84
372.932	67
373.158	78
373.384	85
373.61	88
373.835	93
374.061	83
374.287	78
374.513	76
374.739	86
374.965	92
375.191	78
375.416	85
375.642	93
375.868	86
376.094	83
376.319	76
376.545	95
376.771	77
376.997	79
377.222	96
377.448	94
377.674	84
377.899	85
378.125	85
378.35	97
378.576	90
378.802	101
379.027	83
379.253	95
379.478	69
379.704	83
379.929	76
380.155	83
380.38	85
380.606	78
380.831	83
381.057	93
381.282	75
381.507	88
381.733	100
381.958	98
382.184	93
382.409	83
382.634	85
382.86	82
383.085	86
383.31	85
383.535	102
383.761	90
383.986	79
384.211	92
384.436	82
384.662	76
384.887	94
385.112	83
385.337	97
385.562	98
385.787	92
386.013	95
386.238	86
386.463	78
386.688	86
386.913	85
387.138	69
387.363	77
387.588	88
387.813	86
388.038	90
388.263	99
388.488	76
388.713	94
388.938	85
389.163	88
389.387	79
389.612	80
389.837	100
390.062	81
390.287	93
390.512	97
390.736	84
390.961	82
391.186	80
391.411	86
391.636	89
391.86	87
392.085	92
392.31	91
392.534	80
392.759	89
392.984	82
393.208	93
393.433	86
393.658	89
393.882	89
394.107	86
394.331	79
394.556	78
394.78	92
395.005	87
395.229	84
395.454	95
395.678	85
395.903	89
396.127	79
396.352	91
396.576	93
396.801	91
397.025	86
397.249	83
397.474	92
397.698	91
397.922	92
398.147	73
398.371	78
398.595	93
398.82	93
399.044	75
399.268	83
399.492	92
399.717	91
399.941	98
400.165	94
400.389	73
400.613	88
400.837	77
401.062	79
401.286	94
401.51	84
401.734	96
401.958	92
402.182	78
402.406	94
402.63	72
402.854	85
403.078	84
403.302	93
403.526	86
403.75	93
403.974	98
404.198	83
404.422	91
404.645	74
404.869	86
405.093	86
405.317	84
405.541	85
405.765	77
405.988	78
406.212	88
406.436	95
406.66	81
406.883	86
407.107	88
407.331	88
407.555	87
407.778	78
408.002	82
408.226	93
408.449	75
408.673	84
408.896	85
409.12	93
409.344	89
409.567	77
409.791	76
410.014	91
410.238	76
410.461	102
410.685	79
410.908	87
411.132	84
411.355	84
411.578	83
411.802	99
412.025	82
412.249	91
412.472	92
412.695	91
412.919	84
413.142	86
413.365	94
413.589	93
413.812	81
414.035	84
414.258	84
414.482	83
414.705	75
414.928	86
415.151	91
415.374	93
415.597	99
415.821	100
416.044	98
416.267	89
416.49	98
416.713	88
416.936	75
417.159	63
417.382	88
417.605	81
417.828	86
418.051	83
418.274	92
418.497	101
418.72	99
418.943	85
419.166	84
419.389	90
419.611	84
419.834	77
420.057	94
420.28	77
420.503	87
420.726	91
420.948	73
421.171	84
421.394	79
421.617	107
421.839	78
422.062	86
422.285	79
422.507	89
422.73	81
422.953	86
423.175	97
423.398	76
423.621	102
423.843	85
424.066	99
424.288	93
424.511	96
424.733	104
424.956	88
425.178	82
425.401	99
425.623	101
425.846	71
426.068	80
426.291	93
426.513	89
426.735	88
426.958	86
427.18	95
427.402	98
427.625	99
427.847	85
428.069	79
428.292	77
428.514	77
428.736	73
428.958	87
429.181	92
429.403	100
429.625	92
429.847	77
430.069	90
430.292	89
430.514	92
430.736	90
430.958	90
431.18	75
431.402	97
431.624	91
431.846	99
432.068	66
432.29	76
432.512	89
432.734	91
432.956	102
433.178	88
433.4	98
433.622	95
433.844	101
434.066	90
434.287	88
434.509	84
434.731	94
434.953	83
435.175	85
435.397	98
435.618	88
435.84	97
436.062	99
436.284	87
436.505	84
436.727	93
436.949	85
437.17	91
437.392	69
437.614	72
437.835	86
438.057	78
438.278	83
438.5	93
438.721	97
438.943	100
439.165	102
439.386	97
439.608	95
439.829	75
440.05	101
440.272	88
440.493	76
440.715	85
440.936	89
441.158	101
441.379	90
441.6	94
441.822	93
442.043	93
442.264	79
442.486	79
442.707	100
442.928	91
443.149	98
443.371	87
443.592	84
443.813	90
444.034	104
444.255	94
444.476	101
444.698	102
444.919	88
445.14	186
445.361	143
445.582	112
445.803	103
446.024	94
446.245	86
446.466	93
446.687	93
446.908	100
447.129	98
447.35	93
447.571	104
447.792	87
448.013	81
448.234	89
448.455	93
448.675	91
448.896	82
449.117	82
449.338	87
449.559	106
449.779	78
450	96
450.221	83
450.442	84
450.662	89
450.883	87
451.104	76
451.324	94
451.545	81
451.766	85
451.986	89
452.207	99
452.428	87
452.648	95
452.869	72
453.089	93
453.31	94
453.53	93
453.751	87
453.971	80
454.192	84
454.412	80
454.633	93
454.853	80
455.073	94
455.294	91
455.514	91
455.734	97
455.955	81
456.175	89
456.395	91
456.616	76
456.836	97
457.056	62
457.276	85
457.497	85
457.717	87
457.937	85
458.157	76
458.377	82
458.598	87
458.818	83
459.038	76
459.258	87
459.478	79
459.698	78
459.918	80
460.138	92
460.358	85
460.578	90
460.798	89
461.018	83
461.238	77
461.458	83
461.678	81
461.898	85
462.118	83
462.338	93
462.558	80
462.777	89
462.997	92
463.217	85
463.437	96
463.657	96
463.876	96
464.096	88
464.316	97
464.536	85
464.755	88
464.975	85
465.195	90
465.414	97
465.634	99
465.854	96
466.073	81
466.293	84
466.512	79
466.732	86
466.951	88
467.171	97
467.391	92
467.61	85
467.829	106
468.049	97
468.268	81
468.488	90
468.707	91
468.927	94
469.146	86
469.365	103
469.585	99
469.804	88
470.023	91
470.243	96
470.462	102
470.681	85
470.901	86
471.12	91
471.339	94
471.558	80
471.777	87
471.997	95
472.216	86
472.435	98
472.654	86
472.873	79
473.092	75
473.311	93
473.53	77
473.749	79
473.968	89
474.187	91
474.406	78
474.625	94
474.844	84
475.063	91
475.282	97
475.501	94
475.72	76
475.939	86
476.158	94
476.377	102
476.596	92
476.814	93
477.033	84
477.252	85
477.471	90
477.69	99
477.908	87
478.127	82
478.346	81
478.564	96
478.783	93
479.002	101
479.22	96
479.439	94
479.658	82
479.876	88
480.095	99
480.313	96
480.532	100
480.751	83
480.969	82
481.188	88
481.406	100
481.624	104
481.843	92
482.061	85
482.28	83
482.498	88
482.717	98
482.935	92
483.153	92
483.372	100
483.59	78
483.808	83
484.027	82
484.245	93
484.463	86
484.681	114
484.9	85
485.118	103
485.336	102
485.554	97
485.772	81
485.99	95
486.209	87
486.427	85
486.645	95
486.863	101
487.081	88
487.299	87
487.517	105
487.735	95
487.953	94
488.171	100
488.389	94
488.607	98
488.825	78
489.043	100
489.261	93
489.479	90
489.696	102
489.914	115
490.132	88
490.35	97
490.568	108
490.786	108
491.003	94
491.221	103
491.439	93
491.657	110
491.874	123
492.092	114
492.31	107
492.527	103
492.745	101
492.963	98
493.18	110
493.398	104
493.615	101
493.833	102
494.05	85
494.268	98
494.485	112
494.703	102
494.92	94
495.138	101
495.355	92
495.573	105
495.79	95
496.008	90
496.225	87
496.442	97
496.66	93
496.877	96
497.094	115
497.312	97
497.529	91
497.746	105
497.963	92
498.181	93
498.398	98
498.615	95
498.832	90
499.049	87
499.267	74
499.484	86
499.701	91
499.918	88
500.135	105
500.352	100
500.569	86
500.786	78
501.003	91
501.22	99
501.437	85
501.654	87
501.871	90
502.088	83
502.305	93
502.522	93
502.739	100
502.956	94
503.172	95
503.389	89
503.606	87
503.823	106
504.04	97
504.256	105
504.473	83
504.69	98
504.907	89
505.123	85
505.34	95
505.557	89
505.773	90
505.99	93
506.207	85
506.423	87
506.64	97
506.856	90
507.073	81
507.289	90
507.506	83
507.722	96
507.939	84
508.155	86
508.372	84
508.588	78
508.805	96
509.021	90
509.238	83
509.454	78
509.67	84
509.887	78
510.103	84
510.319	89
510.536	85
510.752	93
510.968	99
511.184	83
511.401	91
511.617	83
511.833	79
512.049	100
512.265	87
512.481	79
512.698	77
512.914	89
513.13	77
513.346	91
513.562	93
513.778	69
513.994	89
514.21	98
514.426	82
514.642	77
514.858	101
515.074	93
515.29	88
515.506	86
515.721	79
515.937	81
516.153	80
516.369	77
516.585	84
516.801	67
517.016	93
517.232	88
517.448	94
517.664	101
517.879	80
518.095	80
518.311	87
518.527	90
518.742	97
518.958	84
519.173	91
519.389	94
519.605	88
519.82	94
520.036	85
520.251	81
520.467	89
520.682	95
520.898	79
521.113	100
521.329	99
521.544	83
521.76	82
521.975	69
522.19	87
522.406	74
522.621	84
522.836	99
523.052	83
523.267	103
523.482	91
523.698	103
523.913	96
524.128	83
524.343	91
524.559	89
524.774	104
524.989	88
525.204	88
525.419	86
525.634	100
525.849	86
526.064	90
526.28	93
526.495	82
526.71	84
526.925	78
527.14	83
527.355	92
527.57	88
527.785	90
527.999	91
528.214	92
528.429	89
528.644	92
528.859	101
529.074	94
529.289	100
529.503	90
529.718	96
529.933	87
530.148	98
530.363	84
530.577	71
530.792	83
531.007	80
531.221	90
531.436	88
531.651	83
531.865	94
532.08	94
532.295	91
532.509	78
532.724	88
532.938	84
533.153	88
533.367	81
533.582	79
533.796	97
534.011	87
534.225	87
534.44	82
534.654	92
534.868	92
535.083	71
535.297	80
535.511	87
535.726	86
535.94	90
536.154	82
536.369	85
536.583	90
536.797	89
537.011	81
537.225	70
537.44	77
537.654	77
537.868	85
538.082	88
538.296	93
538.51	87
538.724	103
538.938	92
539.153	103
539.367	95
539.581	99
539.795	94
540.009	105
540.222	82
540.436	86
540.65	97
540.864	76
541.078	87
541.292	94
541.506	98
541.72	98
541.934	118
542.147	120
542.361	93
542.575	99
542.789	96
543.002	102
543.216	89
543.43	92
543.644	96
543.857	106
544.071	103
544.285	90
544.498	102
544.712	89
544.925	93
545.139	99
545.352	103
545.566	96
545.779	105
545.993	101
546.206	93
546.42	98
546.633	107
546.847	93
547.06	116
547.274	85
547.487	103
547.7	79
547.914	94
548.127	105
548.34	96
548.554	93
548.767	83
548.98	102
549.193	90
549.407	84
549.62	98
549.833	96
550.046	89
550.259	97
550.473	86
550.686	103
550.899	90
551.112	108
551.325	98
551.538	94
551.751	95
551.964	87
552.177	72
552.39	92
552.603	92
552.816	102
553.029	94
553.242	110
553.455	96
553.667	93
553.88	103
554.093	97
554.306	88
554.519	115
554.732	100
554.944	90
555.157	86
555.37	107
555.583	107
555.795	105
556.008	90
556.221	87
556.433	90
556.646	89
556.859	104
557.071	92
557.284	97
557.496	98
557.709	83
557.921	90
558.134	96
558.346	102
558.559	92
558.771	104
558.984	90
559.196	103
559.409	94
559.621	108
559.833	84
560.046	83
560.258	91
560.47	94
560.683	113
560.895	85
561.107	84
561.32	98
561.532	101
561.744	100
561.956	102
562.168	85
562.381	90
562.593	105
562.805	96
563.017	67
563.229	82
563.441	91
563.653	97
563.865	97
564.077	81
564.289	82
564.501	93
564.713	81
564.925	92
565.137	87
565.349	90
565.561	99
565.773	103
565.985	94
566.197	77
566.408	87
566.62	83
566.832	97
567.044	99
567.255	102
567.467	90
567.679	87
567.891	95
568.102	84
568.314	80
568.526	86
568.737	79
568.949	98
569.161	96
569.372	84
569.584	91
569.795	77
570.007	86
570.218	83
570.43	84
570.641	84
570.853	85
571.064	86
571.276	85
571.487	96
571.698	89
571.91	81
572.121	93
572.333	104
572.544	93
572.755	87
572.966	84
573.178	83
573.389	90
573.6	95
573.811	80
574.023	83
574.234	92
574.445	91
574.656	79
574.867	80
575.078	75
575.289	86
575.501	86
575.712	92
575.923	85
576.134	85
576.345	86
576.556	98
576.767	90
576.978	79
577.188	93
577.399	96
577.61	91
577.821	83
578.032	87
578.243	79
578.454	79
578.665	96
578.875	92
579.086	94
579.297	91
579.508	83
579.718	81
579.929	85
580.14	82
580.35	84
580.561	85
580.772	72
580.982	87
581.193	90
581.403	89
581.614	90
581.825	84
582.035	75
582.246	95
582.456	87
582.667	93
582.877	83
583.087	87
583.298	86
583.508	75
583.719	99
583.929	101
584.139	89
584.35	80
584.56	91
584.77	92
584.981	87
585.191	94
585.401	81
585.611	78
585.821	89
586.032	79
586.242	89
586.452	89
586.662	93
586.872	94
587.082	86
587.292	90
587.502	96
587.713	98
587.923	79
588.133	94
588.343	79
588.553	85
588.762	79
588.972	89
589.182	106
589.392	83
589.602	84
589.812	86
590.022	69
590.232	75
590.441	87
590.651	77
590.861	97
591.071	104
591.281	95
591.49	83
591.7	87
591.91	72
592.119	85
592.329	89
592.539	89
592.748	93
592.958	88
593.167	95
593.377	83
593.587	91
593.796	103
594.006	78
594.215	93
594.424	77
594.634	82
594.843	91
595.053	96
595.262	93
595.472	75
595.681	87
595.89	96
596.1	108
596.309	98
596.518	84
596.727	78
596.937	90
597.146	79
597.355	62
597.564	98
597.774	98
597.983	90
598.192	80
598.401	66
598.61	96
598.819	96
599.028	88
599.237	81
599.446	85
599.655	97
599.864	108
600.073	97
600.282	91
600.491	75
600.7	94
600.909	96
601.118	101
601.327	89
601.536	88
601.745	91
601.953	89
602.162	85
602.371	74
602.58	101
602.789	86
602.997	95
603.206	102
603.415	99
603.623	92
603.832	82
604.041	97
604.249	102
604.458	103
604.666	87
604.875	89
605.084	87
605.292	87
605.501	83
605.709	85
605.918	98
606.126	105
606.334	88
606.543	106
606.751	84
606.96	100
607.168	101
607.376	77
607.585	94
607.793	103
608.001	95
608.21	85
608.418	106
608.626	87
608.834	94
609.043	88
609.251	105
609.459	92
609.667	102
609.875	115
610.083	81
610.291	98
610.499	90
610.707	92
610.916	85
611.124	88
611.332	90
611.54	96
611.748	97
611.955	92
612.163	88
612.371	84
612.579	75
612.787	83
612.995	93
613.203	99
613.411	85
613.618	82
613.826	83
614.034	85
614.242	79
614.449	85
614.657	82
614.865	93
615.072	79
615.28	83
615.488	82
615.695	87
615.903	90
616.111	90
616.318	89
616.526	79
616.733	97
616.941	101
617.148	87
617.356	94
617.563	98
617.771	85
617.978	98
618.185	91
618.393	91
618.6	89
618.807	84
619.015	78
619.222	91
619.429	92
619.637	100
619.844	91
620.051	74
620.258	89
620.466	86
620.673	91
620.88	84
621.087	100
621.294	84
621.501	84
621.708	73
621.915	89
622.122	90
622.329	106
622.536	92
622.743	92
622.95	77
623.157	95
623.364	80
623.571	93
623.778	96
623.985	87
624.192	86
624.399	91
624.606	101
624.812	101
625.019	87
625.226	73
625.433	90
625.639	90
625.846	90
626.053	86
626.259	89
626.466	97
626.673	73
626.879	85
627.086	89
627.293	99
627.499	98
627.706	76
627.912	87
628.119	83
628.325	97
628.532	85
628.738	80
628.945	99
629.151	82
629.357	80
629.564	90
629.77	81
629.976	90
630.183	96
630.389	101
630.595	92
630.802	86
631.008	78
631.214	84
631.42	95
631.627	91
631.833	92
632.039	98
632.245	97
632.451	96
632.657	88
632.863	81
633.069	83
633.275	89
633.481	89
633.688	88
633.893	76
634.099	73
634.305	91
634.511	87
634.717	85
634.923	96
635.129	89
635.335	85
635.541	93
635.747	96
635.952	88
636.158	90
636.364	94
636.57	79
636.775	83
636.981	89
637.187	96
637.392	102
637.598	86
637.804	96
638.009	90
638.215	98
638.421	80
638.626	80
638.832	104
639.037	108
639.243	109
639.448	91
639.654	91
639.859	79
640.065	87
640.27	100
640.475	89
640.681	84
640.886	90
641.091	80
641.297	94
641.502	81
641.707	69
641.913	88
642.118	91
642.323	97
642.528	88
642.733	102
642.939	92
643.144	71
643.349	93
643.554	81
643.759	76
643.964	100
644.169	67
644.374	100
644.579	94
644.784	92
644.989	81
645.194	78
645.399	96
645.604	78
645.809	97
646.014	83
646.219	86
646.423	85
646.628	91
646.833	83
647.038	95
647.243	85
647.447	86
647.652	78
647.857	89
648.062	100
648.266	97
648.471	75
648.676	89
648.88	80
649.085	89
649.289	88
649.494	89
649.698	76
649.903	96
650.107	82
650.312	101
650.516	86
650.721	91
650.925	78
651.13	78
651.334	86
651.539	74
651.743	75
651.947	90
652.152	91
652.356	76
652.56	94
652.764	92
652.969	92
653.173	88
653.377	93
653.581	91
653.785	91
653.99	80
654.194	89
654.398	79
654.602	96
654.806	85
655.01	83
655.214	83
655.418	87
655.622	79
655.826	87
656.03	84
656.234	82
656.438	90
656.642	86
656.846	100
657.049	91
657.253	92
657.457	90
657.661	75
657.865	84
658.068	95
658.272	84
658.476	91
658.68	81
658.883	79
659.087	78
659.291	92
659.494	89
659.698	80
659.901	86
660.105	85
660.309	64
660.512	84
660.716	99
660.919	91
661.123	104
661.326	91
661.53	79
661.733	85
661.936	79
662.14	84
662.343	96
662.546	79
662.75	89
662.953	87
663.156	90
663.36	86
663.563	88
663.766	83
663.969	94
664.173	77
664.376	86
664.579	90
664.782	79
664.985	74
665.188	77
665.391	97
665.594	93
665.797	79
666	75
666.203	88
666.406	79
666.609	78
666.812	88
667.015	77
667.218	87
667.421	89
667.624	91
667.827	86
668.03	84
668.232	87
668.435	91
668.638	84
668.841	84
669.043	86
669.246	97
669.449	81
669.651	83
669.854	79
670.057	73
670.259	82
670.462	93
670.665	77
670.867	85
671.07	85
671.272	78
671.475	107
671.677	115
671.88	90
672.082	78
672.284	81
672.487	88
672.689	85
672.892	79
