Data from Zn(NO3)2Standard.Agarose3%.GreenCap.LampEnergy5.5.E.O_HRD10591_15-01-41-767.txt Node
Date: Mon Jul 22 15:01:41 EDT 2019
User: cochatt
Spectrometer: HR+D1059
Trigger mode: 1
Integration Time (sec): 1.000000E-1
Scans to average: 1
Electric dark correction enabled: true
Nonlinearity correction enabled: false
Boxcar width: 0
XAxis mode: Wavelengths
Number of Pixels in Spectrum: 2048
>>>>>Begin Spectral Data<<<<<
223.165	-11
223.4	-11
223.635	-11
223.869	-16
224.104	-9
224.338	-25
224.573	-19
224.808	2
225.042	-7
225.277	-23
225.511	-2
225.746	-4
225.98	16
226.215	6
226.449	18
226.683	21
226.918	15
227.152	38
227.387	27
227.621	43
227.856	40
228.09	47
228.324	44
228.559	43
228.793	57
229.027	64
229.262	48
229.496	76
229.73	72
229.964	82
230.199	77
230.433	57
230.667	76
230.901	84
231.136	75
231.37	68
231.604	63
231.838	82
232.072	85
232.306	80
232.541	85
232.775	80
233.009	90
233.243	93
233.477	78
233.711	84
233.945	89
234.179	75
234.413	84
234.647	84
234.881	84
235.115	76
235.349	74
235.583	82
235.817	83
236.051	78
236.285	81
236.519	84
236.753	75
236.987	64
237.221	76
237.455	70
237.689	85
237.922	90
238.156	81
238.39	82
238.624	73
238.858	82
239.091	77
239.325	80
239.559	76
239.793	65
240.027	84
240.26	70
240.494	72
240.728	82
240.961	77
241.195	74
241.429	66
241.662	74
241.896	80
242.13	76
242.363	86
242.597	90
242.83	74
243.064	80
243.298	74
243.531	79
243.765	85
243.998	78
244.232	70
244.465	75
244.699	85
244.932	87
245.166	85
245.399	78
245.633	76
245.866	87
246.099	79
246.333	91
246.566	78
246.8	80
247.033	74
247.266	79
247.5	72
247.733	69
247.966	79
248.2	78
248.433	83
248.666	78
248.899	79
249.133	82
249.366	84
249.599	80
249.832	57
250.066	81
250.299	85
250.532	82
250.765	86
250.998	85
251.231	88
251.465	77
251.698	78
251.931	70
252.164	81
252.397	77
252.63	77
252.863	78
253.096	66
253.329	73
253.562	70
253.795	81
254.028	74
254.261	79
254.494	82
254.727	93
254.96	73
255.193	86
255.426	78
255.659	97
255.892	90
256.124	85
256.357	82
256.59	89
256.823	78
257.056	87
257.289	88
257.521	75
257.754	72
257.987	78
258.22	85
258.452	82
258.685	68
258.918	83
259.151	94
259.383	87
259.616	62
259.849	82
260.081	87
260.314	81
260.547	87
260.779	96
261.012	86
261.244	71
261.477	95
261.71	88
261.942	94
262.175	92
262.407	74
262.64	64
262.872	79
263.105	88
263.337	96
263.57	86
263.802	85
264.035	84
264.267	76
264.499	78
264.732	83
264.964	91
265.197	90
265.429	77
265.661	77
265.894	78
266.126	90
266.358	87
266.591	75
266.823	79
267.055	84
267.287	77
267.52	87
267.752	97
267.984	92
268.216	92
268.448	74
268.681	75
268.913	91
269.145	81
269.377	78
269.609	71
269.841	88
270.073	73
270.306	92
270.538	74
270.77	81
271.002	86
271.234	73
271.466	74
271.698	95
271.93	67
272.162	84
272.394	91
272.626	78
272.858	81
273.09	79
273.322	87
273.553	86
273.785	83
274.017	98
274.249	80
274.481	77
274.713	88
274.945	78
275.176	84
275.408	90
275.64	78
275.872	79
276.104	88
276.335	79
276.567	86
276.799	69
277.031	84
277.262	84
277.494	93
277.726	96
277.957	86
278.189	84
278.421	85
278.652	87
278.884	85
279.115	92
279.347	90
279.579	84
279.81	76
280.042	88
280.273	86
280.505	90
280.736	92
280.968	84
281.199	78
281.431	81
281.662	77
281.894	72
282.125	92
282.356	86
282.588	91
282.819	88
283.051	88
283.282	81
283.513	81
283.745	65
283.976	87
284.207	91
284.439	96
284.67	93
284.901	77
285.132	81
285.364	84
285.595	77
285.826	87
286.057	90
286.288	87
286.52	82
286.751	81
286.982	79
287.213	83
287.444	74
287.675	82
287.906	88
288.138	81
288.369	84
288.6	98
288.831	96
289.062	78
289.293	73
289.524	77
289.755	86
289.986	84
290.217	84
290.448	71
290.679	89
290.91	97
291.141	87
291.371	57
291.602	82
291.833	68
292.064	91
292.295	82
292.526	77
292.757	78
292.987	91
293.218	85
293.449	78
293.68	96
293.91	88
294.141	86
294.372	81
294.603	92
294.833	101
295.064	89
295.295	92
295.525	90
295.756	89
295.987	98
296.217	82
296.448	85
296.679	77
296.909	91
297.14	92
297.37	88
297.601	94
297.831	76
298.062	97
298.292	91
298.523	81
298.753	77
298.984	84
299.214	92
299.445	90
299.675	83
299.905	89
300.136	73
300.366	77
300.597	80
300.827	82
301.057	77
301.288	70
301.518	81
301.748	94
301.979	91
302.209	99
302.439	87
302.669	97
302.9	74
303.13	101
303.36	92
303.59	69
303.82	81
304.051	84
304.281	92
304.511	90
304.741	71
304.971	84
305.201	82
305.431	74
305.661	88
305.891	88
306.121	79
306.352	93
306.582	84
306.812	83
307.042	84
307.272	91
307.502	73
307.731	88
307.961	95
308.191	81
308.421	80
308.651	88
308.881	93
309.111	86
309.341	70
309.571	91
309.8	73
310.03	82
310.26	81
310.49	84
310.72	93
310.949	82
311.179	92
311.409	93
311.639	75
311.868	86
312.098	93
312.328	74
312.557	98
312.787	90
313.017	81
313.246	80
313.476	80
313.706	91
313.935	78
314.165	79
314.394	86
314.624	94
314.853	88
315.083	90
315.312	77
315.542	72
315.771	88
316.001	92
316.23	101
316.46	83
316.689	79
316.919	80
317.148	93
317.377	86
317.607	94
317.836	84
318.065	90
318.295	75
318.524	81
318.753	77
318.983	92
319.212	80
319.441	94
319.67	86
319.9	62
320.129	76
320.358	80
320.587	98
320.816	89
321.046	77
321.275	94
321.504	84
321.733	75
321.962	89
322.191	85
322.42	94
322.649	73
322.878	84
323.108	89
323.337	81
323.566	79
323.795	92
324.024	86
324.253	89
324.482	78
324.71	97
324.939	84
325.168	80
325.397	95
325.626	87
325.855	82
326.084	79
326.313	78
326.542	87
326.77	92
326.999	70
327.228	82
327.457	88
327.686	90
327.914	77
328.143	91
328.372	83
328.6	82
328.829	98
329.058	92
329.287	100
329.515	83
329.744	89
329.972	89
330.201	89
330.43	76
330.658	94
330.887	86
331.115	89
331.344	94
331.572	92
331.801	85
332.03	95
332.258	79
332.486	84
332.715	87
332.943	86
333.172	80
333.4	83
333.629	104
333.857	91
334.085	84
334.314	91
334.542	92
334.771	70
334.999	83
335.227	83
335.455	79
335.684	93
335.912	85
336.14	82
336.369	81
336.597	80
336.825	89
337.053	92
337.281	82
337.51	97
337.738	78
337.966	92
338.194	82
338.422	89
338.65	78
338.878	86
339.106	86
339.334	99
339.562	91
339.79	81
340.018	81
340.246	88
340.474	88
340.702	74
340.93	91
341.158	70
341.386	72
341.614	95
341.842	77
342.07	81
342.298	80
342.526	80
342.754	84
342.981	81
343.209	88
343.437	91
343.665	95
343.893	93
344.12	84
344.348	85
344.576	79
344.804	83
345.031	97
345.259	77
345.487	91
345.714	84
345.942	86
346.17	88
346.397	70
346.625	84
346.853	82
347.08	77
347.308	75
347.535	78
347.763	83
347.99	82
348.218	88
348.445	94
348.673	76
348.9	92
349.128	92
349.355	84
349.583	78
349.81	87
350.037	93
350.265	100
350.492	81
350.72	76
350.947	79
351.174	91
351.402	88
351.629	94
351.856	82
352.083	94
352.311	91
352.538	77
352.765	78
352.992	87
353.22	77
353.447	82
353.674	94
353.901	85
354.128	88
354.355	77
354.583	83
354.81	68
355.037	76
355.264	84
355.491	76
355.718	78
355.945	85
356.172	83
356.399	85
356.626	88
356.853	81
357.08	72
357.307	87
357.534	91
357.761	84
357.988	92
358.215	96
358.441	91
358.668	61
358.895	73
359.122	80
359.349	89
359.576	96
359.802	73
360.029	87
360.256	88
360.483	82
360.709	93
360.936	81
361.163	98
361.39	84
361.616	83
361.843	69
362.07	81
362.296	74
362.523	80
362.749	88
362.976	90
363.203	82
363.429	76
363.656	81
363.882	85
364.109	103
364.335	94
364.562	81
364.788	82
365.015	97
365.241	91
365.468	85
365.694	83
365.92	92
366.147	87
366.373	79
366.599	98
366.826	78
367.052	97
367.278	83
367.505	82
367.731	77
367.957	75
368.184	84
368.41	77
368.636	84
368.862	100
369.089	82
369.315	83
369.541	78
369.767	78
369.993	86
370.219	84
370.445	73
370.672	88
370.898	92
371.124	94
371.35	73
371.576	88
371.802	78
372.028	85
372.254	66
372.48	70
372.706	90
372.932	87
373.158	91
373.384	88
373.61	85
373.835	89
374.061	75
374.287	85
374.513	74
374.739	88
374.965	81
375.191	84
375.416	84
375.642	78
375.868	74
376.094	84
376.319	80
376.545	77
376.771	98
376.997	77
377.222	82
377.448	84
377.674	77
377.899	90
378.125	95
378.35	93
378.576	85
378.802	79
379.027	87
379.253	73
379.478	97
379.704	94
379.929	75
380.155	84
380.38	77
380.606	80
380.831	86
381.057	85
381.282	81
381.507	74
381.733	77
381.958	70
382.184	83
382.409	83
382.634	75
382.86	76
383.085	78
383.31	83
383.535	92
383.761	84
383.986	94
384.211	76
384.436	98
384.662	71
384.887	92
385.112	93
385.337	95
385.562	78
385.787	83
386.013	92
386.238	77
386.463	69
386.688	69
386.913	89
387.138	76
387.363	93
387.588	80
387.813	79
388.038	86
388.263	94
388.488	82
388.713	74
388.938	77
389.163	81
389.387	93
389.612	74
389.837	87
390.062	92
390.287	75
390.512	75
390.736	78
390.961	76
391.186	78
391.411	85
391.636	86
391.86	86
392.085	90
392.31	89
392.534	86
392.759	89
392.984	92
393.208	98
393.433	83
393.658	88
393.882	96
394.107	81
394.331	86
394.556	92
394.78	101
395.005	76
395.229	84
395.454	88
395.678	78
395.903	79
396.127	77
396.352	82
396.576	82
396.801	89
397.025	75
397.249	82
397.474	72
397.698	81
397.922	85
398.147	65
398.371	93
398.595	66
398.82	84
399.044	86
399.268	90
399.492	86
399.717	79
399.941	85
400.165	93
400.389	80
400.613	90
400.837	82
401.062	88
401.286	88
401.51	82
401.734	81
401.958	93
402.182	81
402.406	86
402.63	104
402.854	85
403.078	91
403.302	86
403.526	85
403.75	87
403.974	98
404.198	80
404.422	79
404.645	75
404.869	76
405.093	89
405.317	85
405.541	85
405.765	80
405.988	97
406.212	76
406.436	82
406.66	96
406.883	83
407.107	77
407.331	78
407.555	88
407.778	93
408.002	82
408.226	81
408.449	65
408.673	84
408.896	75
409.12	84
409.344	91
409.567	87
409.791	87
410.014	93
410.238	91
410.461	79
410.685	94
410.908	84
411.132	89
411.355	79
411.578	84
411.802	91
412.025	89
412.249	82
412.472	83
412.695	88
412.919	78
413.142	91
413.365	82
413.589	76
413.812	91
414.035	92
414.258	80
414.482	85
414.705	86
414.928	83
415.151	99
415.374	88
415.597	97
415.821	96
416.044	83
416.267	89
416.49	103
416.713	93
416.936	78
417.159	84
417.382	93
417.605	97
417.828	86
418.051	91
418.274	89
418.497	86
418.72	87
418.943	104
419.166	99
419.389	78
419.611	99
419.834	91
420.057	90
420.28	85
420.503	86
420.726	88
420.948	97
421.171	99
421.394	93
421.617	86
421.839	77
422.062	79
422.285	93
422.507	90
422.73	92
422.953	105
423.175	95
423.398	83
423.621	88
423.843	85
424.066	87
424.288	90
424.511	93
424.733	81
424.956	89
425.178	98
425.401	84
425.623	85
425.846	109
426.068	90
426.291	78
426.513	82
426.735	84
426.958	89
427.18	107
427.402	80
427.625	85
427.847	95
428.069	84
428.292	84
428.514	90
428.736	82
428.958	81
429.181	78
429.403	96
429.625	75
429.847	97
430.069	86
430.292	80
430.514	86
430.736	89
430.958	76
431.18	71
431.402	77
431.624	96
431.846	84
432.068	90
432.29	86
432.512	85
432.734	83
432.956	83
433.178	81
433.4	83
433.622	94
433.844	76
434.066	84
434.287	87
434.509	84
434.731	88
434.953	79
435.175	82
435.397	86
435.618	89
435.84	95
436.062	88
436.284	94
436.505	89
436.727	75
436.949	83
437.17	87
437.392	81
437.614	89
437.835	89
438.057	74
438.278	93
438.5	89
438.721	102
438.943	84
439.165	94
439.386	82
439.608	94
439.829	81
440.05	97
440.272	80
440.493	92
440.715	84
440.936	100
441.158	89
441.379	80
441.6	78
441.822	91
442.043	74
442.264	91
442.486	91
442.707	97
442.928	98
443.149	91
443.371	81
443.592	72
443.813	91
444.034	97
444.255	99
444.476	99
444.698	93
444.919	81
445.14	197
445.361	141
445.582	91
445.803	87
446.024	85
446.245	98
446.466	98
446.687	84
446.908	93
447.129	84
447.35	97
447.571	96
447.792	83
448.013	81
448.234	92
448.455	89
448.675	79
448.896	88
449.117	91
449.338	96
449.559	87
449.779	101
450	92
450.221	91
450.442	80
450.662	84
450.883	83
451.104	107
451.324	90
451.545	95
451.766	84
451.986	104
452.207	92
452.428	96
452.648	84
452.869	84
453.089	95
453.31	92
453.53	87
453.751	88
453.971	79
454.192	82
454.412	87
454.633	90
454.853	85
455.073	84
455.294	89
455.514	87
455.734	99
455.955	89
456.175	92
456.395	85
456.616	81
456.836	88
457.056	75
457.276	103
457.497	81
457.717	84
457.937	77
458.157	73
458.377	85
458.598	77
458.818	90
459.038	80
459.258	83
459.478	66
459.698	87
459.918	74
460.138	91
460.358	76
460.578	91
460.798	94
461.018	88
461.238	89
461.458	89
461.678	96
461.898	86
462.118	77
462.338	112
462.558	95
462.777	89
462.997	89
463.217	88
463.437	77
463.657	82
463.876	86
464.096	68
464.316	69
464.536	89
464.755	91
464.975	78
465.195	78
465.414	73
465.634	78
465.854	84
466.073	81
466.293	86
466.512	77
466.732	99
466.951	91
467.171	96
467.391	73
467.61	91
467.829	85
468.049	89
468.268	86
468.488	100
468.707	87
468.927	100
469.146	98
469.365	96
469.585	81
469.804	90
470.023	95
470.243	90
470.462	94
470.681	94
470.901	89
471.12	95
471.339	75
471.558	106
471.777	102
471.997	94
472.216	89
472.435	87
472.654	83
472.873	76
473.092	89
473.311	87
473.53	86
473.749	91
473.968	101
474.187	99
474.406	80
474.625	92
474.844	90
475.063	93
475.282	91
475.501	75
475.72	94
475.939	94
476.158	101
476.377	93
476.596	88
476.814	79
477.033	82
477.252	80
477.471	87
477.69	90
477.908	93
478.127	88
478.346	105
478.564	104
478.783	94
479.002	86
479.22	75
479.439	100
479.658	89
479.876	86
480.095	83
480.313	94
480.532	98
480.751	100
480.969	74
481.188	82
481.406	74
481.624	97
481.843	91
482.061	92
482.28	86
482.498	90
482.717	79
482.935	77
483.153	95
483.372	92
483.59	93
483.808	98
484.027	93
484.245	94
484.463	92
484.681	93
484.9	106
485.118	91
485.336	90
485.554	83
485.772	89
485.99	101
486.209	89
486.427	86
486.645	84
486.863	97
487.081	102
487.299	94
487.517	89
487.735	96
487.953	93
488.171	107
488.389	93
488.607	92
488.825	91
489.043	97
489.261	98
489.479	100
489.696	100
489.914	93
490.132	106
490.35	91
490.568	89
490.786	102
491.003	89
491.221	90
491.439	100
491.657	102
491.874	102
492.092	102
492.31	111
492.527	101
492.745	118
492.963	90
493.18	96
493.398	101
493.615	78
493.833	97
494.05	97
494.268	112
494.485	93
494.703	96
494.92	94
495.138	100
495.355	96
495.573	91
495.79	98
496.008	97
496.225	85
496.442	94
496.66	103
496.877	91
497.094	84
497.312	101
497.529	102
497.746	94
497.963	84
498.181	80
498.398	93
498.615	87
498.832	94
499.049	83
499.267	78
499.484	93
499.701	94
499.918	89
500.135	94
500.352	104
500.569	87
500.786	89
501.003	91
501.22	97
501.437	93
501.654	84
501.871	98
502.088	91
502.305	103
502.522	88
502.739	81
502.956	89
503.172	93
503.389	84
503.606	100
503.823	90
504.04	90
504.256	68
504.473	74
504.69	92
504.907	117
505.123	108
505.34	89
505.557	80
505.773	100
505.99	100
506.207	84
506.423	77
506.64	98
506.856	118
507.073	98
507.289	82
507.506	96
507.722	86
507.939	99
508.155	75
508.372	73
508.588	81
508.805	80
509.021	91
509.238	89
509.454	82
509.67	84
509.887	80
510.103	77
510.319	77
510.536	74
510.752	93
510.968	81
511.184	81
511.401	77
511.617	79
511.833	96
512.049	79
512.265	82
512.481	77
512.698	83
512.914	78
513.13	94
513.346	87
513.562	78
513.778	81
513.994	80
514.21	90
514.426	81
514.642	86
514.858	87
515.074	90
515.29	87
515.506	80
515.721	86
515.937	89
516.153	78
516.369	76
516.585	84
516.801	82
517.016	83
517.232	84
517.448	87
517.664	92
517.879	101
518.095	84
518.311	89
518.527	95
518.742	91
518.958	82
519.173	86
519.389	76
519.605	97
519.82	76
520.036	88
520.251	83
520.467	83
520.682	90
520.898	98
521.113	81
521.329	69
521.544	74
521.76	89
521.975	88
522.19	92
522.406	85
522.621	94
522.836	101
523.052	90
523.267	86
523.482	68
523.698	88
523.913	78
524.128	86
524.343	84
524.559	88
524.774	102
524.989	101
525.204	91
525.419	82
525.634	104
525.849	102
526.064	87
526.28	71
526.495	93
526.71	89
526.925	83
527.14	79
527.355	96
527.57	88
527.785	81
527.999	89
528.214	81
528.429	76
528.644	100
528.859	98
529.074	91
529.289	95
529.503	106
529.718	102
529.933	87
530.148	99
530.363	75
530.577	89
530.792	89
531.007	88
531.221	93
531.436	71
531.651	82
531.865	82
532.08	88
532.295	86
532.509	76
532.724	88
532.938	75
533.153	80
533.367	90
533.582	90
533.796	99
534.011	91
534.225	74
534.44	77
534.654	72
534.868	84
535.083	87
535.297	86
535.511	104
535.726	97
535.94	88
536.154	85
536.369	95
536.583	89
536.797	67
537.011	76
537.225	80
537.44	75
537.654	82
537.868	82
538.082	95
538.296	90
538.51	90
538.724	63
538.938	80
539.153	97
539.367	88
539.581	84
539.795	91
540.009	86
540.222	100
540.436	90
540.65	70
540.864	94
541.078	89
541.292	99
541.506	94
541.72	104
541.934	103
542.147	108
542.361	93
542.575	99
542.789	105
543.002	98
543.216	98
543.43	84
543.644	90
543.857	101
544.071	101
544.285	106
544.498	91
544.712	102
544.925	87
545.139	101
545.352	109
545.566	95
545.779	93
545.993	96
546.206	101
546.42	97
546.633	100
546.847	100
547.06	107
547.274	109
547.487	115
547.7	99
547.914	107
548.127	105
548.34	118
548.554	92
548.767	98
548.98	97
549.193	91
549.407	99
549.62	85
549.833	96
550.046	106
550.259	101
550.473	88
550.686	81
550.899	93
551.112	96
551.325	101
551.538	97
551.751	90
551.964	77
552.177	98
552.39	102
552.603	108
552.816	92
553.029	94
553.242	84
553.455	98
553.667	93
553.88	97
554.093	110
554.306	100
554.519	97
554.732	92
554.944	94
555.157	91
555.37	91
555.583	87
555.795	101
556.008	86
556.221	90
556.433	100
556.646	116
556.859	92
557.071	101
557.284	107
557.496	84
557.709	94
557.921	100
558.134	98
558.346	112
558.559	85
558.771	91
558.984	99
559.196	89
559.409	108
559.621	92
559.833	90
560.046	84
560.258	99
560.47	92
560.683	102
560.895	101
561.107	87
561.32	91
561.532	92
561.744	106
561.956	93
562.168	93
562.381	94
562.593	101
562.805	78
563.017	87
563.229	104
563.441	101
563.653	93
563.865	87
564.077	103
564.289	113
564.501	100
564.713	101
564.925	84
565.137	86
565.349	81
565.561	90
565.773	85
565.985	92
566.197	78
566.408	88
566.62	97
566.832	89
567.044	88
567.255	88
567.467	76
567.679	94
567.891	87
568.102	95
568.314	92
568.526	75
568.737	95
568.949	61
569.161	77
569.372	95
569.584	89
569.795	78
570.007	70
570.218	80
570.43	97
570.641	75
570.853	91
571.064	87
571.276	90
571.487	100
571.698	96
571.91	96
572.121	87
572.333	98
572.544	87
572.755	82
572.966	100
573.178	80
573.389	76
573.6	84
573.811	91
574.023	81
574.234	86
574.445	90
574.656	86
574.867	86
575.078	88
575.289	85
575.501	82
575.712	78
575.923	81
576.134	96
576.345	91
576.556	80
576.767	106
576.978	100
577.188	93
577.399	96
577.61	107
577.821	81
578.032	91
578.243	86
578.454	81
578.665	88
578.875	93
579.086	104
579.297	100
579.508	90
579.718	94
579.929	70
580.14	90
580.35	79
580.561	73
580.772	93
580.982	85
581.193	97
581.403	88
581.614	86
581.825	71
582.035	84
582.246	88
582.456	100
582.667	89
582.877	85
583.087	78
583.298	82
583.508	82
583.719	96
583.929	90
584.139	95
584.35	83
584.56	75
584.77	73
584.981	92
585.191	74
585.401	82
585.611	87
585.821	80
586.032	89
586.242	92
586.452	77
586.662	94
586.872	93
587.082	77
587.292	85
587.502	78
587.713	79
587.923	82
588.133	94
588.343	76
588.553	80
588.762	107
588.972	86
589.182	94
589.392	86
589.602	78
589.812	81
590.022	92
590.232	90
590.441	91
590.651	86
590.861	82
591.071	85
591.281	97
591.49	99
591.7	85
591.91	82
592.119	96
592.329	85
592.539	91
592.748	81
592.958	82
593.167	78
593.377	89
593.587	93
593.796	84
594.006	96
594.215	96
594.424	89
594.634	91
594.843	80
595.053	99
595.262	91
595.472	83
595.681	86
595.89	84
596.1	94
596.309	97
596.518	84
596.727	91
596.937	79
597.146	81
597.355	89
597.564	76
597.774	80
597.983	94
598.192	84
598.401	83
598.61	81
598.819	92
599.028	91
599.237	85
599.446	69
599.655	84
599.864	89
600.073	93
600.282	85
600.491	89
600.7	94
600.909	101
601.118	83
601.327	80
601.536	91
601.745	109
601.953	95
602.162	88
602.371	90
602.58	75
602.789	88
602.997	91
603.206	91
603.415	93
603.623	96
603.832	92
604.041	78
604.249	104
604.458	85
604.666	80
604.875	94
605.084	93
605.292	89
605.501	100
605.709	93
605.918	87
606.126	94
606.334	88
606.543	101
606.751	100
606.96	87
607.168	82
607.376	90
607.585	88
607.793	99
608.001	96
608.21	93
608.418	91
608.626	88
608.834	103
609.043	101
609.251	98
609.459	96
609.667	101
609.875	96
610.083	98
610.291	91
610.499	84
610.707	84
610.916	109
611.124	100
611.332	94
611.54	100
611.748	84
611.955	78
612.163	87
612.371	89
612.579	93
612.787	96
612.995	95
613.203	90
613.411	88
613.618	97
613.826	85
614.034	89
614.242	92
614.449	90
614.657	97
614.865	96
615.072	98
615.28	82
615.488	92
615.695	100
615.903	94
616.111	84
616.318	97
616.526	93
616.733	99
616.941	88
617.148	83
617.356	96
617.563	85
617.771	95
617.978	88
618.185	85
618.393	79
618.6	90
618.807	95
619.015	91
619.222	101
619.429	86
619.637	90
619.844	86
620.051	101
620.258	92
620.466	88
620.673	83
620.88	90
621.087	99
621.294	90
621.501	96
621.708	86
621.915	87
622.122	98
622.329	100
622.536	92
622.743	95
622.95	75
623.157	66
623.364	77
623.571	76
623.778	84
623.985	94
624.192	87
624.399	96
624.606	78
624.812	80
625.019	83
625.226	94
625.433	86
625.639	72
625.846	88
626.053	85
626.259	90
626.466	92
626.673	82
626.879	81
627.086	91
627.293	91
627.499	86
627.706	91
627.912	85
628.119	97
628.325	81
628.532	98
628.738	83
628.945	92
629.151	82
629.357	90
629.564	74
629.77	77
629.976	93
630.183	97
630.389	90
630.595	89
630.802	100
631.008	91
631.214	85
631.42	80
631.627	89
631.833	71
632.039	81
632.245	102
632.451	86
632.657	81
632.863	83
633.069	81
633.275	86
633.481	84
633.688	80
633.893	90
634.099	91
634.305	90
634.511	95
634.717	83
634.923	88
635.129	92
635.335	85
635.541	88
635.747	93
635.952	91
636.158	87
636.364	83
636.57	93
636.775	102
636.981	86
637.187	96
637.392	84
637.598	78
637.804	109
638.009	93
638.215	68
638.421	92
638.626	87
638.832	89
639.037	95
639.243	101
639.448	93
639.654	88
639.859	88
640.065	87
640.27	99
640.475	87
640.681	101
640.886	91
641.091	90
641.297	85
641.502	85
641.707	83
641.913	92
642.118	68
642.323	82
642.528	75
642.733	80
642.939	98
643.144	83
643.349	89
643.554	84
643.759	87
643.964	91
644.169	91
644.374	90
644.579	78
644.784	96
644.989	92
645.194	90
645.399	89
645.604	93
645.809	88
646.014	92
646.219	87
646.423	87
646.628	86
646.833	73
647.038	85
647.243	82
647.447	85
647.652	95
647.857	94
648.062	88
648.266	97
648.471	82
648.676	75
648.88	96
649.085	83
649.289	89
649.494	90
649.698	78
649.903	78
650.107	83
650.312	88
650.516	89
650.721	91
650.925	87
651.13	92
651.334	91
651.539	86
651.743	89
651.947	78
652.152	80
652.356	93
652.56	87
652.764	98
652.969	83
653.173	78
653.377	85
653.581	76
653.785	86
653.99	101
654.194	90
654.398	76
654.602	82
654.806	92
655.01	96
655.214	90
655.418	66
655.622	73
655.826	82
656.03	82
656.234	79
656.438	83
656.642	92
656.846	89
657.049	84
657.253	81
657.457	82
657.661	87
657.865	75
658.068	77
658.272	84
658.476	71
658.68	77
658.883	86
659.087	90
659.291	84
659.494	71
659.698	83
659.901	78
660.105	93
660.309	85
660.512	104
660.716	88
660.919	78
661.123	83
661.326	84
661.53	85
661.733	78
661.936	93
662.14	86
662.343	88
662.546	90
662.75	78
662.953	88
663.156	97
663.36	84
663.563	86
663.766	77
663.969	84
664.173	90
664.376	80
664.579	75
664.782	67
664.985	73
665.188	79
665.391	77
665.594	69
665.797	81
666	81
666.203	93
666.406	82
666.609	72
666.812	84
667.015	92
667.218	102
667.421	83
667.624	76
667.827	85
668.03	83
668.232	80
668.435	84
668.638	86
668.841	97
669.043	76
669.246	86
669.449	81
669.651	79
669.854	89
670.057	77
670.259	86
670.462	88
670.665	89
670.867	89
671.07	72
671.272	88
671.475	93
671.677	82
671.88	73
672.082	71
672.284	76
672.487	76
672.689	85
672.892	94
