Data from Zn(NO3)2Standard.Agarose3%.GreenCap.LampEnergy10E.O_HRD10591_15-07-18-944.txt Node
Date: Mon Jul 22 15:07:18 EDT 2019
User: cochatt
Spectrometer: HR+D1059
Trigger mode: 1
Integration Time (sec): 1.000000E-1
Scans to average: 1
Electric dark correction enabled: true
Nonlinearity correction enabled: false
Boxcar width: 0
XAxis mode: Wavelengths
Number of Pixels in Spectrum: 2048
>>>>>Begin Spectral Data<<<<<
223.165	-14
223.4	-14
223.635	-14
223.869	-15
224.104	-19
224.338	-11
224.573	-19
224.808	2
225.042	-9
225.277	-6
225.511	-4
225.746	-2
225.98	19
226.215	6
226.449	18
226.683	13
226.918	22
227.152	19
227.387	38
227.621	24
227.856	32
228.09	59
228.324	48
228.559	42
228.793	57
229.027	71
229.262	60
229.496	61
229.73	75
229.964	74
230.199	68
230.433	73
230.667	76
230.901	77
231.136	87
231.37	73
231.604	83
231.838	70
232.072	76
232.306	88
232.541	92
232.775	81
233.009	86
233.243	63
233.477	79
233.711	83
233.945	80
234.179	67
234.413	87
234.647	78
234.881	76
235.115	80
235.349	75
235.583	80
235.817	75
236.051	75
236.285	78
236.519	66
236.753	75
236.987	69
237.221	75
237.455	77
237.689	71
237.922	72
238.156	79
238.39	77
238.624	89
238.858	83
239.091	83
239.325	81
239.559	72
239.793	71
240.027	67
240.26	71
240.494	70
240.728	65
240.961	73
241.195	67
241.429	77
241.662	68
241.896	71
242.13	72
242.363	73
242.597	82
242.83	71
243.064	76
243.298	91
243.531	77
243.765	71
243.998	74
244.232	73
244.465	87
244.699	77
244.932	76
245.166	74
245.399	83
245.633	80
245.866	77
246.099	72
246.333	72
246.566	76
246.8	95
247.033	69
247.266	73
247.5	88
247.733	74
247.966	87
248.2	86
248.433	83
248.666	90
248.899	76
249.133	80
249.366	79
249.599	72
249.832	87
250.066	87
250.299	78
250.532	72
250.765	83
250.998	71
251.231	88
251.465	76
251.698	81
251.931	83
252.164	90
252.397	76
252.63	85
252.863	88
253.096	83
253.329	93
253.562	95
253.795	85
254.028	73
254.261	71
254.494	72
254.727	82
254.96	89
255.193	58
255.426	68
255.659	85
255.892	91
256.124	79
256.357	91
256.59	75
256.823	87
257.056	73
257.289	85
257.521	90
257.754	79
257.987	91
258.22	76
258.452	81
258.685	79
258.918	86
259.151	76
259.383	77
259.616	75
259.849	74
260.081	90
260.314	95
260.547	68
260.779	61
261.012	79
261.244	74
261.477	88
261.71	86
261.942	92
262.175	75
262.407	94
262.64	73
262.872	72
263.105	71
263.337	87
263.57	76
263.802	82
264.035	77
264.267	82
264.499	81
264.732	86
264.964	92
265.197	78
265.429	77
265.661	67
265.894	88
266.126	83
266.358	89
266.591	86
266.823	72
267.055	73
267.287	63
267.52	79
267.752	88
267.984	82
268.216	72
268.448	85
268.681	92
268.913	83
269.145	84
269.377	88
269.609	79
269.841	78
270.073	87
270.306	78
270.538	81
270.77	93
271.002	66
271.234	74
271.466	72
271.698	75
271.93	98
272.162	86
272.394	86
272.626	72
272.858	71
273.09	91
273.322	89
273.553	79
273.785	75
274.017	76
274.249	77
274.481	83
274.713	84
274.945	76
275.176	85
275.408	75
275.64	72
275.872	90
276.104	82
276.335	100
276.567	93
276.799	74
277.031	69
277.262	89
277.494	67
277.726	74
277.957	83
278.189	93
278.421	80
278.652	84
278.884	82
279.115	88
279.347	80
279.579	86
279.81	83
280.042	65
280.273	93
280.505	88
280.736	79
280.968	81
281.199	82
281.431	81
281.662	77
281.894	90
282.125	82
282.356	86
282.588	83
282.819	91
283.051	95
283.282	75
283.513	79
283.745	87
283.976	91
284.207	87
284.439	71
284.67	76
284.901	66
285.132	63
285.364	69
285.595	75
285.826	76
286.057	77
286.288	83
286.52	79
286.751	81
286.982	87
287.213	86
287.444	71
287.675	83
287.906	66
288.138	79
288.369	81
288.6	77
288.831	94
289.062	88
289.293	76
289.524	83
289.755	76
289.986	76
290.217	80
290.448	87
290.679	70
290.91	86
291.141	89
291.371	87
291.602	81
291.833	72
292.064	76
292.295	83
292.526	88
292.757	80
292.987	77
293.218	76
293.449	81
293.68	87
293.91	74
294.141	90
294.372	80
294.603	87
294.833	90
295.064	74
295.295	89
295.525	83
295.756	86
295.987	91
296.217	87
296.448	73
296.679	90
296.909	78
297.14	65
297.37	77
297.601	86
297.831	77
298.062	71
298.292	75
298.523	80
298.753	85
298.984	75
299.214	74
299.445	89
299.675	84
299.905	76
300.136	88
300.366	91
300.597	78
300.827	78
301.057	95
301.288	91
301.518	84
301.748	72
301.979	79
302.209	83
302.439	90
302.669	88
302.9	83
303.13	88
303.36	90
303.59	64
303.82	65
304.051	85
304.281	81
304.511	91
304.741	88
304.971	82
305.201	86
305.431	91
305.661	85
305.891	76
306.121	75
306.352	83
306.582	81
306.812	89
307.042	77
307.272	74
307.502	79
307.731	88
307.961	95
308.191	99
308.421	94
308.651	77
308.881	99
309.111	90
309.341	89
309.571	79
309.8	80
310.03	80
310.26	91
310.49	89
310.72	79
310.949	89
311.179	89
311.409	82
311.639	85
311.868	94
312.098	73
312.328	97
312.557	80
312.787	83
313.017	90
313.246	73
313.476	87
313.706	82
313.935	72
314.165	82
314.394	88
314.624	88
314.853	84
315.083	82
315.312	80
315.542	89
315.771	88
316.001	82
316.23	87
316.46	78
316.689	93
316.919	96
317.148	97
317.377	84
317.607	97
317.836	77
318.065	72
318.295	96
318.524	80
318.753	87
318.983	79
319.212	84
319.441	75
319.67	76
319.9	89
320.129	85
320.358	85
320.587	95
320.816	73
321.046	88
321.275	71
321.504	88
321.733	89
321.962	83
322.191	82
322.42	80
322.649	76
322.878	79
323.108	77
323.337	85
323.566	93
323.795	84
324.024	85
324.253	88
324.482	83
324.71	93
324.939	63
325.168	84
325.397	84
325.626	83
325.855	72
326.084	87
326.313	77
326.542	90
326.77	69
326.999	76
327.228	66
327.457	84
327.686	80
327.914	83
328.143	90
328.372	94
328.6	85
328.829	83
329.058	98
329.287	76
329.515	80
329.744	84
329.972	82
330.201	98
330.43	90
330.658	74
330.887	83
331.115	77
331.344	80
331.572	92
331.801	75
332.03	89
332.258	88
332.486	76
332.715	69
332.943	77
333.172	77
333.4	79
333.629	82
333.857	77
334.085	83
334.314	90
334.542	88
334.771	83
334.999	77
335.227	81
335.455	76
335.684	84
335.912	91
336.14	86
336.369	76
336.597	84
336.825	78
337.053	76
337.281	89
337.51	84
337.738	99
337.966	92
338.194	82
338.422	74
338.65	88
338.878	79
339.106	88
339.334	91
339.562	85
339.79	77
340.018	80
340.246	92
340.474	85
340.702	95
340.93	79
341.158	72
341.386	75
341.614	84
341.842	88
342.07	83
342.298	87
342.526	86
342.754	92
342.981	74
343.209	71
343.437	103
343.665	89
343.893	89
344.12	90
344.348	79
344.576	63
344.804	77
345.031	91
345.259	87
345.487	84
345.714	89
345.942	72
346.17	81
346.397	78
346.625	64
346.853	84
347.08	83
347.308	78
347.535	78
347.763	64
347.99	87
348.218	70
348.445	89
348.673	76
348.9	96
349.128	80
349.355	94
349.583	92
349.81	90
350.037	72
350.265	83
350.492	86
350.72	84
350.947	69
351.174	68
351.402	84
351.629	88
351.856	79
352.083	76
352.311	78
352.538	85
352.765	77
352.992	83
353.22	85
353.447	72
353.674	90
353.901	92
354.128	82
354.355	89
354.583	82
354.81	73
355.037	88
355.264	79
355.491	80
355.718	87
355.945	93
356.172	83
356.399	92
356.626	90
356.853	80
357.08	101
357.307	84
357.534	86
357.761	83
357.988	88
358.215	86
358.441	78
358.668	74
358.895	76
359.122	87
359.349	84
359.576	82
359.802	76
360.029	80
360.256	79
360.483	81
360.709	87
360.936	88
361.163	88
361.39	78
361.616	81
361.843	72
362.07	75
362.296	92
362.523	88
362.749	79
362.976	97
363.203	90
363.429	75
363.656	76
363.882	78
364.109	77
364.335	79
364.562	74
364.788	85
365.015	81
365.241	81
365.468	97
365.694	83
365.92	84
366.147	102
366.373	71
366.599	85
366.826	77
367.052	82
367.278	85
367.505	73
367.731	99
367.957	84
368.184	80
368.41	82
368.636	85
368.862	80
369.089	80
369.315	83
369.541	74
369.767	71
369.993	83
370.219	82
370.445	90
370.672	85
370.898	86
371.124	92
371.35	85
371.576	84
371.802	82
372.028	86
372.254	83
372.48	80
372.706	83
372.932	91
373.158	100
373.384	79
373.61	87
373.835	92
374.061	76
374.287	75
374.513	76
374.739	67
374.965	81
375.191	83
375.416	82
375.642	92
375.868	88
376.094	79
376.319	75
376.545	87
376.771	87
376.997	78
377.222	80
377.448	94
377.674	105
377.899	86
378.125	77
378.35	84
378.576	91
378.802	81
379.027	84
379.253	62
379.478	79
379.704	92
379.929	72
380.155	79
380.38	80
380.606	87
380.831	86
381.057	93
381.282	82
381.507	97
381.733	83
381.958	88
382.184	89
382.409	83
382.634	86
382.86	95
383.085	89
383.31	93
383.535	89
383.761	83
383.986	96
384.211	90
384.436	88
384.662	95
384.887	82
385.112	102
385.337	95
385.562	98
385.787	85
386.013	99
386.238	93
386.463	75
386.688	82
386.913	76
387.138	92
387.363	88
387.588	95
387.813	101
388.038	96
388.263	99
388.488	97
388.713	90
388.938	98
389.163	90
389.387	92
389.612	88
389.837	89
390.062	90
390.287	92
390.512	76
390.736	94
390.961	84
391.186	84
391.411	84
391.636	96
391.86	89
392.085	78
392.31	86
392.534	93
392.759	104
392.984	92
393.208	97
393.433	96
393.658	90
393.882	88
394.107	94
394.331	83
394.556	82
394.78	90
395.005	90
395.229	92
395.454	83
395.678	79
395.903	96
396.127	86
396.352	96
396.576	92
396.801	90
397.025	103
397.249	87
397.474	100
397.698	97
397.922	93
398.147	101
398.371	106
398.595	86
398.82	84
399.044	94
399.268	90
399.492	84
399.717	99
399.941	100
400.165	97
400.389	88
400.613	91
400.837	109
401.062	104
401.286	100
401.51	100
401.734	101
401.958	96
402.182	87
402.406	90
402.63	90
402.854	89
403.078	84
403.302	83
403.526	104
403.75	95
403.974	99
404.198	86
404.422	81
404.645	96
404.869	94
405.093	95
405.317	96
405.541	85
405.765	107
405.988	87
406.212	92
406.436	106
406.66	98
406.883	102
407.107	94
407.331	88
407.555	101
407.778	96
408.002	108
408.226	106
408.449	97
408.673	89
408.896	97
409.12	100
409.344	89
409.567	120
409.791	86
410.014	94
410.238	105
410.461	92
410.685	99
410.908	101
411.132	113
411.355	89
411.578	109
411.802	95
412.025	98
412.249	91
412.472	100
412.695	80
412.919	89
413.142	105
413.365	97
413.589	97
413.812	97
414.035	93
414.258	88
414.482	112
414.705	99
414.928	100
415.151	93
415.374	97
415.597	107
415.821	104
416.044	105
416.267	92
416.49	95
416.713	94
416.936	101
417.159	93
417.382	119
417.605	113
417.828	115
418.051	98
418.274	111
418.497	97
418.72	103
418.943	114
419.166	99
419.389	111
419.611	108
419.834	111
420.057	103
420.28	96
420.503	100
420.726	105
420.948	105
421.171	123
421.394	104
421.617	113
421.839	121
422.062	106
422.285	86
422.507	105
422.73	91
422.953	100
423.175	85
423.398	93
423.621	100
423.843	100
424.066	107
424.288	119
424.511	99
424.733	89
424.956	111
425.178	115
425.401	101
425.623	116
425.846	97
426.068	104
426.291	103
426.513	92
426.735	101
426.958	105
427.18	102
427.402	105
427.625	109
427.847	108
428.069	113
428.292	100
428.514	99
428.736	103
428.958	107
429.181	108
429.403	102
429.625	105
429.847	99
430.069	99
430.292	106
430.514	122
430.736	97
430.958	104
431.18	95
431.402	101
431.624	106
431.846	93
432.068	97
432.29	93
432.512	93
432.734	93
432.956	105
433.178	104
433.4	104
433.622	102
433.844	111
434.066	95
434.287	94
434.509	89
434.731	93
434.953	105
435.175	100
435.397	101
435.618	87
435.84	95
436.062	102
436.284	104
436.505	104
436.727	99
436.949	109
437.17	105
437.392	105
437.614	111
437.835	107
438.057	97
438.278	99
438.5	104
438.721	107
438.943	103
439.165	116
439.386	117
439.608	125
439.829	118
440.05	107
440.272	111
440.493	109
440.715	119
440.936	101
441.158	112
441.379	117
441.6	98
441.822	121
442.043	95
442.264	113
442.486	103
442.707	106
442.928	91
443.149	119
443.371	117
443.592	99
443.813	113
444.034	109
444.255	101
444.476	105
444.698	116
444.919	103
445.14	224
445.361	141
445.582	108
445.803	104
446.024	110
446.245	119
446.466	119
446.687	122
446.908	121
447.129	129
447.35	119
447.571	119
447.792	116
448.013	114
448.234	106
448.455	123
448.675	102
448.896	113
449.117	100
449.338	98
449.559	97
449.779	100
450	97
450.221	95
450.442	131
450.662	101
450.883	95
451.104	104
451.324	103
451.545	106
451.766	103
451.986	111
452.207	107
452.428	100
452.648	99
452.869	99
453.089	100
453.31	96
453.53	103
453.751	80
453.971	83
454.192	82
454.412	93
454.633	103
454.853	104
455.073	87
455.294	102
455.514	101
455.734	96
455.955	99
456.175	101
456.395	86
456.616	100
456.836	97
457.056	100
457.276	95
457.497	86
457.717	95
457.937	101
458.157	89
458.377	94
458.598	83
458.818	87
459.038	99
459.258	84
459.478	93
459.698	84
459.918	88
460.138	92
460.358	98
460.578	112
460.798	86
461.018	90
461.238	92
461.458	98
461.678	95
461.898	98
462.118	105
462.338	93
462.558	100
462.777	95
462.997	85
463.217	94
463.437	90
463.657	71
463.876	98
464.096	90
464.316	83
464.536	90
464.755	102
464.975	91
465.195	90
465.414	100
465.634	87
465.854	105
466.073	103
466.293	104
466.512	89
466.732	101
466.951	115
467.171	101
467.391	97
467.61	98
467.829	108
468.049	101
468.268	108
468.488	110
468.707	111
468.927	100
469.146	112
469.365	104
469.585	112
469.804	111
470.023	109
470.243	104
470.462	107
470.681	107
470.901	106
471.12	118
471.339	108
471.558	95
471.777	101
471.997	89
472.216	101
472.435	83
472.654	101
472.873	100
473.092	100
473.311	95
473.53	108
473.749	113
473.968	114
474.187	101
474.406	111
474.625	108
474.844	118
475.063	104
475.282	106
475.501	88
475.72	90
475.939	100
476.158	116
476.377	121
476.596	105
476.814	88
477.033	97
477.252	109
477.471	91
477.69	117
477.908	121
478.127	118
478.346	130
478.564	112
478.783	112
479.002	101
479.22	98
479.439	98
479.658	104
479.876	90
480.095	97
480.313	111
480.532	106
480.751	91
480.969	87
481.188	79
481.406	84
481.624	74
481.843	85
482.061	60
482.28	108
482.498	99
482.717	89
482.935	98
483.153	104
483.372	103
483.59	113
483.808	95
484.027	109
484.245	100
484.463	114
484.681	119
484.9	109
485.118	119
485.336	105
485.554	92
485.772	91
485.99	89
486.209	85
486.427	101
486.645	90
486.863	116
487.081	102
487.299	123
487.517	104
487.735	126
487.953	137
488.171	135
488.389	132
488.607	111
488.825	112
489.043	102
489.261	102
489.479	108
489.696	114
489.914	111
490.132	111
490.35	120
490.568	123
490.786	111
491.003	133
491.221	123
491.439	135
491.657	128
491.874	138
492.092	147
492.31	166
492.527	139
492.745	136
492.963	132
493.18	133
493.398	151
493.615	131
493.833	123
494.05	127
494.268	129
494.485	123
494.703	116
494.92	122
495.138	119
495.355	122
495.573	131
495.79	142
496.008	125
496.225	130
496.442	137
496.66	123
496.877	133
497.094	115
497.312	130
497.529	120
497.746	102
497.963	97
498.181	87
498.398	99
498.615	108
498.832	94
499.049	98
499.267	100
499.484	103
499.701	117
499.918	124
500.135	109
500.352	114
500.569	103
500.786	121
501.003	120
501.22	112
501.437	114
501.654	122
501.871	106
502.088	113
502.305	104
502.522	104
502.739	94
502.956	90
503.172	111
503.389	113
503.606	113
503.823	84
504.04	91
504.256	95
504.473	98
504.69	98
504.907	95
505.123	93
505.34	110
505.557	93
505.773	113
505.99	112
506.207	107
506.423	108
506.64	97
506.856	103
507.073	90
507.289	100
507.506	100
507.722	116
507.939	101
508.155	97
508.372	93
508.588	91
508.805	112
509.021	91
509.238	101
509.454	99
509.67	90
509.887	101
510.103	96
510.319	98
510.536	85
510.752	78
510.968	77
511.184	89
511.401	78
511.617	95
511.833	74
512.049	81
512.265	82
512.481	94
512.698	88
512.914	99
513.13	89
513.346	82
513.562	82
513.778	77
513.994	80
514.21	90
514.426	97
514.642	84
514.858	96
515.074	80
515.29	95
515.506	95
515.721	75
515.937	104
516.153	76
516.369	83
516.585	94
516.801	91
517.016	63
517.232	89
517.448	93
517.664	95
517.879	100
518.095	82
518.311	92
518.527	105
518.742	85
518.958	94
519.173	100
519.389	92
519.605	98
519.82	96
520.036	97
520.251	82
520.467	88
520.682	86
520.898	92
521.113	85
521.329	91
521.544	94
521.76	80
521.975	73
522.19	91
522.406	99
522.621	78
522.836	92
523.052	97
523.267	99
523.482	81
523.698	87
523.913	86
524.128	104
524.343	99
524.559	105
524.774	97
524.989	96
525.204	105
525.419	105
525.634	111
525.849	97
526.064	105
526.28	97
526.495	86
526.71	96
526.925	96
527.14	89
527.355	77
527.57	88
527.785	85
527.999	93
528.214	101
528.429	100
528.644	107
528.859	105
529.074	112
529.289	128
529.503	115
529.718	107
529.933	76
530.148	116
530.363	83
530.577	86
530.792	90
531.007	89
531.221	77
531.436	88
531.651	75
531.865	87
532.08	91
532.295	86
532.509	78
532.724	86
532.938	91
533.153	80
533.367	91
533.582	100
533.796	90
534.011	89
534.225	95
534.44	77
534.654	77
534.868	99
535.083	97
535.297	84
535.511	101
535.726	93
535.94	101
536.154	88
536.369	88
536.583	98
536.797	82
537.011	75
537.225	93
537.44	73
537.654	96
537.868	79
538.082	91
538.296	84
538.51	82
538.724	96
538.938	106
539.153	99
539.367	118
539.581	103
539.795	94
540.009	89
540.222	102
540.436	93
540.65	94
540.864	88
541.078	106
541.292	121
541.506	122
541.72	128
541.934	151
542.147	113
542.361	138
542.575	125
542.789	119
543.002	118
543.216	116
543.43	121
543.644	111
543.857	99
544.071	106
544.285	121
544.498	126
544.712	102
544.925	108
545.139	123
545.352	121
545.566	136
545.779	123
545.993	129
546.206	132
546.42	123
546.633	119
546.847	123
547.06	123
547.274	119
547.487	129
547.7	130
547.914	118
548.127	120
548.34	115
548.554	113
548.767	127
548.98	103
549.193	128
549.407	118
549.62	124
549.833	116
550.046	105
550.259	124
550.473	122
550.686	117
550.899	120
551.112	125
551.325	115
551.538	116
551.751	113
551.964	108
552.177	115
552.39	111
552.603	118
552.816	127
553.029	146
553.242	132
553.455	125
553.667	125
553.88	121
554.093	115
554.306	128
554.519	117
554.732	120
554.944	124
555.157	117
555.37	104
555.583	115
555.795	103
556.008	114
556.221	110
556.433	112
556.646	113
556.859	102
557.071	103
557.284	119
557.496	114
557.709	89
557.921	101
558.134	114
558.346	117
558.559	107
558.771	100
558.984	100
559.196	113
559.409	116
559.621	109
559.833	113
560.046	119
560.258	107
560.47	109
560.683	106
560.895	107
561.107	124
561.32	121
561.532	99
561.744	106
561.956	109
562.168	118
562.381	111
562.593	119
562.805	95
563.017	112
563.229	101
563.441	106
563.653	112
563.865	99
564.077	92
564.289	97
564.501	106
564.713	112
564.925	92
565.137	93
565.349	113
565.561	89
565.773	92
565.985	99
566.197	108
566.408	106
566.62	111
566.832	112
567.044	103
567.255	98
567.467	105
567.679	92
567.891	83
568.102	97
568.314	96
568.526	81
568.737	86
568.949	77
569.161	86
569.372	82
569.584	86
569.795	82
570.007	85
570.218	87
570.43	66
570.641	92
570.853	82
571.064	98
571.276	103
571.487	91
571.698	82
571.91	94
572.121	84
572.333	90
572.544	91
572.755	87
572.966	83
573.178	90
573.389	81
573.6	81
573.811	82
574.023	80
574.234	86
574.445	82
574.656	64
574.867	102
575.078	91
575.289	78
575.501	91
575.712	89
575.923	96
576.134	78
576.345	92
576.556	99
576.767	64
576.978	84
577.188	90
577.399	84
577.61	92
577.821	86
578.032	90
578.243	72
578.454	86
578.665	86
578.875	88
579.086	85
579.297	91
579.508	80
579.718	78
579.929	90
580.14	73
580.35	88
580.561	69
580.772	98
580.982	94
581.193	90
581.403	82
581.614	96
581.825	74
582.035	74
582.246	86
582.456	86
582.667	89
582.877	93
583.087	101
583.298	84
583.508	77
583.719	80
583.929	83
584.139	71
584.35	74
584.56	72
584.77	87
584.981	87
585.191	85
585.401	88
585.611	84
585.821	86
586.032	83
586.242	83
586.452	75
586.662	69
586.872	83
587.082	80
587.292	77
587.502	90
587.713	93
587.923	93
588.133	77
588.343	78
588.553	68
588.762	74
588.972	87
589.182	93
589.392	90
589.602	83
589.812	81
590.022	73
590.232	83
590.441	72
590.651	74
590.861	88
591.071	81
591.281	89
591.49	75
591.7	73
591.91	79
592.119	87
592.329	74
592.539	88
592.748	83
592.958	76
593.167	93
593.377	83
593.587	91
593.796	84
594.006	84
594.215	93
594.424	91
594.634	76
594.843	89
595.053	93
595.262	83
595.472	91
595.681	80
595.89	87
596.1	91
596.309	92
596.518	91
596.727	98
596.937	84
597.146	89
597.355	87
597.564	96
597.774	80
597.983	95
598.192	89
598.401	84
598.61	81
598.819	97
599.028	88
599.237	83
599.446	85
599.655	81
599.864	85
600.073	93
600.282	92
600.491	88
600.7	90
600.909	85
601.118	83
601.327	77
601.536	92
601.745	103
601.953	87
602.162	88
602.371	77
602.58	91
602.789	92
602.997	82
603.206	86
603.415	89
603.623	100
603.832	77
604.041	101
604.249	87
604.458	97
604.666	84
604.875	88
605.084	85
605.292	99
605.501	96
605.709	82
605.918	96
606.126	101
606.334	109
606.543	95
606.751	107
606.96	100
607.168	94
607.376	105
607.585	94
607.793	107
608.001	101
608.21	95
608.418	82
608.626	92
608.834	99
609.043	101
609.251	92
609.459	92
609.667	96
609.875	96
610.083	93
610.291	92
610.499	85
610.707	91
610.916	98
611.124	109
611.332	96
611.54	92
611.748	100
611.955	106
612.163	90
612.371	107
612.579	82
612.787	101
612.995	98
613.203	90
613.411	85
613.618	102
613.826	112
614.034	91
614.242	100
614.449	99
614.657	86
614.865	80
615.072	103
615.28	111
615.488	99
615.695	91
615.903	88
616.111	79
616.318	110
616.526	83
616.733	107
616.941	87
617.148	93
617.356	88
617.563	99
617.771	101
617.978	91
618.185	104
618.393	94
618.6	110
618.807	92
619.015	87
619.222	94
619.429	93
619.637	90
619.844	92
620.051	89
620.258	99
620.466	87
620.673	89
620.88	85
621.087	85
621.294	96
621.501	86
621.708	86
621.915	88
622.122	112
622.329	106
622.536	102
622.743	96
622.95	95
623.157	98
623.364	102
623.571	84
623.778	98
623.985	102
624.192	92
624.399	106
624.606	96
624.812	83
625.019	93
625.226	96
625.433	89
625.639	96
625.846	104
626.053	95
626.259	96
626.466	97
626.673	105
626.879	87
627.086	83
627.293	83
627.499	83
627.706	84
627.912	95
628.119	94
628.325	78
628.532	90
628.738	86
628.945	97
629.151	110
629.357	102
629.564	102
629.77	89
629.976	97
630.183	105
630.389	87
630.595	89
630.802	83
631.008	93
631.214	93
631.42	88
631.627	105
631.833	99
632.039	89
632.245	82
632.451	84
632.657	94
632.863	92
633.069	90
633.275	88
633.481	81
633.688	92
633.893	103
634.099	96
634.305	95
634.511	77
634.717	89
634.923	90
635.129	100
635.335	92
635.541	93
635.747	99
635.952	87
636.158	96
636.364	92
636.57	95
636.775	100
636.981	94
637.187	87
637.392	96
637.598	100
637.804	92
638.009	77
638.215	84
638.421	105
638.626	97
638.832	90
639.037	97
639.243	71
639.448	71
639.654	99
639.859	91
640.065	89
640.27	91
640.475	78
640.681	72
640.886	59
641.091	88
641.297	84
641.502	97
641.707	99
641.913	85
642.118	84
642.323	97
642.528	92
642.733	92
642.939	89
643.144	85
643.349	89
643.554	90
643.759	92
643.964	104
644.169	80
644.374	89
644.579	95
644.784	95
644.989	97
645.194	89
645.399	91
645.604	76
645.809	97
646.014	87
646.219	100
646.423	89
646.628	97
646.833	93
647.038	88
647.243	79
647.447	91
647.652	89
647.857	96
648.062	92
648.266	103
648.471	83
648.676	87
648.88	77
649.085	83
649.289	99
649.494	76
649.698	85
649.903	91
650.107	104
650.312	94
650.516	84
650.721	92
650.925	83
651.13	88
651.334	83
651.539	98
651.743	83
651.947	83
652.152	88
652.356	100
652.56	91
652.764	85
652.969	87
653.173	90
653.377	99
653.581	87
653.785	87
653.99	87
654.194	82
654.398	87
654.602	73
654.806	91
655.01	91
655.214	89
655.418	91
655.622	85
655.826	98
656.03	87
656.234	65
656.438	103
656.642	80
656.846	81
657.049	76
657.253	86
657.457	77
657.661	88
657.865	107
658.068	98
658.272	90
658.476	89
658.68	73
658.883	93
659.087	79
659.291	68
659.494	88
659.698	94
659.901	87
660.105	72
660.309	81
660.512	69
660.716	81
660.919	73
661.123	69
661.326	69
661.53	82
661.733	95
661.936	74
662.14	91
662.343	89
662.546	84
662.75	100
662.953	82
663.156	68
663.36	73
663.563	66
663.766	79
663.969	89
664.173	83
664.376	83
664.579	88
664.782	83
664.985	84
665.188	80
665.391	80
665.594	107
665.797	76
666	77
666.203	91
666.406	73
666.609	80
666.812	68
667.015	81
667.218	73
667.421	76
667.624	80
667.827	81
668.03	76
668.232	75
668.435	83
668.638	83
668.841	86
669.043	77
669.246	76
669.449	86
669.651	71
669.854	91
670.057	86
670.259	87
670.462	82
670.665	74
670.867	92
671.07	81
671.272	82
671.475	90
671.677	85
671.88	71
672.082	79
672.284	82
672.487	74
672.689	86
672.892	63
