Data from Location3.07152019.Energy5.Lamp.07192019.3%Agarose_HRD10591_15-19-01-269.txt Node
Date: Fri Jul 19 15:19:01 EDT 2019
User: cochatt
Spectrometer: HR+D1059
Trigger mode: 1
Integration Time (sec): 1.000000E-1
Scans to average: 1
Electric dark correction enabled: true
Nonlinearity correction enabled: false
Boxcar width: 0
XAxis mode: Wavelengths
Number of Pixels in Spectrum: 2048
>>>>>Begin Spectral Data<<<<<
223.165	-14
223.4	-14
223.635	-14
223.869	-13
224.104	-22
224.338	-22
224.573	-16
224.808	-8
225.042	-23
225.277	0
225.511	-5
225.746	9
225.98	14
226.215	2
226.449	34
226.683	21
226.918	20
227.152	23
227.387	37
227.621	38
227.856	46
228.09	61
228.324	45
228.559	60
228.793	53
229.027	75
229.262	72
229.496	74
229.73	70
229.964	69
230.199	71
230.433	79
230.667	90
230.901	89
231.136	76
231.37	82
231.604	76
231.838	93
232.072	78
232.306	99
232.541	71
232.775	78
233.009	93
233.243	89
233.477	85
233.711	86
233.945	94
234.179	80
234.413	83
234.647	92
234.881	98
235.115	90
235.349	84
235.583	82
235.817	73
236.051	80
236.285	95
236.519	89
236.753	81
236.987	75
237.221	74
237.455	91
237.689	92
237.922	89
238.156	78
238.39	73
238.624	80
238.858	85
239.091	77
239.325	65
239.559	77
239.793	67
240.027	87
240.26	79
240.494	90
240.728	84
240.961	77
241.195	76
241.429	89
241.662	77
241.896	89
242.13	86
242.363	80
242.597	75
242.83	77
243.064	78
243.298	78
243.531	81
243.765	85
243.998	82
244.232	82
244.465	89
244.699	100
244.932	81
245.166	91
245.399	84
245.633	76
245.866	74
246.099	83
246.333	71
246.566	79
246.8	83
247.033	72
247.266	91
247.5	78
247.733	83
247.966	74
248.2	87
248.433	90
248.666	79
248.899	86
249.133	87
249.366	86
249.599	99
249.832	68
250.066	92
250.299	77
250.532	92
250.765	86
250.998	94
251.231	92
251.465	90
251.698	95
251.931	77
252.164	69
252.397	78
252.63	79
252.863	86
253.096	75
253.329	90
253.562	90
253.795	95
254.028	79
254.261	76
254.494	75
254.727	99
254.96	98
255.193	90
255.426	92
255.659	68
255.892	73
256.124	80
256.357	85
256.59	85
256.823	83
257.056	85
257.289	61
257.521	87
257.754	75
257.987	92
258.22	92
258.452	74
258.685	85
258.918	79
259.151	77
259.383	83
259.616	84
259.849	89
260.081	98
260.314	88
260.547	77
260.779	91
261.012	87
261.244	87
261.477	92
261.71	89
261.942	100
262.175	91
262.407	79
262.64	78
262.872	87
263.105	86
263.337	85
263.57	95
263.802	89
264.035	83
264.267	82
264.499	79
264.732	97
264.964	95
265.197	99
265.429	86
265.661	93
265.894	92
266.126	92
266.358	79
266.591	93
266.823	83
267.055	86
267.287	85
267.52	94
267.752	63
267.984	81
268.216	81
268.448	93
268.681	78
268.913	92
269.145	89
269.377	84
269.609	91
269.841	90
270.073	98
270.306	99
270.538	92
270.77	77
271.002	89
271.234	90
271.466	86
271.698	102
271.93	81
272.162	76
272.394	93
272.626	82
272.858	87
273.09	87
273.322	75
273.553	80
273.785	77
274.017	95
274.249	91
274.481	85
274.713	97
274.945	82
275.176	91
275.408	78
275.64	97
275.872	83
276.104	93
276.335	94
276.567	80
276.799	85
277.031	83
277.262	89
277.494	80
277.726	85
277.957	86
278.189	81
278.421	76
278.652	88
278.884	85
279.115	90
279.347	106
279.579	94
279.81	79
280.042	91
280.273	87
280.505	73
280.736	87
280.968	106
281.199	87
281.431	83
281.662	93
281.894	76
282.125	86
282.356	80
282.588	78
282.819	96
283.051	85
283.282	97
283.513	97
283.745	87
283.976	85
284.207	78
284.439	90
284.67	92
284.901	85
285.132	90
285.364	90
285.595	97
285.826	92
286.057	98
286.288	99
286.52	101
286.751	94
286.982	79
287.213	79
287.444	89
287.675	98
287.906	77
288.138	85
288.369	99
288.6	82
288.831	81
289.062	100
289.293	82
289.524	93
289.755	84
289.986	92
290.217	86
290.448	86
290.679	73
290.91	80
291.141	94
291.371	100
291.602	71
291.833	86
292.064	99
292.295	79
292.526	94
292.757	91
292.987	96
293.218	87
293.449	95
293.68	88
293.91	85
294.141	95
294.372	94
294.603	84
294.833	98
295.064	86
295.295	98
295.525	105
295.756	94
295.987	91
296.217	86
296.448	72
296.679	91
296.909	71
297.14	88
297.37	91
297.601	86
297.831	94
298.062	93
298.292	89
298.523	82
298.753	93
298.984	90
299.214	99
299.445	80
299.675	84
299.905	82
300.136	95
300.366	92
300.597	84
300.827	87
301.057	90
301.288	95
301.518	84
301.748	96
301.979	83
302.209	88
302.439	86
302.669	92
302.9	81
303.13	85
303.36	93
303.59	80
303.82	86
304.051	92
304.281	99
304.511	97
304.741	104
304.971	92
305.201	76
305.431	99
305.661	87
305.891	99
306.121	87
306.352	94
306.582	99
306.812	101
307.042	91
307.272	90
307.502	82
307.731	92
307.961	81
308.191	80
308.421	79
308.651	86
308.881	91
309.111	90
309.341	81
309.571	82
309.8	80
310.03	87
310.26	91
310.49	100
310.72	92
310.949	74
311.179	96
311.409	86
311.639	82
311.868	98
312.098	93
312.328	89
312.557	91
312.787	88
313.017	98
313.246	94
313.476	83
313.706	83
313.935	80
314.165	90
314.394	86
314.624	87
314.853	88
315.083	85
315.312	107
315.542	93
315.771	83
316.001	89
316.23	84
316.46	88
316.689	86
316.919	78
317.148	93
317.377	77
317.607	80
317.836	77
318.065	99
318.295	79
318.524	92
318.753	90
318.983	78
319.212	100
319.441	102
319.67	84
319.9	87
320.129	84
320.358	97
320.587	103
320.816	82
321.046	81
321.275	101
321.504	85
321.733	95
321.962	95
322.191	93
322.42	80
322.649	99
322.878	92
323.108	83
323.337	86
323.566	69
323.795	95
324.024	74
324.253	91
324.482	93
324.71	84
324.939	86
325.168	81
325.397	91
325.626	96
325.855	84
326.084	90
326.313	94
326.542	74
326.77	79
326.999	90
327.228	96
327.457	81
327.686	89
327.914	92
328.143	105
328.372	93
328.6	90
328.829	76
329.058	87
329.287	81
329.515	84
329.744	74
329.972	92
330.201	92
330.43	104
330.658	79
330.887	98
331.115	76
331.344	90
331.572	86
331.801	97
332.03	84
332.258	85
332.486	79
332.715	92
332.943	82
333.172	97
333.4	71
333.629	99
333.857	92
334.085	78
334.314	88
334.542	95
334.771	81
334.999	79
335.227	93
335.455	83
335.684	87
335.912	95
336.14	98
336.369	80
336.597	74
336.825	106
337.053	91
337.281	73
337.51	80
337.738	88
337.966	88
338.194	82
338.422	103
338.65	91
338.878	96
339.106	98
339.334	84
339.562	90
339.79	89
340.018	81
340.246	89
340.474	91
340.702	95
340.93	95
341.158	84
341.386	90
341.614	100
341.842	95
342.07	87
342.298	84
342.526	106
342.754	90
342.981	87
343.209	76
343.437	84
343.665	88
343.893	91
344.12	89
344.348	91
344.576	98
344.804	92
345.031	89
345.259	97
345.487	93
345.714	86
345.942	83
346.17	84
346.397	84
346.625	76
346.853	93
347.08	66
347.308	100
347.535	72
347.763	80
347.99	98
348.218	89
348.445	74
348.673	87
348.9	84
349.128	94
349.355	90
349.583	93
349.81	79
350.037	89
350.265	84
350.492	90
350.72	96
350.947	81
351.174	77
351.402	77
351.629	91
351.856	88
352.083	83
352.311	95
352.538	87
352.765	89
352.992	90
353.22	81
353.447	82
353.674	97
353.901	86
354.128	88
354.355	89
354.583	76
354.81	79
355.037	84
355.264	92
355.491	88
355.718	92
355.945	82
356.172	82
356.399	76
356.626	76
356.853	88
357.08	81
357.307	83
357.534	77
357.761	80
357.988	90
358.215	85
358.441	81
358.668	87
358.895	78
359.122	88
359.349	89
359.576	81
359.802	86
360.029	79
360.256	85
360.483	89
360.709	92
360.936	90
361.163	84
361.39	77
361.616	88
361.843	74
362.07	88
362.296	76
362.523	94
362.749	91
362.976	85
363.203	85
363.429	80
363.656	88
363.882	82
364.109	96
364.335	86
364.562	95
364.788	95
365.015	87
365.241	88
365.468	69
365.694	82
365.92	90
366.147	86
366.373	87
366.599	84
366.826	93
367.052	95
367.278	85
367.505	87
367.731	75
367.957	76
368.184	93
368.41	85
368.636	92
368.862	87
369.089	90
369.315	75
369.541	93
369.767	94
369.993	93
370.219	91
370.445	79
370.672	77
370.898	91
371.124	101
371.35	99
371.576	92
371.802	93
372.028	79
372.254	83
372.48	84
372.706	86
372.932	87
373.158	77
373.384	88
373.61	97
373.835	99
374.061	86
374.287	102
374.513	92
374.739	87
374.965	82
375.191	69
375.416	91
375.642	92
375.868	94
376.094	89
376.319	93
376.545	87
376.771	85
376.997	89
377.222	96
377.448	92
377.674	99
377.899	85
378.125	73
378.35	86
378.576	82
378.802	83
379.027	93
379.253	90
379.478	76
379.704	79
379.929	91
380.155	83
380.38	82
380.606	94
380.831	82
381.057	87
381.282	84
381.507	81
381.733	93
381.958	94
382.184	93
382.409	89
382.634	87
382.86	89
383.085	90
383.31	94
383.535	85
383.761	97
383.986	91
384.211	84
384.436	79
384.662	100
384.887	100
385.112	89
385.337	103
385.562	108
385.787	94
386.013	89
386.238	98
386.463	96
386.688	93
386.913	85
387.138	98
387.363	83
387.588	92
387.813	109
388.038	91
388.263	98
388.488	79
388.713	94
388.938	87
389.163	85
389.387	70
389.612	79
389.837	89
390.062	77
390.287	87
390.512	86
390.736	94
390.961	85
391.186	77
391.411	78
391.636	79
391.86	116
392.085	94
392.31	100
392.534	92
392.759	91
392.984	80
393.208	99
393.433	89
393.658	85
393.882	93
394.107	83
394.331	75
394.556	92
394.78	92
395.005	83
395.229	77
395.454	73
395.678	87
395.903	93
396.127	90
396.352	90
396.576	100
396.801	83
397.025	85
397.249	93
397.474	93
397.698	81
397.922	85
398.147	79
398.371	102
398.595	89
398.82	96
399.044	99
399.268	94
399.492	90
399.717	105
399.941	91
400.165	82
400.389	82
400.613	92
400.837	98
401.062	97
401.286	104
401.51	95
401.734	89
401.958	89
402.182	83
402.406	90
402.63	94
402.854	85
403.078	82
403.302	92
403.526	115
403.75	104
403.974	83
404.198	104
404.422	84
404.645	98
404.869	97
405.093	94
405.317	99
405.541	100
405.765	98
405.988	84
406.212	87
406.436	81
406.66	95
406.883	101
407.107	97
407.331	99
407.555	96
407.778	101
408.002	105
408.226	95
408.449	90
408.673	91
408.896	90
409.12	90
409.344	90
409.567	95
409.791	91
410.014	83
410.238	87
410.461	90
410.685	86
410.908	95
411.132	86
411.355	91
411.578	102
411.802	93
412.025	97
412.249	90
412.472	94
412.695	92
412.919	85
413.142	94
413.365	105
413.589	91
413.812	103
414.035	101
414.258	102
414.482	94
414.705	94
414.928	101
415.151	88
415.374	86
415.597	97
415.821	95
416.044	87
416.267	87
416.49	90
416.713	81
416.936	86
417.159	79
417.382	72
417.605	91
417.828	94
418.051	92
418.274	96
418.497	98
418.72	107
418.943	116
419.166	110
419.389	102
419.611	93
419.834	97
420.057	104
420.28	106
420.503	78
420.726	105
420.948	91
421.171	94
421.394	94
421.617	99
421.839	101
422.062	93
422.285	94
422.507	102
422.73	94
422.953	91
423.175	87
423.398	100
423.621	100
423.843	94
424.066	111
424.288	109
424.511	91
424.733	97
424.956	114
425.178	104
425.401	89
425.623	105
425.846	102
426.068	93
426.291	100
426.513	96
426.735	96
426.958	102
427.18	97
427.402	98
427.625	88
427.847	93
428.069	97
428.292	88
428.514	87
428.736	86
428.958	91
429.181	96
429.403	98
429.625	91
429.847	98
430.069	98
430.292	85
430.514	92
430.736	107
430.958	95
431.18	93
431.402	96
431.624	106
431.846	89
432.068	76
432.29	85
432.512	98
432.734	90
432.956	100
433.178	106
433.4	94
433.622	100
433.844	100
434.066	98
434.287	91
434.509	106
434.731	75
434.953	95
435.175	93
435.397	89
435.618	104
435.84	99
436.062	92
436.284	88
436.505	114
436.727	97
436.949	90
437.17	97
437.392	79
437.614	94
437.835	99
438.057	90
438.278	93
438.5	95
438.721	99
438.943	99
439.165	86
439.386	104
439.608	99
439.829	102
440.05	108
440.272	107
440.493	98
440.715	98
440.936	97
441.158	113
441.379	95
441.6	113
441.822	103
442.043	94
442.264	105
442.486	86
442.707	99
442.928	100
443.149	98
443.371	108
443.592	103
443.813	97
444.034	98
444.255	99
444.476	103
444.698	106
444.919	115
445.14	222
445.361	145
445.582	111
445.803	99
446.024	100
446.245	116
446.466	106
446.687	108
446.908	103
447.129	109
447.35	101
447.571	116
447.792	102
448.013	100
448.234	91
448.455	106
448.675	98
448.896	95
449.117	98
449.338	105
449.559	92
449.779	103
450	106
450.221	104
450.442	108
450.662	116
450.883	107
451.104	102
451.324	97
451.545	94
451.766	104
451.986	101
452.207	106
452.428	116
452.648	87
452.869	105
453.089	87
453.31	82
453.53	85
453.751	77
453.971	102
454.192	89
454.412	87
454.633	90
454.853	94
455.073	91
455.294	103
455.514	92
455.734	100
455.955	95
456.175	92
456.395	80
456.616	94
456.836	92
457.056	103
457.276	86
457.497	104
457.717	76
457.937	99
458.157	102
458.377	90
458.598	86
458.818	101
459.038	83
459.258	90
459.478	81
459.698	80
459.918	93
460.138	100
460.358	95
460.578	95
460.798	86
461.018	85
461.238	96
461.458	86
461.678	89
461.898	92
462.118	92
462.338	90
462.558	97
462.777	78
462.997	86
463.217	92
463.437	80
463.657	91
463.876	92
464.096	96
464.316	95
464.536	96
464.755	103
464.975	83
465.195	85
465.414	81
465.634	76
465.854	92
466.073	97
466.293	100
466.512	102
466.732	89
466.951	89
467.171	95
467.391	97
467.61	95
467.829	88
468.049	89
468.268	102
468.488	91
468.707	100
468.927	100
469.146	99
469.365	94
469.585	100
469.804	105
470.023	91
470.243	88
470.462	94
470.681	99
470.901	116
471.12	91
471.339	101
471.558	96
471.777	107
471.997	99
472.216	93
472.435	79
472.654	84
472.873	99
473.092	105
473.311	90
473.53	92
473.749	99
473.968	99
474.187	105
474.406	86
474.625	84
474.844	113
475.063	109
475.282	88
475.501	103
475.72	103
475.939	102
476.158	98
476.377	92
476.596	79
476.814	92
477.033	91
477.252	89
477.471	105
477.69	118
477.908	94
478.127	111
478.346	85
478.564	113
478.783	97
479.002	86
479.22	95
479.439	90
479.658	103
479.876	73
480.095	89
480.313	95
480.532	96
480.751	79
480.969	91
481.188	84
481.406	92
481.624	84
481.843	114
482.061	84
482.28	96
482.498	92
482.717	90
482.935	102
483.153	101
483.372	100
483.59	100
483.808	88
484.027	95
484.245	105
484.463	108
484.681	109
484.9	90
485.118	92
485.336	90
485.554	98
485.772	74
485.99	112
486.209	78
486.427	93
486.645	103
486.863	103
487.081	103
487.299	95
487.517	99
487.735	122
487.953	118
488.171	113
488.389	117
488.607	96
488.825	97
489.043	97
489.261	91
489.479	99
489.696	113
489.914	108
490.132	109
490.35	97
490.568	99
490.786	117
491.003	115
491.221	99
491.439	110
491.657	118
491.874	117
492.092	122
492.31	122
492.527	133
492.745	121
492.963	107
493.18	123
493.398	104
493.615	109
493.833	118
494.05	109
494.268	107
494.485	118
494.703	118
494.92	115
495.138	103
495.355	113
495.573	116
495.79	109
496.008	115
496.225	103
496.442	99
496.66	114
496.877	120
497.094	113
497.312	106
497.529	95
497.746	110
497.963	94
498.181	83
498.398	96
498.615	98
498.832	103
499.049	91
499.267	104
499.484	93
499.701	110
499.918	96
500.135	107
500.352	92
500.569	110
500.786	95
501.003	101
501.22	109
501.437	110
501.654	92
501.871	105
502.088	108
502.305	85
502.522	95
502.739	100
502.956	94
503.172	101
503.389	96
503.606	99
503.823	97
504.04	107
504.256	90
504.473	105
504.69	90
504.907	107
505.123	105
505.34	89
505.557	99
505.773	91
505.99	111
506.207	97
506.423	106
506.64	97
506.856	109
507.073	93
507.289	103
507.506	90
507.722	94
507.939	85
508.155	91
508.372	83
508.588	98
508.805	89
509.021	100
509.238	89
509.454	99
509.67	98
509.887	111
510.103	104
510.319	84
510.536	89
510.752	102
510.968	85
511.184	90
511.401	91
511.617	75
511.833	101
512.049	95
512.265	90
512.481	82
512.698	91
512.914	88
513.13	92
513.346	92
513.562	78
513.778	83
513.994	99
514.21	82
514.426	87
514.642	106
514.858	98
515.074	84
515.29	84
515.506	99
515.721	84
515.937	75
516.153	87
516.369	91
516.585	95
516.801	105
517.016	85
517.232	81
517.448	79
517.664	87
517.879	84
518.095	81
518.311	97
518.527	89
518.742	103
518.958	90
519.173	80
519.389	100
519.605	94
519.82	88
520.036	109
520.251	83
520.467	92
520.682	84
520.898	94
521.113	102
521.329	105
521.544	77
521.76	77
521.975	95
522.19	88
522.406	66
522.621	79
522.836	87
523.052	98
523.267	100
523.482	98
523.698	87
523.913	94
524.128	87
524.343	92
524.559	95
524.774	92
524.989	99
525.204	93
525.419	89
525.634	98
525.849	93
526.064	108
526.28	79
526.495	83
526.71	95
526.925	82
527.14	79
527.355	94
527.57	88
527.785	91
527.999	89
528.214	87
528.429	90
528.644	106
528.859	91
529.074	106
529.289	106
529.503	107
529.718	106
529.933	102
530.148	87
530.363	91
530.577	86
530.792	78
531.007	80
531.221	85
531.436	99
531.651	95
531.865	92
532.08	79
532.295	97
532.509	90
532.724	92
532.938	98
533.153	100
533.367	86
533.582	108
533.796	92
534.011	89
534.225	90
534.44	84
534.654	90
534.868	94
535.083	96
535.297	88
535.511	88
535.726	100
535.94	99
536.154	85
536.369	75
536.583	85
536.797	97
537.011	87
537.225	92
537.44	85
537.654	105
537.868	93
538.082	85
538.296	111
538.51	94
538.724	83
538.938	109
539.153	111
539.367	102
539.581	89
539.795	76
540.009	93
540.222	102
540.436	102
540.65	102
540.864	118
541.078	112
541.292	102
541.506	121
541.72	93
541.934	111
542.147	115
542.361	124
542.575	114
542.789	114
543.002	105
543.216	110
543.43	102
543.644	98
543.857	108
544.071	115
544.285	106
544.498	106
544.712	106
544.925	100
545.139	115
545.352	102
545.566	126
545.779	115
545.993	119
546.206	120
546.42	124
546.633	117
546.847	104
547.06	121
547.274	104
547.487	115
547.7	119
547.914	111
548.127	139
548.34	110
548.554	114
548.767	119
548.98	101
549.193	109
549.407	109
549.62	113
549.833	102
550.046	114
550.259	117
550.473	118
550.686	104
550.899	118
551.112	96
551.325	102
551.538	100
551.751	100
551.964	83
552.177	106
552.39	109
552.603	107
552.816	113
553.029	123
553.242	111
553.455	102
553.667	113
553.88	106
554.093	105
554.306	111
554.519	97
554.732	108
554.944	94
555.157	110
555.37	94
555.583	99
555.795	101
556.008	103
556.221	105
556.433	105
556.646	91
556.859	109
557.071	114
557.284	108
557.496	100
557.709	102
557.921	94
558.134	110
558.346	102
558.559	120
558.771	99
558.984	93
559.196	111
559.409	119
559.621	101
559.833	103
560.046	103
560.258	117
560.47	103
560.683	111
560.895	93
561.107	99
561.32	104
561.532	101
561.744	119
561.956	107
562.168	100
562.381	101
562.593	110
562.805	85
563.017	106
563.229	90
563.441	104
563.653	104
563.865	90
564.077	104
564.289	102
564.501	101
564.713	87
564.925	94
565.137	95
565.349	97
565.561	96
565.773	98
565.985	105
566.197	89
566.408	106
566.62	90
566.832	99
567.044	103
567.255	95
567.467	95
567.679	92
567.891	77
568.102	86
568.314	78
568.526	86
568.737	91
568.949	100
569.161	90
569.372	71
569.584	93
569.795	91
570.007	91
570.218	78
570.43	85
570.641	94
570.853	89
571.064	98
571.276	87
571.487	108
571.698	98
571.91	83
572.121	91
572.333	102
572.544	85
572.755	96
572.966	94
573.178	90
573.389	88
573.6	100
573.811	99
574.023	87
574.234	85
574.445	77
574.656	86
574.867	90
575.078	103
575.289	86
575.501	87
575.712	90
575.923	93
576.134	97
576.345	94
576.556	91
576.767	90
576.978	92
577.188	101
577.399	92
577.61	95
577.821	102
578.032	89
578.243	82
578.454	89
578.665	88
578.875	98
579.086	85
579.297	86
579.508	95
579.718	85
579.929	85
580.14	86
580.35	88
580.561	81
580.772	79
580.982	79
581.193	92
581.403	86
581.614	93
581.825	92
582.035	83
582.246	89
582.456	85
582.667	95
582.877	90
583.087	87
583.298	86
583.508	82
583.719	85
583.929	77
584.139	77
584.35	79
584.56	84
584.77	93
584.981	90
585.191	77
585.401	88
585.611	94
585.821	90
586.032	110
586.242	98
586.452	102
586.662	78
586.872	79
587.082	90
587.292	95
587.502	90
587.713	85
587.923	91
588.133	88
588.343	85
588.553	69
588.762	82
588.972	87
589.182	80
589.392	86
589.602	90
589.812	86
590.022	86
590.232	84
590.441	106
590.651	95
590.861	100
591.071	94
591.281	101
591.49	76
591.7	84
591.91	80
592.119	87
592.329	89
592.539	88
592.748	94
592.958	78
593.167	79
593.377	82
593.587	90
593.796	80
594.006	90
594.215	88
594.424	91
594.634	83
594.843	99
595.053	87
595.262	100
595.472	86
595.681	85
595.89	76
596.1	98
596.309	89
596.518	92
596.727	88
596.937	98
597.146	87
597.355	74
597.564	86
597.774	84
597.983	90
598.192	101
598.401	89
598.61	86
598.819	97
599.028	97
599.237	94
599.446	89
599.655	69
599.864	93
600.073	76
600.282	93
600.491	97
600.7	89
600.909	94
601.118	101
601.327	97
601.536	113
601.745	102
601.953	85
602.162	81
602.371	94
602.58	94
602.789	80
602.997	84
603.206	88
603.415	105
603.623	85
603.832	105
604.041	103
604.249	94
604.458	102
604.666	80
604.875	85
605.084	104
605.292	99
605.501	94
605.709	92
605.918	86
606.126	103
606.334	102
606.543	83
606.751	92
606.96	92
607.168	90
607.376	102
607.585	90
607.793	78
608.001	105
608.21	92
608.418	68
608.626	100
608.834	93
609.043	91
609.251	90
609.459	101
609.667	97
609.875	99
610.083	91
610.291	92
610.499	102
610.707	103
610.916	95
611.124	101
611.332	95
611.54	97
611.748	114
611.955	91
612.163	102
612.371	96
612.579	117
612.787	99
612.995	102
613.203	95
613.411	100
613.618	85
613.826	95
614.034	100
614.242	82
614.449	99
614.657	89
614.865	99
615.072	92
615.28	104
615.488	99
615.695	86
615.903	91
616.111	79
616.318	104
616.526	95
616.733	97
616.941	106
617.148	89
617.356	87
617.563	98
617.771	89
617.978	89
618.185	104
618.393	79
618.6	94
618.807	95
619.015	89
619.222	110
619.429	93
619.637	89
619.844	89
620.051	87
620.258	97
620.466	92
620.673	94
620.88	89
621.087	98
621.294	95
621.501	101
621.708	92
621.915	85
622.122	88
622.329	87
622.536	105
622.743	88
622.95	87
623.157	92
623.364	87
623.571	92
623.778	95
623.985	90
624.192	75
624.399	84
624.606	90
624.812	108
625.019	108
625.226	105
625.433	98
625.639	94
625.846	80
626.053	98
626.259	90
626.466	79
626.673	108
626.879	87
627.086	102
627.293	90
627.499	92
627.706	97
627.912	87
628.119	93
628.325	110
628.532	94
628.738	89
628.945	94
629.151	85
629.357	97
629.564	83
629.77	86
629.976	89
630.183	91
630.389	81
630.595	82
630.802	89
631.008	79
631.214	93
631.42	99
631.627	89
631.833	99
632.039	88
632.245	81
632.451	86
632.657	85
632.863	84
633.069	90
633.275	85
633.481	100
633.688	94
633.893	104
634.099	87
634.305	89
634.511	92
634.717	96
634.923	93
635.129	74
635.335	85
635.541	100
635.747	85
635.952	107
636.158	84
636.364	89
636.57	101
636.775	99
636.981	102
637.187	89
637.392	106
637.598	101
637.804	111
638.009	106
638.215	80
638.421	110
638.626	82
638.832	91
639.037	94
639.243	97
639.448	85
639.654	102
639.859	93
640.065	87
640.27	107
640.475	74
640.681	77
640.886	92
641.091	93
641.297	87
641.502	78
641.707	89
641.913	89
642.118	87
642.323	96
642.528	88
642.733	80
642.939	100
643.144	92
643.349	89
643.554	106
643.759	92
643.964	95
644.169	93
644.374	92
644.579	80
644.784	86
644.989	74
645.194	78
645.399	95
645.604	92
645.809	88
646.014	98
646.219	99
646.423	95
646.628	89
646.833	87
647.038	89
647.243	81
647.447	95
647.652	99
647.857	89
648.062	87
648.266	95
648.471	77
648.676	74
648.88	89
649.085	85
649.289	95
649.494	109
649.698	100
649.903	95
650.107	97
650.312	101
650.516	80
650.721	81
650.925	82
651.13	88
651.334	106
651.539	102
651.743	97
651.947	90
652.152	95
652.356	102
652.56	95
652.764	78
652.969	83
653.173	86
653.377	94
653.581	78
653.785	78
653.99	87
654.194	76
654.398	88
654.602	78
654.806	85
655.01	92
655.214	92
655.418	76
655.622	81
655.826	87
656.03	93
656.234	98
656.438	95
656.642	92
656.846	75
657.049	87
657.253	93
657.457	87
657.661	105
657.865	84
658.068	77
658.272	86
658.476	85
658.68	92
658.883	77
659.087	86
659.291	94
659.494	90
659.698	101
659.901	74
660.105	85
660.309	82
660.512	85
660.716	94
660.919	91
661.123	102
661.326	72
661.53	81
661.733	71
661.936	91
662.14	74
662.343	94
662.546	89
662.75	104
662.953	83
663.156	98
663.36	79
663.563	90
663.766	79
663.969	93
664.173	78
664.376	85
664.579	86
664.782	78
664.985	86
665.188	97
665.391	94
665.594	83
665.797	73
666	78
666.203	85
666.406	84
666.609	87
666.812	82
667.015	81
667.218	84
667.421	82
667.624	78
667.827	97
668.03	81
668.232	86
668.435	83
668.638	94
668.841	92
669.043	91
669.246	90
669.449	83
669.651	86
669.854	86
670.057	94
670.259	76
670.462	86
670.665	91
670.867	95
671.07	86
671.272	87
671.475	82
671.677	85
671.88	89
672.082	91
672.284	94
672.487	85
672.689	72
672.892	78
