Data from Location3.07152019.Energy5.Lamp.07192019.3%Agarose_HRD10591_15-18-06-270.txt Node
Date: Fri Jul 19 15:18:06 EDT 2019
User: cochatt
Spectrometer: HR+D1059
Trigger mode: 1
Integration Time (sec): 1.000000E-1
Scans to average: 1
Electric dark correction enabled: true
Nonlinearity correction enabled: false
Boxcar width: 0
XAxis mode: Wavelengths
Number of Pixels in Spectrum: 2048
>>>>>Begin Spectral Data<<<<<
223.165	-6
223.4	-6
223.635	-6
223.869	-27
224.104	-8
224.338	-12
224.573	-2
224.808	-17
225.042	-5
225.277	1
225.511	-11
225.746	-15
225.98	13
226.215	17
226.449	3
226.683	30
226.918	24
227.152	15
227.387	34
227.621	43
227.856	49
228.09	60
228.324	54
228.559	63
228.793	54
229.027	62
229.262	49
229.496	68
229.73	69
229.964	84
230.199	85
230.433	71
230.667	86
230.901	75
231.136	81
231.37	82
231.604	75
231.838	65
232.072	88
232.306	73
232.541	84
232.775	76
233.009	81
233.243	79
233.477	72
233.711	75
233.945	72
234.179	72
234.413	77
234.647	73
234.881	73
235.115	92
235.349	71
235.583	69
235.817	89
236.051	74
236.285	90
236.519	83
236.753	82
236.987	68
237.221	72
237.455	87
237.689	82
237.922	85
238.156	66
238.39	77
238.624	77
238.858	72
239.091	82
239.325	70
239.559	65
239.793	78
240.027	71
240.26	82
240.494	82
240.728	92
240.961	77
241.195	79
241.429	74
241.662	80
241.896	84
242.13	71
242.363	89
242.597	80
242.83	76
243.064	85
243.298	68
243.531	73
243.765	72
243.998	75
244.232	75
244.465	85
244.699	87
244.932	72
245.166	87
245.399	88
245.633	83
245.866	62
246.099	75
246.333	83
246.566	76
246.8	94
247.033	67
247.266	78
247.5	69
247.733	68
247.966	66
248.2	68
248.433	96
248.666	72
248.899	81
249.133	75
249.366	96
249.599	89
249.832	73
250.066	86
250.299	69
250.532	81
250.765	82
250.998	94
251.231	73
251.465	70
251.698	74
251.931	78
252.164	81
252.397	85
252.63	71
252.863	98
253.096	75
253.329	79
253.562	86
253.795	79
254.028	80
254.261	82
254.494	68
254.727	83
254.96	85
255.193	85
255.426	94
255.659	74
255.892	76
256.124	70
256.357	83
256.59	65
256.823	81
257.056	84
257.289	70
257.521	71
257.754	83
257.987	88
258.22	81
258.452	77
258.685	76
258.918	73
259.151	75
259.383	84
259.616	71
259.849	86
260.081	85
260.314	93
260.547	81
260.779	86
261.012	83
261.244	80
261.477	78
261.71	90
261.942	84
262.175	90
262.407	102
262.64	78
262.872	79
263.105	78
263.337	92
263.57	85
263.802	79
264.035	87
264.267	78
264.499	71
264.732	94
264.964	74
265.197	86
265.429	81
265.661	73
265.894	80
266.126	82
266.358	86
266.591	77
266.823	79
267.055	87
267.287	87
267.52	97
267.752	76
267.984	84
268.216	81
268.448	66
268.681	77
268.913	77
269.145	77
269.377	78
269.609	91
269.841	91
270.073	80
270.306	80
270.538	83
270.77	73
271.002	70
271.234	80
271.466	87
271.698	80
271.93	78
272.162	87
272.394	84
272.626	80
272.858	95
273.09	76
273.322	78
273.553	79
273.785	97
274.017	92
274.249	75
274.481	81
274.713	103
274.945	86
275.176	90
275.408	85
275.64	79
275.872	89
276.104	94
276.335	80
276.567	95
276.799	67
277.031	103
277.262	95
277.494	92
277.726	87
277.957	73
278.189	79
278.421	82
278.652	76
278.884	87
279.115	78
279.347	81
279.579	74
279.81	76
280.042	87
280.273	85
280.505	64
280.736	87
280.968	81
281.199	77
281.431	90
281.662	90
281.894	97
282.125	79
282.356	85
282.588	91
282.819	94
283.051	79
283.282	84
283.513	87
283.745	86
283.976	82
284.207	85
284.439	91
284.67	97
284.901	78
285.132	111
285.364	86
285.595	76
285.826	85
286.057	95
286.288	84
286.52	82
286.751	86
286.982	76
287.213	75
287.444	77
287.675	79
287.906	90
288.138	83
288.369	83
288.6	72
288.831	92
289.062	71
289.293	85
289.524	85
289.755	82
289.986	73
290.217	75
290.448	79
290.679	86
290.91	74
291.141	80
291.371	106
291.602	79
291.833	82
292.064	87
292.295	69
292.526	70
292.757	73
292.987	75
293.218	80
293.449	82
293.68	94
293.91	81
294.141	79
294.372	104
294.603	85
294.833	93
295.064	81
295.295	73
295.525	77
295.756	85
295.987	82
296.217	97
296.448	94
296.679	98
296.909	83
297.14	86
297.37	100
297.601	72
297.831	81
298.062	90
298.292	77
298.523	81
298.753	80
298.984	80
299.214	99
299.445	84
299.675	83
299.905	90
300.136	85
300.366	79
300.597	90
300.827	74
301.057	89
301.288	99
301.518	79
301.748	77
301.979	75
302.209	80
302.439	79
302.669	96
302.9	86
303.13	87
303.36	97
303.59	82
303.82	75
304.051	99
304.281	80
304.511	90
304.741	85
304.971	87
305.201	86
305.431	72
305.661	79
305.891	82
306.121	86
306.352	77
306.582	102
306.812	82
307.042	96
307.272	90
307.502	80
307.731	82
307.961	83
308.191	93
308.421	73
308.651	80
308.881	78
309.111	80
309.341	76
309.571	83
309.8	89
310.03	70
310.26	93
310.49	67
310.72	77
310.949	90
311.179	76
311.409	74
311.639	92
311.868	91
312.098	91
312.328	78
312.557	85
312.787	80
313.017	83
313.246	91
313.476	86
313.706	78
313.935	87
314.165	81
314.394	78
314.624	80
314.853	76
315.083	96
315.312	86
315.542	80
315.771	84
316.001	98
316.23	88
316.46	89
316.689	70
316.919	82
317.148	88
317.377	85
317.607	84
317.836	92
318.065	73
318.295	80
318.524	100
318.753	91
318.983	73
319.212	73
319.441	77
319.67	81
319.9	100
320.129	96
320.358	86
320.587	101
320.816	74
321.046	87
321.275	104
321.504	76
321.733	76
321.962	81
322.191	99
322.42	84
322.649	95
322.878	84
323.108	89
323.337	73
323.566	90
323.795	81
324.024	82
324.253	84
324.482	91
324.71	93
324.939	93
325.168	95
325.397	76
325.626	82
325.855	79
326.084	81
326.313	85
326.542	89
326.77	89
326.999	83
327.228	87
327.457	76
327.686	91
327.914	81
328.143	103
328.372	77
328.6	88
328.829	71
329.058	98
329.287	90
329.515	87
329.744	73
329.972	67
330.201	75
330.43	84
330.658	99
330.887	84
331.115	85
331.344	76
331.572	70
331.801	77
332.03	80
332.258	93
332.486	80
332.715	73
332.943	89
333.172	71
333.4	71
333.629	82
333.857	65
334.085	98
334.314	85
334.542	74
334.771	82
334.999	91
335.227	81
335.455	78
335.684	81
335.912	92
336.14	77
336.369	93
336.597	91
336.825	82
337.053	74
337.281	88
337.51	90
337.738	81
337.966	80
338.194	80
338.422	81
338.65	86
338.878	81
339.106	70
339.334	78
339.562	72
339.79	81
340.018	81
340.246	86
340.474	98
340.702	74
340.93	75
341.158	78
341.386	85
341.614	83
341.842	88
342.07	89
342.298	83
342.526	79
342.754	73
342.981	82
343.209	88
343.437	83
343.665	81
343.893	85
344.12	89
344.348	82
344.576	77
344.804	86
345.031	89
345.259	99
345.487	76
345.714	87
345.942	84
346.17	82
346.397	77
346.625	81
346.853	85
347.08	94
347.308	89
347.535	86
347.763	66
347.99	82
348.218	86
348.445	81
348.673	80
348.9	87
349.128	89
349.355	93
349.583	87
349.81	82
350.037	61
350.265	73
350.492	69
350.72	83
350.947	79
351.174	78
351.402	81
351.629	85
351.856	83
352.083	88
352.311	71
352.538	74
352.765	78
352.992	80
353.22	75
353.447	87
353.674	81
353.901	71
354.128	75
354.355	81
354.583	97
354.81	91
355.037	96
355.264	76
355.491	90
355.718	84
355.945	79
356.172	73
356.399	81
356.626	94
356.853	69
357.08	85
357.307	88
357.534	84
357.761	98
357.988	80
358.215	83
358.441	80
358.668	83
358.895	94
359.122	66
359.349	77
359.576	86
359.802	78
360.029	77
360.256	86
360.483	75
360.709	84
360.936	87
361.163	85
361.39	98
361.616	96
361.843	72
362.07	83
362.296	76
362.523	88
362.749	75
362.976	86
363.203	91
363.429	84
363.656	80
363.882	78
364.109	79
364.335	73
364.562	83
364.788	86
365.015	88
365.241	82
365.468	83
365.694	97
365.92	96
366.147	83
366.373	72
366.599	76
366.826	87
367.052	86
367.278	88
367.505	87
367.731	97
367.957	87
368.184	82
368.41	74
368.636	91
368.862	83
369.089	85
369.315	74
369.541	80
369.767	83
369.993	82
370.219	80
370.445	86
370.672	85
370.898	72
371.124	83
371.35	77
371.576	81
371.802	72
372.028	85
372.254	97
372.48	88
372.706	95
372.932	90
373.158	79
373.384	80
373.61	89
373.835	79
374.061	95
374.287	85
374.513	87
374.739	91
374.965	90
375.191	79
375.416	79
375.642	94
375.868	82
376.094	74
376.319	87
376.545	80
376.771	81
376.997	76
377.222	85
377.448	71
377.674	87
377.899	83
378.125	93
378.35	82
378.576	77
378.802	72
379.027	83
379.253	77
379.478	86
379.704	78
379.929	66
380.155	80
380.38	84
380.606	86
380.831	88
381.057	76
381.282	93
381.507	95
381.733	84
381.958	99
382.184	87
382.409	91
382.634	92
382.86	91
383.085	83
383.31	89
383.535	70
383.761	85
383.986	81
384.211	85
384.436	93
384.662	86
384.887	81
385.112	85
385.337	81
385.562	109
385.787	85
386.013	78
386.238	82
386.463	85
386.688	80
386.913	84
387.138	78
387.363	74
387.588	102
387.813	96
388.038	92
388.263	93
388.488	83
388.713	79
388.938	96
389.163	79
389.387	88
389.612	89
389.837	100
390.062	83
390.287	93
390.512	98
390.736	91
390.961	85
391.186	85
391.411	85
391.636	94
391.86	77
392.085	101
392.31	94
392.534	91
392.759	91
392.984	94
393.208	79
393.433	79
393.658	83
393.882	84
394.107	82
394.331	94
394.556	75
394.78	88
395.005	83
395.229	69
395.454	88
395.678	72
395.903	98
396.127	94
396.352	87
396.576	80
396.801	75
397.025	84
397.249	77
397.474	87
397.698	95
397.922	92
398.147	88
398.371	94
398.595	103
398.82	85
399.044	85
399.268	98
399.492	91
399.717	85
399.941	79
400.165	85
400.389	93
400.613	85
400.837	97
401.062	92
401.286	112
401.51	74
401.734	98
401.958	88
402.182	100
402.406	94
402.63	84
402.854	78
403.078	87
403.302	95
403.526	81
403.75	91
403.974	82
404.198	89
404.422	85
404.645	95
404.869	85
405.093	90
405.317	76
405.541	95
405.765	93
405.988	82
406.212	90
406.436	76
406.66	90
406.883	90
407.107	87
407.331	91
407.555	85
407.778	98
408.002	71
408.226	95
408.449	76
408.673	81
408.896	98
409.12	100
409.344	96
409.567	85
409.791	83
410.014	83
410.238	82
410.461	79
410.685	88
410.908	78
411.132	93
411.355	90
411.578	89
411.802	88
412.025	94
412.249	92
412.472	72
412.695	81
412.919	99
413.142	93
413.365	79
413.589	93
413.812	88
414.035	108
414.258	90
414.482	90
414.705	105
414.928	73
415.151	95
415.374	105
415.597	94
415.821	98
416.044	101
416.267	104
416.49	110
416.713	80
416.936	96
417.159	91
417.382	93
417.605	79
417.828	85
418.051	93
418.274	101
418.497	96
418.72	85
418.943	83
419.166	102
419.389	102
419.611	90
419.834	85
420.057	106
420.28	96
420.503	95
420.726	80
420.948	93
421.171	97
421.394	89
421.617	87
421.839	100
422.062	111
422.285	94
422.507	86
422.73	89
422.953	97
423.175	88
423.398	101
423.621	104
423.843	103
424.066	117
424.288	102
424.511	103
424.733	93
424.956	99
425.178	95
425.401	85
425.623	97
425.846	85
426.068	73
426.291	83
426.513	89
426.735	88
426.958	101
427.18	89
427.402	109
427.625	105
427.847	90
428.069	87
428.292	86
428.514	86
428.736	91
428.958	90
429.181	105
429.403	96
429.625	91
429.847	94
430.069	97
430.292	96
430.514	84
430.736	91
430.958	90
431.18	101
431.402	96
431.624	82
431.846	102
432.068	105
432.29	97
432.512	86
432.734	85
432.956	89
433.178	96
433.4	94
433.622	96
433.844	94
434.066	93
434.287	85
434.509	85
434.731	88
434.953	95
435.175	99
435.397	98
435.618	87
435.84	84
436.062	89
436.284	83
436.505	95
436.727	85
436.949	90
437.17	96
437.392	113
437.614	94
437.835	81
438.057	98
438.278	76
438.5	93
438.721	105
438.943	103
439.165	85
439.386	92
439.608	93
439.829	92
440.05	94
440.272	112
440.493	100
440.715	97
440.936	110
441.158	105
441.379	112
441.6	102
441.822	98
442.043	91
442.264	86
442.486	89
442.707	79
442.928	98
443.149	104
443.371	107
443.592	93
443.813	104
444.034	95
444.255	92
444.476	92
444.698	97
444.919	94
445.14	167
445.361	144
445.582	101
445.803	103
446.024	92
446.245	100
446.466	113
446.687	99
446.908	107
447.129	90
447.35	99
447.571	105
447.792	112
448.013	105
448.234	99
448.455	86
448.675	97
448.896	83
449.117	101
449.338	95
449.559	95
449.779	84
450	102
450.221	102
450.442	94
450.662	97
450.883	81
451.104	96
451.324	106
451.545	87
451.766	101
451.986	91
452.207	89
452.428	90
452.648	86
452.869	105
453.089	93
453.31	96
453.53	87
453.751	88
453.971	94
454.192	89
454.412	74
454.633	94
454.853	81
455.073	88
455.294	94
455.514	84
455.734	94
455.955	97
456.175	94
456.395	96
456.616	82
456.836	93
457.056	88
457.276	97
457.497	94
457.717	90
457.937	80
458.157	78
458.377	80
458.598	86
458.818	71
459.038	94
459.258	87
459.478	81
459.698	87
459.918	96
460.138	83
460.358	90
460.578	90
460.798	94
461.018	86
461.238	97
461.458	94
461.678	88
461.898	72
462.118	95
462.338	95
462.558	102
462.777	86
462.997	84
463.217	81
463.437	88
463.657	93
463.876	86
464.096	84
464.316	88
464.536	86
464.755	87
464.975	79
465.195	93
465.414	88
465.634	94
465.854	101
466.073	97
466.293	95
466.512	94
466.732	98
466.951	116
467.171	91
467.391	101
467.61	103
467.829	95
468.049	112
468.268	93
468.488	97
468.707	101
468.927	99
469.146	97
469.365	94
469.585	87
469.804	92
470.023	99
470.243	94
470.462	108
470.681	87
470.901	99
471.12	106
471.339	105
471.558	101
471.777	93
471.997	93
472.216	91
472.435	93
472.654	92
472.873	84
473.092	102
473.311	92
473.53	96
473.749	99
473.968	85
474.187	101
474.406	103
474.625	78
474.844	95
475.063	78
475.282	95
475.501	83
475.72	85
475.939	99
476.158	103
476.377	89
476.596	100
476.814	90
477.033	82
477.252	106
477.471	105
477.69	86
477.908	110
478.127	101
478.346	109
478.564	90
478.783	88
479.002	102
479.22	97
479.439	101
479.658	90
479.876	106
480.095	94
480.313	83
480.532	91
480.751	101
480.969	92
481.188	80
481.406	79
481.624	88
481.843	100
482.061	91
482.28	88
482.498	86
482.717	87
482.935	97
483.153	101
483.372	113
483.59	105
483.808	95
484.027	103
484.245	95
484.463	88
484.681	114
484.9	102
485.118	97
485.336	95
485.554	88
485.772	91
485.99	90
486.209	80
486.427	92
486.645	99
486.863	84
487.081	96
487.299	96
487.517	95
487.735	101
487.953	101
488.171	119
488.389	110
488.607	111
488.825	105
489.043	84
489.261	110
489.479	87
489.696	117
489.914	94
490.132	105
490.35	108
490.568	105
490.786	113
491.003	98
491.221	114
491.439	111
491.657	128
491.874	115
492.092	125
492.31	136
492.527	133
492.745	109
492.963	121
493.18	118
493.398	129
493.615	117
493.833	114
494.05	106
494.268	115
494.485	103
494.703	103
494.92	105
495.138	110
495.355	117
495.573	123
495.79	116
496.008	119
496.225	107
496.442	118
496.66	100
496.877	109
497.094	108
497.312	114
497.529	111
497.746	101
497.963	99
498.181	104
498.398	109
498.615	86
498.832	85
499.049	99
499.267	91
499.484	87
499.701	91
499.918	99
500.135	109
500.352	104
500.569	90
500.786	96
501.003	97
501.22	109
501.437	79
501.654	93
501.871	109
502.088	95
502.305	88
502.522	102
502.739	100
502.956	97
503.172	90
503.389	89
503.606	94
503.823	95
504.04	91
504.256	97
504.473	90
504.69	93
504.907	97
505.123	85
505.34	95
505.557	96
505.773	101
505.99	88
506.207	96
506.423	100
506.64	105
506.856	96
507.073	91
507.289	103
507.506	81
507.722	92
507.939	97
508.155	103
508.372	75
508.588	97
508.805	89
509.021	86
509.238	94
509.454	103
509.67	78
509.887	89
510.103	87
510.319	94
510.536	87
510.752	87
510.968	76
511.184	90
511.401	80
511.617	82
511.833	93
512.049	87
512.265	88
512.481	91
512.698	91
512.914	73
513.13	88
513.346	88
513.562	94
513.778	79
513.994	83
514.21	83
514.426	92
514.642	90
514.858	89
515.074	89
515.29	89
515.506	82
515.721	86
515.937	94
516.153	86
516.369	78
516.585	97
516.801	88
517.016	85
517.232	86
517.448	89
517.664	80
517.879	94
518.095	102
518.311	86
518.527	99
518.742	89
518.958	92
519.173	96
519.389	98
519.605	78
519.82	93
520.036	88
520.251	97
520.467	85
520.682	94
520.898	94
521.113	82
521.329	65
521.544	98
521.76	87
521.975	104
522.19	99
522.406	85
522.621	96
522.836	86
523.052	97
523.267	105
523.482	98
523.698	87
523.913	92
524.128	102
524.343	94
524.559	90
524.774	91
524.989	98
525.204	80
525.419	97
525.634	85
525.849	93
526.064	106
526.28	98
526.495	79
526.71	84
526.925	83
527.14	90
527.355	92
527.57	82
527.785	77
527.999	93
528.214	82
528.429	97
528.644	89
528.859	124
529.074	105
529.289	113
529.503	110
529.718	110
529.933	98
530.148	87
530.363	82
530.577	98
530.792	92
531.007	72
531.221	82
531.436	94
531.651	93
531.865	85
532.08	81
532.295	89
532.509	90
532.724	88
532.938	94
533.153	100
533.367	89
533.582	97
533.796	104
534.011	86
534.225	86
534.44	87
534.654	96
534.868	82
535.083	75
535.297	80
535.511	94
535.726	96
535.94	87
536.154	83
536.369	78
536.583	80
536.797	94
537.011	85
537.225	84
537.44	93
537.654	81
537.868	81
538.082	77
538.296	86
538.51	90
538.724	96
538.938	97
539.153	102
539.367	88
539.581	111
539.795	89
540.009	96
540.222	94
540.436	90
540.65	94
540.864	85
541.078	99
541.292	98
541.506	113
541.72	120
541.934	129
542.147	129
542.361	103
542.575	115
542.789	90
543.002	109
543.216	98
543.43	102
543.644	96
543.857	107
544.071	97
544.285	109
544.498	111
544.712	101
544.925	102
545.139	96
545.352	113
545.566	117
545.779	104
545.993	100
546.206	99
546.42	100
546.633	93
546.847	118
547.06	105
547.274	113
547.487	118
547.7	120
547.914	113
548.127	117
548.34	124
548.554	116
548.767	105
548.98	117
549.193	99
549.407	98
549.62	93
549.833	111
550.046	100
550.259	110
550.473	112
550.686	112
550.899	112
551.112	102
551.325	101
551.538	99
551.751	102
551.964	100
552.177	103
552.39	97
552.603	120
552.816	103
553.029	104
553.242	86
553.455	119
553.667	118
553.88	114
554.093	111
554.306	112
554.519	113
554.732	105
554.944	110
555.157	99
555.37	103
555.583	105
555.795	109
556.008	106
556.221	105
556.433	106
556.646	102
556.859	105
557.071	105
557.284	107
557.496	89
557.709	96
557.921	98
558.134	108
558.346	93
558.559	85
558.771	109
558.984	98
559.196	106
559.409	64
559.621	95
559.833	93
560.046	93
560.258	117
560.47	98
560.683	92
560.895	101
561.107	96
561.32	97
561.532	88
561.744	112
561.956	109
562.168	91
562.381	90
562.593	107
562.805	114
563.017	105
563.229	110
563.441	83
563.653	91
563.865	85
564.077	105
564.289	98
564.501	100
564.713	88
564.925	97
565.137	86
565.349	102
565.561	91
565.773	82
565.985	88
566.197	93
566.408	79
566.62	99
566.832	86
567.044	96
567.255	91
567.467	96
567.679	93
567.891	97
568.102	101
568.314	84
568.526	83
568.737	86
568.949	83
569.161	80
569.372	81
569.584	86
569.795	91
570.007	84
570.218	110
570.43	87
570.641	75
570.853	80
571.064	76
571.276	82
571.487	79
571.698	97
571.91	91
572.121	91
572.333	83
572.544	91
572.755	94
572.966	80
573.178	96
573.389	95
573.6	79
573.811	67
574.023	88
574.234	82
574.445	74
574.656	84
574.867	73
575.078	77
575.289	101
575.501	101
575.712	91
575.923	86
576.134	72
576.345	83
576.556	93
576.767	75
576.978	100
577.188	69
577.399	93
577.61	81
577.821	99
578.032	96
578.243	89
578.454	92
578.665	92
578.875	75
579.086	81
579.297	71
579.508	82
579.718	81
579.929	93
580.14	87
580.35	85
580.561	84
580.772	95
580.982	80
581.193	98
581.403	83
581.614	84
581.825	77
582.035	87
582.246	82
582.456	68
582.667	85
582.877	87
583.087	89
583.298	90
583.508	87
583.719	82
583.929	93
584.139	89
584.35	95
584.56	95
584.77	87
584.981	85
585.191	93
585.401	86
585.611	91
585.821	95
586.032	94
586.242	85
586.452	95
586.662	77
586.872	75
587.082	86
587.292	91
587.502	99
587.713	81
587.923	80
588.133	69
588.343	86
588.553	78
588.762	72
588.972	100
589.182	83
589.392	83
589.602	80
589.812	94
590.022	81
590.232	80
590.441	99
590.651	86
590.861	85
591.071	82
591.281	92
591.49	88
591.7	85
591.91	93
592.119	89
592.329	80
592.539	74
592.748	88
592.958	82
593.167	90
593.377	78
593.587	100
593.796	92
594.006	85
594.215	91
594.424	88
594.634	89
594.843	82
595.053	85
595.262	94
595.472	86
595.681	84
595.89	87
596.1	90
596.309	92
596.518	95
596.727	98
596.937	83
597.146	88
597.355	95
597.564	89
597.774	82
597.983	82
598.192	81
598.401	71
598.61	81
598.819	88
599.028	79
599.237	93
599.446	80
599.655	90
599.864	97
600.073	86
600.282	102
600.491	83
600.7	78
600.909	75
601.118	89
601.327	78
601.536	97
601.745	86
601.953	88
602.162	82
602.371	92
602.58	100
602.789	88
602.997	82
603.206	100
603.415	91
603.623	89
603.832	102
604.041	88
604.249	82
604.458	87
604.666	93
604.875	82
605.084	106
605.292	87
605.501	81
605.709	80
605.918	91
606.126	84
606.334	96
606.543	75
606.751	88
606.96	94
607.168	88
607.376	80
607.585	95
607.793	95
608.001	90
608.21	97
608.418	97
608.626	83
608.834	86
609.043	94
609.251	109
609.459	99
609.667	102
609.875	85
610.083	95
610.291	90
610.499	90
610.707	89
610.916	95
611.124	90
611.332	87
611.54	82
611.748	87
611.955	88
612.163	95
612.371	103
612.579	88
612.787	94
612.995	88
613.203	83
613.411	90
613.618	94
613.826	83
614.034	81
614.242	89
614.449	84
614.657	86
614.865	76
615.072	88
615.28	96
615.488	101
615.695	85
615.903	106
616.111	110
616.318	104
616.526	83
616.733	97
616.941	101
617.148	87
617.356	100
617.563	84
617.771	94
617.978	109
618.185	98
618.393	94
618.6	89
618.807	88
619.015	90
619.222	80
619.429	81
619.637	76
619.844	90
620.051	81
620.258	92
620.466	99
620.673	84
620.88	73
621.087	88
621.294	88
621.501	89
621.708	113
621.915	102
622.122	90
622.329	97
622.536	82
622.743	97
622.95	90
623.157	90
623.364	90
623.571	94
623.778	79
623.985	84
624.192	93
624.399	86
624.606	90
624.812	82
625.019	82
625.226	91
625.433	90
625.639	89
625.846	98
626.053	97
626.259	98
626.466	87
626.673	76
626.879	90
627.086	96
627.293	83
627.499	91
627.706	80
627.912	95
628.119	97
628.325	90
628.532	92
628.738	87
628.945	84
629.151	85
629.357	89
629.564	95
629.77	78
629.976	90
630.183	83
630.389	86
630.595	81
630.802	91
631.008	101
631.214	94
631.42	93
631.627	79
631.833	99
632.039	82
632.245	83
632.451	94
632.657	87
632.863	86
633.069	87
633.275	85
633.481	98
633.688	98
633.893	112
634.099	96
634.305	86
634.511	85
634.717	88
634.923	96
635.129	67
635.335	77
635.541	82
635.747	80
635.952	92
636.158	97
636.364	84
636.57	94
636.775	93
636.981	91
637.187	71
637.392	85
637.598	89
637.804	103
638.009	96
638.215	113
638.421	99
638.626	96
638.832	89
639.037	92
639.243	97
639.448	90
639.654	96
639.859	96
640.065	69
640.27	81
640.475	91
640.681	95
640.886	99
641.091	81
641.297	87
641.502	86
641.707	91
641.913	87
642.118	79
642.323	98
642.528	86
642.733	93
642.939	89
643.144	81
643.349	92
643.554	91
643.759	104
643.964	84
644.169	95
644.374	81
644.579	79
644.784	80
644.989	85
645.194	96
645.399	80
645.604	90
645.809	85
646.014	88
646.219	86
646.423	90
646.628	99
646.833	88
647.038	94
647.243	97
647.447	83
647.652	77
647.857	81
648.062	89
648.266	90
648.471	82
648.676	83
648.88	86
649.085	89
649.289	80
649.494	84
649.698	99
649.903	74
650.107	78
650.312	82
650.516	84
650.721	90
650.925	86
651.13	73
651.334	84
651.539	83
651.743	88
651.947	79
652.152	96
652.356	86
652.56	105
652.764	87
652.969	89
653.173	80
653.377	88
653.581	88
653.785	85
653.99	68
654.194	70
654.398	75
654.602	94
654.806	75
655.01	89
655.214	81
655.418	88
655.622	69
655.826	93
656.03	97
656.234	85
656.438	93
656.642	81
656.846	90
657.049	90
657.253	91
657.457	89
657.661	97
657.865	93
658.068	94
658.272	95
658.476	80
658.68	75
658.883	81
659.087	98
659.291	86
659.494	93
659.698	75
659.901	90
660.105	90
660.309	67
660.512	85
660.716	82
660.919	85
661.123	90
661.326	72
661.53	83
661.733	85
661.936	86
662.14	80
662.343	81
662.546	85
662.75	98
662.953	76
663.156	71
663.36	88
663.563	77
663.766	86
663.969	91
664.173	78
664.376	80
664.579	83
664.782	72
664.985	84
665.188	87
665.391	101
665.594	91
665.797	71
666	70
666.203	87
666.406	89
666.609	94
666.812	91
667.015	68
667.218	67
667.421	80
667.624	98
667.827	86
668.03	89
668.232	80
668.435	79
668.638	89
668.841	81
669.043	77
669.246	79
669.449	85
669.651	86
669.854	91
670.057	85
670.259	96
670.462	95
670.665	64
670.867	84
671.07	80
671.272	86
671.475	76
671.677	71
671.88	79
672.082	83
672.284	81
672.487	82
672.689	79
672.892	77
