Data from Location3.07152019.Energy5.Lamp.07192019.3%Agarose_HRD10591_15-17-02-268.txt Node
Date: Fri Jul 19 15:17:02 EDT 2019
User: cochatt
Spectrometer: HR+D1059
Trigger mode: 1
Integration Time (sec): 1.000000E-1
Scans to average: 1
Electric dark correction enabled: true
Nonlinearity correction enabled: false
Boxcar width: 0
XAxis mode: Wavelengths
Number of Pixels in Spectrum: 2048
>>>>>Begin Spectral Data<<<<<
223.165	-14
223.4	-14
223.635	-14
223.869	-4
224.104	-16
224.338	-15
224.573	-12
224.808	-12
225.042	-20
225.277	-20
225.511	-2
225.746	0
225.98	4
226.215	8
226.449	7
226.683	25
226.918	31
227.152	40
227.387	18
227.621	31
227.856	37
228.09	44
228.324	34
228.559	48
228.793	56
229.027	76
229.262	62
229.496	68
229.73	71
229.964	66
230.199	79
230.433	73
230.667	82
230.901	84
231.136	88
231.37	83
231.604	84
231.838	87
232.072	76
232.306	83
232.541	78
232.775	75
233.009	90
233.243	76
233.477	83
233.711	86
233.945	78
234.179	84
234.413	81
234.647	75
234.881	95
235.115	63
235.349	84
235.583	87
235.817	76
236.051	81
236.285	81
236.519	67
236.753	75
236.987	74
237.221	82
237.455	85
237.689	83
237.922	77
238.156	80
238.39	77
238.624	86
238.858	82
239.091	72
239.325	75
239.559	70
239.793	74
240.027	80
240.26	83
240.494	73
240.728	80
240.961	86
241.195	89
241.429	71
241.662	87
241.896	78
242.13	92
242.363	91
242.597	90
242.83	68
243.064	73
243.298	80
243.531	71
243.765	85
243.998	85
244.232	71
244.465	73
244.699	81
244.932	82
245.166	77
245.399	75
245.633	72
245.866	86
246.099	66
246.333	82
246.566	90
246.8	72
247.033	73
247.266	79
247.5	85
247.733	101
247.966	91
248.2	76
248.433	80
248.666	83
248.899	66
249.133	76
249.366	103
249.599	82
249.832	92
250.066	75
250.299	87
250.532	84
250.765	90
250.998	77
251.231	77
251.465	71
251.698	80
251.931	83
252.164	90
252.397	85
252.63	78
252.863	71
253.096	72
253.329	83
253.562	84
253.795	81
254.028	80
254.261	72
254.494	87
254.727	79
254.96	76
255.193	80
255.426	96
255.659	100
255.892	105
256.124	95
256.357	93
256.59	82
256.823	78
257.056	85
257.289	81
257.521	72
257.754	85
257.987	83
258.22	89
258.452	80
258.685	100
258.918	78
259.151	91
259.383	77
259.616	72
259.849	75
260.081	85
260.314	84
260.547	99
260.779	91
261.012	71
261.244	89
261.477	93
261.71	81
261.942	67
262.175	86
262.407	82
262.64	82
262.872	84
263.105	70
263.337	91
263.57	97
263.802	85
264.035	89
264.267	77
264.499	88
264.732	85
264.964	106
265.197	75
265.429	73
265.661	85
265.894	91
266.126	91
266.358	102
266.591	103
266.823	94
267.055	83
267.287	88
267.52	82
267.752	74
267.984	81
268.216	97
268.448	83
268.681	88
268.913	95
269.145	79
269.377	88
269.609	87
269.841	83
270.073	89
270.306	77
270.538	83
270.77	87
271.002	90
271.234	80
271.466	92
271.698	79
271.93	71
272.162	83
272.394	90
272.626	86
272.858	91
273.09	87
273.322	88
273.553	94
273.785	77
274.017	88
274.249	86
274.481	84
274.713	84
274.945	88
275.176	80
275.408	94
275.64	85
275.872	82
276.104	73
276.335	86
276.567	83
276.799	85
277.031	90
277.262	90
277.494	75
277.726	88
277.957	80
278.189	78
278.421	99
278.652	87
278.884	85
279.115	99
279.347	92
279.579	77
279.81	73
280.042	85
280.273	86
280.505	67
280.736	77
280.968	86
281.199	87
281.431	92
281.662	85
281.894	88
282.125	86
282.356	81
282.588	79
282.819	98
283.051	79
283.282	89
283.513	84
283.745	95
283.976	91
284.207	85
284.439	87
284.67	85
284.901	91
285.132	77
285.364	71
285.595	82
285.826	79
286.057	97
286.288	91
286.52	82
286.751	93
286.982	82
287.213	90
287.444	98
287.675	86
287.906	85
288.138	86
288.369	98
288.6	95
288.831	106
289.062	98
289.293	88
289.524	96
289.755	85
289.986	87
290.217	91
290.448	98
290.679	90
290.91	88
291.141	98
291.371	79
291.602	88
291.833	88
292.064	76
292.295	77
292.526	87
292.757	74
292.987	81
293.218	80
293.449	67
293.68	91
293.91	89
294.141	96
294.372	86
294.603	89
294.833	82
295.064	95
295.295	75
295.525	81
295.756	76
295.987	93
296.217	76
296.448	74
296.679	92
296.909	105
297.14	78
297.37	87
297.601	94
297.831	77
298.062	83
298.292	75
298.523	92
298.753	71
298.984	93
299.214	100
299.445	84
299.675	82
299.905	74
300.136	85
300.366	96
300.597	84
300.827	91
301.057	92
301.288	80
301.518	84
301.748	91
301.979	91
302.209	90
302.439	86
302.669	91
302.9	96
303.13	83
303.36	88
303.59	89
303.82	87
304.051	81
304.281	84
304.511	93
304.741	92
304.971	85
305.201	87
305.431	97
305.661	91
305.891	86
306.121	97
306.352	100
306.582	73
306.812	77
307.042	79
307.272	91
307.502	96
307.731	93
307.961	77
308.191	86
308.421	101
308.651	93
308.881	99
309.111	100
309.341	93
309.571	86
309.8	84
310.03	100
310.26	77
310.49	90
310.72	87
310.949	89
311.179	81
311.409	92
311.639	92
311.868	86
312.098	96
312.328	89
312.557	90
312.787	85
313.017	84
313.246	101
313.476	101
313.706	87
313.935	90
314.165	93
314.394	80
314.624	74
314.853	89
315.083	83
315.312	80
315.542	92
315.771	100
316.001	77
316.23	81
316.46	104
316.689	82
316.919	82
317.148	84
317.377	81
317.607	106
317.836	85
318.065	103
318.295	93
318.524	85
318.753	84
318.983	81
319.212	80
319.441	89
319.67	89
319.9	88
320.129	85
320.358	83
320.587	84
320.816	86
321.046	87
321.275	83
321.504	99
321.733	86
321.962	97
322.191	79
322.42	104
322.649	82
322.878	80
323.108	99
323.337	90
323.566	98
323.795	84
324.024	83
324.253	83
324.482	83
324.71	95
324.939	86
325.168	77
325.397	85
325.626	96
325.855	82
326.084	77
326.313	92
326.542	96
326.77	84
326.999	105
327.228	85
327.457	106
327.686	87
327.914	85
328.143	82
328.372	89
328.6	83
328.829	76
329.058	80
329.287	89
329.515	82
329.744	95
329.972	99
330.201	86
330.43	85
330.658	85
330.887	77
331.115	77
331.344	98
331.572	90
331.801	89
332.03	84
332.258	97
332.486	96
332.715	92
332.943	82
333.172	97
333.4	91
333.629	82
333.857	84
334.085	91
334.314	80
334.542	84
334.771	82
334.999	83
335.227	101
335.455	94
335.684	82
335.912	80
336.14	88
336.369	88
336.597	97
336.825	73
337.053	81
337.281	94
337.51	88
337.738	88
337.966	84
338.194	88
338.422	86
338.65	83
338.878	84
339.106	80
339.334	89
339.562	80
339.79	83
340.018	88
340.246	92
340.474	89
340.702	82
340.93	82
341.158	92
341.386	77
341.614	82
341.842	83
342.07	92
342.298	90
342.526	87
342.754	91
342.981	89
343.209	83
343.437	93
343.665	98
343.893	76
344.12	76
344.348	82
344.576	89
344.804	84
345.031	99
345.259	91
345.487	95
345.714	85
345.942	83
346.17	88
346.397	87
346.625	87
346.853	85
347.08	99
347.308	97
347.535	89
347.763	80
347.99	95
348.218	85
348.445	85
348.673	80
348.9	88
349.128	87
349.355	93
349.583	63
349.81	78
350.037	76
350.265	86
350.492	84
350.72	90
350.947	89
351.174	101
351.402	80
351.629	89
351.856	75
352.083	100
352.311	87
352.538	81
352.765	104
352.992	87
353.22	80
353.447	89
353.674	89
353.901	92
354.128	79
354.355	87
354.583	99
354.81	94
355.037	71
355.264	83
355.491	86
355.718	74
355.945	91
356.172	91
356.399	84
356.626	80
356.853	88
357.08	95
357.307	76
357.534	85
357.761	82
357.988	96
358.215	87
358.441	94
358.668	94
358.895	85
359.122	69
359.349	63
359.576	92
359.802	84
360.029	84
360.256	92
360.483	82
360.709	99
360.936	82
361.163	84
361.39	82
361.616	77
361.843	84
362.07	99
362.296	93
362.523	90
362.749	71
362.976	87
363.203	91
363.429	88
363.656	92
363.882	89
364.109	86
364.335	81
364.562	92
364.788	89
365.015	109
365.241	93
365.468	103
365.694	74
365.92	87
366.147	89
366.373	77
366.599	80
366.826	85
367.052	100
367.278	81
367.505	88
367.731	91
367.957	78
368.184	88
368.41	81
368.636	104
368.862	74
369.089	94
369.315	95
369.541	92
369.767	84
369.993	80
370.219	81
370.445	81
370.672	74
370.898	84
371.124	92
371.35	76
371.576	92
371.802	87
372.028	68
372.254	86
372.48	83
372.706	80
372.932	74
373.158	81
373.384	90
373.61	96
373.835	104
374.061	91
374.287	75
374.513	86
374.739	77
374.965	87
375.191	87
375.416	103
375.642	77
375.868	84
376.094	89
376.319	78
376.545	77
376.771	79
376.997	96
377.222	87
377.448	75
377.674	73
377.899	81
378.125	93
378.35	75
378.576	91
378.802	78
379.027	89
379.253	85
379.478	84
379.704	81
379.929	82
380.155	98
380.38	77
380.606	77
380.831	90
381.057	100
381.282	97
381.507	83
381.733	88
381.958	99
382.184	85
382.409	81
382.634	95
382.86	84
383.085	91
383.31	90
383.535	81
383.761	77
383.986	88
384.211	80
384.436	83
384.662	77
384.887	86
385.112	86
385.337	76
385.562	100
385.787	90
386.013	97
386.238	87
386.463	79
386.688	81
386.913	77
387.138	70
387.363	80
387.588	87
387.813	83
388.038	98
388.263	83
388.488	78
388.713	76
388.938	77
389.163	81
389.387	93
389.612	98
389.837	99
390.062	84
390.287	81
390.512	94
390.736	87
390.961	83
391.186	89
391.411	83
391.636	92
391.86	95
392.085	89
392.31	87
392.534	96
392.759	92
392.984	82
393.208	94
393.433	89
393.658	104
393.882	88
394.107	85
394.331	73
394.556	96
394.78	83
395.005	95
395.229	84
395.454	71
395.678	85
395.903	77
396.127	86
396.352	92
396.576	101
396.801	87
397.025	84
397.249	89
397.474	93
397.698	88
397.922	87
398.147	84
398.371	94
398.595	91
398.82	89
399.044	95
399.268	90
399.492	80
399.717	92
399.941	89
400.165	101
400.389	87
400.613	80
400.837	92
401.062	87
401.286	87
401.51	88
401.734	91
401.958	87
402.182	87
402.406	90
402.63	82
402.854	97
403.078	75
403.302	89
403.526	82
403.75	87
403.974	92
404.198	81
404.422	77
404.645	90
404.869	88
405.093	90
405.317	93
405.541	108
405.765	100
405.988	107
406.212	83
406.436	88
406.66	82
406.883	96
407.107	85
407.331	85
407.555	101
407.778	90
408.002	104
408.226	81
408.449	88
408.673	72
408.896	91
409.12	84
409.344	101
409.567	102
409.791	81
410.014	96
410.238	97
410.461	86
410.685	104
410.908	96
411.132	76
411.355	77
411.578	114
411.802	97
412.025	83
412.249	89
412.472	91
412.695	78
412.919	89
413.142	72
413.365	95
413.589	82
413.812	102
414.035	95
414.258	94
414.482	91
414.705	82
414.928	97
415.151	92
415.374	89
415.597	76
415.821	103
416.044	88
416.267	101
416.49	90
416.713	102
416.936	98
417.159	96
417.382	79
417.605	78
417.828	96
418.051	100
418.274	96
418.497	96
418.72	89
418.943	113
419.166	109
419.389	100
419.611	95
419.834	92
420.057	102
420.28	84
420.503	95
420.726	98
420.948	89
421.171	92
421.394	87
421.617	99
421.839	84
422.062	100
422.285	86
422.507	86
422.73	95
422.953	86
423.175	101
423.398	92
423.621	95
423.843	108
424.066	99
424.288	93
424.511	88
424.733	96
424.956	102
425.178	104
425.401	94
425.623	118
425.846	87
426.068	89
426.291	95
426.513	93
426.735	89
426.958	87
427.18	113
427.402	88
427.625	86
427.847	103
428.069	94
428.292	80
428.514	104
428.736	100
428.958	97
429.181	107
429.403	91
429.625	86
429.847	93
430.069	98
430.292	113
430.514	78
430.736	102
430.958	93
431.18	100
431.402	105
431.624	101
431.846	93
432.068	80
432.29	83
432.512	83
432.734	102
432.956	88
433.178	95
433.4	98
433.622	103
433.844	97
434.066	93
434.287	78
434.509	92
434.731	84
434.953	79
435.175	94
435.397	97
435.618	91
435.84	92
436.062	96
436.284	96
436.505	97
436.727	83
436.949	101
437.17	95
437.392	96
437.614	100
437.835	75
438.057	97
438.278	103
438.5	90
438.721	99
438.943	102
439.165	103
439.386	95
439.608	94
439.829	98
440.05	93
440.272	107
440.493	98
440.715	90
440.936	97
441.158	99
441.379	102
441.6	104
441.822	93
442.043	93
442.264	89
442.486	105
442.707	103
442.928	99
443.149	96
443.371	94
443.592	88
443.813	101
444.034	86
444.255	95
444.476	106
444.698	103
444.919	96
445.14	222
445.361	147
445.582	90
445.803	104
446.024	101
446.245	111
446.466	108
446.687	104
446.908	95
447.129	107
447.35	106
447.571	103
447.792	92
448.013	87
448.234	116
448.455	91
448.675	101
448.896	105
449.117	97
449.338	93
449.559	86
449.779	89
450	95
450.221	91
450.442	91
450.662	98
450.883	92
451.104	102
451.324	88
451.545	98
451.766	99
451.986	92
452.207	106
452.428	97
452.648	93
452.869	85
453.089	99
453.31	80
453.53	99
453.751	88
453.971	99
454.192	81
454.412	82
454.633	87
454.853	91
455.073	94
455.294	71
455.514	105
455.734	91
455.955	98
456.175	92
456.395	87
456.616	89
456.836	85
457.056	93
457.276	92
457.497	90
457.717	77
457.937	88
458.157	89
458.377	79
458.598	73
458.818	95
459.038	82
459.258	86
459.478	85
459.698	91
459.918	89
460.138	101
460.358	95
460.578	91
460.798	73
461.018	99
461.238	92
461.458	92
461.678	81
461.898	80
462.118	87
462.338	93
462.558	96
462.777	89
462.997	98
463.217	79
463.437	93
463.657	83
463.876	105
464.096	97
464.316	91
464.536	88
464.755	83
464.975	99
465.195	84
465.414	96
465.634	83
465.854	103
466.073	103
466.293	99
466.512	102
466.732	93
466.951	96
467.171	102
467.391	95
467.61	85
467.829	100
468.049	89
468.268	94
468.488	104
468.707	102
468.927	97
469.146	89
469.365	99
469.585	83
469.804	94
470.023	101
470.243	94
470.462	102
470.681	110
470.901	100
471.12	95
471.339	96
471.558	100
471.777	99
471.997	100
472.216	100
472.435	81
472.654	89
472.873	81
473.092	88
473.311	87
473.53	100
473.749	96
473.968	98
474.187	98
474.406	90
474.625	103
474.844	100
475.063	101
475.282	97
475.501	89
475.72	96
475.939	84
476.158	88
476.377	96
476.596	106
476.814	86
477.033	85
477.252	100
477.471	101
477.69	104
477.908	98
478.127	98
478.346	95
478.564	98
478.783	94
479.002	97
479.22	92
479.439	89
479.658	102
479.876	87
480.095	87
480.313	87
480.532	104
480.751	76
480.969	85
481.188	87
481.406	78
481.624	82
481.843	75
482.061	81
482.28	97
482.498	91
482.717	90
482.935	95
483.153	99
483.372	93
483.59	107
483.808	96
484.027	98
484.245	108
484.463	82
484.681	129
484.9	116
485.118	99
485.336	103
485.554	92
485.772	87
485.99	87
486.209	80
486.427	75
486.645	83
486.863	101
487.081	90
487.299	108
487.517	90
487.735	108
487.953	100
488.171	103
488.389	102
488.607	113
488.825	92
489.043	97
489.261	100
489.479	88
489.696	92
489.914	110
490.132	97
490.35	99
490.568	125
490.786	105
491.003	115
491.221	107
491.439	116
491.657	112
491.874	116
492.092	128
492.31	144
492.527	126
492.745	119
492.963	110
493.18	110
493.398	112
493.615	118
493.833	106
494.05	108
494.268	114
494.485	101
494.703	116
494.92	120
495.138	119
495.355	123
495.573	118
495.79	113
496.008	109
496.225	101
496.442	115
496.66	109
496.877	117
497.094	101
497.312	119
497.529	111
497.746	101
497.963	105
498.181	110
498.398	102
498.615	102
498.832	90
499.049	108
499.267	96
499.484	96
499.701	94
499.918	93
500.135	113
500.352	104
500.569	105
500.786	115
501.003	117
501.22	101
501.437	101
501.654	104
501.871	102
502.088	84
502.305	97
502.522	101
502.739	98
502.956	97
503.172	100
503.389	79
503.606	94
503.823	95
504.04	92
504.256	90
504.473	111
504.69	100
504.907	103
505.123	108
505.34	94
505.557	100
505.773	97
505.99	94
506.207	100
506.423	80
506.64	87
506.856	96
507.073	108
507.289	83
507.506	101
507.722	78
507.939	90
508.155	92
508.372	97
508.588	86
508.805	91
509.021	86
509.238	87
509.454	87
509.67	99
509.887	83
510.103	102
510.319	97
510.536	83
510.752	81
510.968	82
511.184	70
511.401	91
511.617	91
511.833	80
512.049	89
512.265	82
512.481	86
512.698	84
512.914	82
513.13	82
513.346	86
513.562	103
513.778	86
513.994	93
514.21	92
514.426	101
514.642	93
514.858	77
515.074	86
515.29	96
515.506	85
515.721	91
515.937	90
516.153	84
516.369	85
516.585	103
516.801	96
517.016	92
517.232	83
517.448	80
517.664	90
517.879	103
518.095	82
518.311	89
518.527	87
518.742	91
518.958	89
519.173	91
519.389	89
519.605	94
519.82	88
520.036	107
520.251	96
520.467	88
520.682	82
520.898	91
521.113	97
521.329	88
521.544	80
521.76	92
521.975	72
522.19	88
522.406	84
522.621	94
522.836	98
523.052	95
523.267	93
523.482	99
523.698	91
523.913	90
524.128	84
524.343	100
524.559	101
524.774	102
524.989	100
525.204	106
525.419	97
525.634	95
525.849	99
526.064	93
526.28	101
526.495	85
526.71	85
526.925	82
527.14	86
527.355	83
527.57	92
527.785	90
527.999	78
528.214	80
528.429	88
528.644	99
528.859	105
529.074	104
529.289	105
529.503	118
529.718	105
529.933	102
530.148	104
530.363	97
530.577	87
530.792	95
531.007	82
531.221	89
531.436	87
531.651	85
531.865	78
532.08	93
532.295	92
532.509	99
532.724	82
532.938	92
533.153	79
533.367	80
533.582	90
533.796	107
534.011	81
534.225	91
534.44	78
534.654	89
534.868	97
535.083	93
535.297	95
535.511	90
535.726	98
535.94	95
536.154	89
536.369	97
536.583	73
536.797	84
537.011	90
537.225	95
537.44	81
537.654	85
537.868	88
538.082	92
538.296	87
538.51	96
538.724	98
538.938	91
539.153	102
539.367	101
539.581	101
539.795	80
540.009	102
540.222	80
540.436	86
540.65	95
540.864	87
541.078	104
541.292	119
541.506	122
541.72	94
541.934	115
542.147	118
542.361	115
542.575	101
542.789	85
543.002	97
543.216	114
543.43	93
543.644	97
543.857	106
544.071	92
544.285	111
544.498	121
544.712	120
544.925	111
545.139	107
545.352	111
545.566	104
545.779	99
545.993	111
546.206	111
546.42	119
546.633	120
546.847	105
547.06	98
547.274	115
547.487	113
547.7	104
547.914	119
548.127	115
548.34	110
548.554	103
548.767	96
548.98	99
549.193	117
549.407	107
549.62	115
549.833	107
550.046	111
550.259	105
550.473	102
550.686	111
550.899	106
551.112	93
551.325	104
551.538	83
551.751	95
551.964	101
552.177	98
552.39	99
552.603	99
552.816	116
553.029	109
553.242	115
553.455	105
553.667	111
553.88	106
554.093	102
554.306	111
554.519	121
554.732	102
554.944	106
555.157	101
555.37	99
555.583	108
555.795	112
556.008	100
556.221	87
556.433	98
556.646	108
556.859	93
557.071	103
557.284	100
557.496	114
557.709	95
557.921	91
558.134	104
558.346	98
558.559	89
558.771	92
558.984	92
559.196	100
559.409	97
559.621	107
559.833	95
560.046	100
560.258	103
560.47	102
560.683	96
560.895	102
561.107	115
561.32	96
561.532	92
561.744	101
561.956	103
562.168	99
562.381	107
562.593	103
562.805	100
563.017	97
563.229	104
563.441	102
563.653	95
563.865	105
564.077	92
564.289	86
564.501	96
564.713	86
564.925	96
565.137	95
565.349	99
565.561	83
565.773	98
565.985	96
566.197	82
566.408	88
566.62	95
566.832	93
567.044	98
567.255	89
567.467	101
567.679	91
567.891	85
568.102	85
568.314	103
568.526	83
568.737	86
568.949	91
569.161	97
569.372	91
569.584	91
569.795	84
570.007	93
570.218	81
570.43	97
570.641	94
570.853	81
571.064	81
571.276	92
571.487	89
571.698	105
571.91	98
572.121	87
572.333	85
572.544	88
572.755	84
572.966	96
573.178	96
573.389	87
573.6	87
573.811	76
574.023	95
574.234	87
574.445	91
574.656	83
574.867	94
575.078	94
575.289	88
575.501	80
575.712	83
575.923	81
576.134	76
576.345	82
576.556	89
576.767	94
576.978	94
577.188	97
577.399	82
577.61	95
577.821	99
578.032	86
578.243	86
578.454	98
578.665	88
578.875	83
579.086	102
579.297	90
579.508	86
579.718	90
579.929	88
580.14	80
580.35	90
580.561	80
580.772	92
580.982	88
581.193	83
581.403	95
581.614	77
581.825	97
582.035	95
582.246	88
582.456	78
582.667	78
582.877	91
583.087	85
583.298	75
583.508	77
583.719	92
583.929	89
584.139	75
584.35	89
584.56	95
584.77	83
584.981	84
585.191	88
585.401	71
585.611	116
585.821	92
586.032	85
586.242	78
586.452	74
586.662	75
586.872	90
587.082	86
587.292	76
587.502	83
587.713	99
587.923	95
588.133	88
588.343	73
588.553	84
588.762	80
588.972	69
589.182	92
589.392	91
589.602	89
589.812	92
590.022	85
590.232	85
590.441	96
590.651	96
590.861	72
591.071	81
591.281	84
591.49	83
591.7	97
591.91	86
592.119	93
592.329	81
592.539	77
592.748	98
592.958	98
593.167	93
593.377	100
593.587	93
593.796	95
594.006	84
594.215	96
594.424	89
594.634	88
594.843	83
595.053	80
595.262	76
595.472	102
595.681	97
595.89	100
596.1	94
596.309	98
596.518	97
596.727	95
596.937	91
597.146	86
597.355	103
597.564	92
597.774	96
597.983	76
598.192	81
598.401	91
598.61	92
598.819	93
599.028	81
599.237	83
599.446	79
599.655	90
599.864	90
600.073	107
600.282	92
600.491	98
600.7	80
600.909	85
601.118	75
601.327	86
601.536	87
601.745	101
601.953	78
602.162	80
602.371	97
602.58	96
602.789	89
602.997	96
603.206	98
603.415	99
603.623	96
603.832	87
604.041	109
604.249	99
604.458	88
604.666	86
604.875	93
605.084	93
605.292	85
605.501	92
605.709	100
605.918	85
606.126	82
606.334	99
606.543	93
606.751	91
606.96	91
607.168	100
607.376	99
607.585	99
607.793	95
608.001	115
608.21	94
608.418	92
608.626	98
608.834	91
609.043	100
609.251	102
609.459	99
609.667	87
609.875	98
610.083	107
610.291	100
610.499	94
610.707	89
610.916	89
611.124	92
611.332	103
611.54	92
611.748	87
611.955	100
612.163	85
612.371	87
612.579	88
612.787	101
612.995	82
613.203	86
613.411	108
613.618	96
613.826	115
614.034	83
614.242	87
614.449	85
614.657	91
614.865	100
615.072	106
615.28	100
615.488	92
615.695	97
615.903	101
616.111	93
616.318	103
616.526	85
616.733	102
616.941	101
617.148	92
617.356	83
617.563	88
617.771	91
617.978	90
618.185	100
618.393	86
618.6	93
618.807	89
619.015	79
619.222	95
619.429	94
619.637	90
619.844	98
620.051	99
620.258	76
620.466	94
620.673	99
620.88	96
621.087	87
621.294	85
621.501	91
621.708	106
621.915	90
622.122	95
622.329	101
622.536	95
622.743	94
622.95	105
623.157	97
623.364	97
623.571	82
623.778	98
623.985	100
624.192	115
624.399	98
624.606	102
624.812	91
625.019	85
625.226	75
625.433	82
625.639	104
625.846	89
626.053	85
626.259	85
626.466	92
626.673	93
626.879	90
627.086	91
627.293	96
627.499	98
627.706	82
627.912	104
628.119	93
628.325	89
628.532	101
628.738	97
628.945	103
629.151	106
629.357	99
629.564	85
629.77	99
629.976	87
630.183	76
630.389	92
630.595	90
630.802	73
631.008	77
631.214	103
631.42	95
631.627	119
631.833	93
632.039	97
632.245	85
632.451	88
632.657	97
632.863	87
633.069	83
633.275	92
633.481	92
633.688	81
633.893	82
634.099	91
634.305	81
634.511	98
634.717	86
634.923	75
635.129	96
635.335	84
635.541	91
635.747	91
635.952	91
636.158	82
636.364	86
636.57	91
636.775	88
636.981	102
637.187	91
637.392	96
637.598	97
637.804	87
638.009	98
638.215	87
638.421	87
638.626	85
638.832	82
639.037	88
639.243	91
639.448	87
639.654	95
639.859	93
640.065	81
640.27	85
640.475	91
640.681	97
640.886	92
641.091	95
641.297	91
641.502	100
641.707	94
641.913	90
642.118	92
642.323	95
642.528	88
642.733	94
642.939	90
643.144	97
643.349	103
643.554	88
643.759	102
643.964	99
644.169	91
644.374	78
644.579	91
644.784	90
644.989	91
645.194	100
645.399	90
645.604	100
645.809	92
646.014	85
646.219	78
646.423	84
646.628	88
646.833	89
647.038	92
647.243	95
647.447	94
647.652	96
647.857	92
648.062	87
648.266	95
648.471	73
648.676	88
648.88	76
649.085	109
649.289	83
649.494	88
649.698	94
649.903	91
650.107	90
650.312	84
650.516	83
650.721	92
650.925	78
651.13	91
651.334	89
651.539	91
651.743	93
651.947	90
652.152	104
652.356	86
652.56	81
652.764	97
652.969	84
653.173	77
653.377	86
653.581	76
653.785	94
653.99	90
654.194	72
654.398	81
654.602	85
654.806	77
655.01	103
655.214	80
655.418	94
655.622	86
655.826	98
656.03	95
656.234	88
656.438	96
656.642	95
656.846	76
657.049	87
657.253	82
657.457	77
657.661	76
657.865	84
658.068	89
658.272	72
658.476	86
658.68	91
658.883	76
659.087	77
659.291	92
659.494	98
659.698	90
659.901	81
660.105	65
660.309	74
660.512	96
660.716	83
660.919	96
661.123	81
661.326	97
661.53	76
661.733	83
661.936	77
662.14	88
662.343	82
662.546	81
662.75	94
662.953	86
663.156	76
663.36	83
663.563	78
663.766	90
663.969	91
664.173	96
664.376	77
664.579	81
664.782	83
664.985	81
665.188	81
665.391	97
665.594	101
665.797	92
666	83
666.203	81
666.406	82
666.609	87
666.812	89
667.015	85
667.218	88
667.421	94
667.624	95
667.827	96
668.03	97
668.232	75
668.435	74
668.638	88
668.841	90
669.043	76
669.246	92
669.449	71
669.651	90
669.854	86
670.057	79
670.259	81
670.462	82
670.665	92
670.867	98
671.07	89
671.272	102
671.475	81
671.677	83
671.88	78
672.082	82
672.284	73
672.487	85
672.689	89
672.892	81
