Data from Location3.07152019.Energy5.Lamp.07192019.3%Agarose_HRD10591_15-17-42-268.txt Node
Date: Fri Jul 19 15:17:42 EDT 2019
User: cochatt
Spectrometer: HR+D1059
Trigger mode: 1
Integration Time (sec): 1.000000E-1
Scans to average: 1
Electric dark correction enabled: true
Nonlinearity correction enabled: false
Boxcar width: 0
XAxis mode: Wavelengths
Number of Pixels in Spectrum: 2048
>>>>>Begin Spectral Data<<<<<
223.165	-19
223.4	-19
223.635	-19
223.869	-3
224.104	-17
224.338	-19
224.573	-8
224.808	-24
225.042	-13
225.277	4
225.511	-11
225.746	-1
225.98	-1
226.215	17
226.449	15
226.683	28
226.918	26
227.152	26
227.387	23
227.621	37
227.856	49
228.09	50
228.324	57
228.559	56
228.793	56
229.027	61
229.262	61
229.496	76
229.73	74
229.964	65
230.199	66
230.433	89
230.667	76
230.901	74
231.136	75
231.37	84
231.604	87
231.838	78
232.072	86
232.306	82
232.541	88
232.775	85
233.009	103
233.243	94
233.477	98
233.711	87
233.945	72
234.179	78
234.413	98
234.647	80
234.881	77
235.115	86
235.349	79
235.583	80
235.817	76
236.051	91
236.285	100
236.519	75
236.753	93
236.987	72
237.221	74
237.455	77
237.689	81
237.922	88
238.156	82
238.39	88
238.624	78
238.858	75
239.091	87
239.325	76
239.559	83
239.793	84
240.027	96
240.26	86
240.494	76
240.728	75
240.961	86
241.195	82
241.429	73
241.662	83
241.896	67
242.13	80
242.363	65
242.597	72
242.83	76
243.064	95
243.298	77
243.531	76
243.765	77
243.998	86
244.232	90
244.465	87
244.699	68
244.932	77
245.166	90
245.399	86
245.633	80
245.866	84
246.099	75
246.333	72
246.566	80
246.8	86
247.033	85
247.266	73
247.5	79
247.733	93
247.966	94
248.2	84
248.433	93
248.666	76
248.899	79
249.133	87
249.366	85
249.599	77
249.832	76
250.066	86
250.299	77
250.532	78
250.765	80
250.998	90
251.231	82
251.465	65
251.698	87
251.931	87
252.164	97
252.397	79
252.63	78
252.863	80
253.096	82
253.329	89
253.562	79
253.795	68
254.028	73
254.261	83
254.494	92
254.727	85
254.96	94
255.193	87
255.426	86
255.659	76
255.892	75
256.124	76
256.357	78
256.59	82
256.823	75
257.056	81
257.289	79
257.521	77
257.754	74
257.987	87
258.22	79
258.452	89
258.685	87
258.918	83
259.151	98
259.383	83
259.616	63
259.849	93
260.081	70
260.314	94
260.547	81
260.779	83
261.012	76
261.244	88
261.477	89
261.71	69
261.942	74
262.175	85
262.407	88
262.64	91
262.872	84
263.105	80
263.337	108
263.57	88
263.802	78
264.035	79
264.267	76
264.499	85
264.732	73
264.964	98
265.197	87
265.429	90
265.661	81
265.894	85
266.126	82
266.358	96
266.591	74
266.823	92
267.055	91
267.287	87
267.52	71
267.752	81
267.984	83
268.216	87
268.448	92
268.681	89
268.913	89
269.145	86
269.377	76
269.609	77
269.841	79
270.073	78
270.306	94
270.538	85
270.77	73
271.002	87
271.234	82
271.466	92
271.698	81
271.93	80
272.162	93
272.394	86
272.626	85
272.858	96
273.09	97
273.322	83
273.553	89
273.785	103
274.017	89
274.249	88
274.481	77
274.713	98
274.945	88
275.176	83
275.408	85
275.64	89
275.872	98
276.104	88
276.335	75
276.567	66
276.799	82
277.031	72
277.262	79
277.494	89
277.726	81
277.957	88
278.189	85
278.421	76
278.652	82
278.884	84
279.115	99
279.347	79
279.579	75
279.81	87
280.042	93
280.273	96
280.505	104
280.736	72
280.968	79
281.199	81
281.431	75
281.662	77
281.894	93
282.125	85
282.356	81
282.588	85
282.819	100
283.051	82
283.282	78
283.513	90
283.745	85
283.976	89
284.207	78
284.439	85
284.67	77
284.901	72
285.132	92
285.364	80
285.595	87
285.826	74
286.057	94
286.288	77
286.52	76
286.751	83
286.982	88
287.213	97
287.444	82
287.675	83
287.906	84
288.138	105
288.369	92
288.6	89
288.831	82
289.062	81
289.293	88
289.524	89
289.755	90
289.986	88
290.217	73
290.448	91
290.679	83
290.91	89
291.141	77
291.371	97
291.602	89
291.833	82
292.064	87
292.295	91
292.526	79
292.757	82
292.987	87
293.218	89
293.449	96
293.68	92
293.91	83
294.141	93
294.372	88
294.603	86
294.833	83
295.064	90
295.295	87
295.525	84
295.756	87
295.987	82
296.217	101
296.448	104
296.679	84
296.909	96
297.14	88
297.37	93
297.601	70
297.831	91
298.062	90
298.292	72
298.523	98
298.753	92
298.984	94
299.214	87
299.445	95
299.675	83
299.905	77
300.136	96
300.366	75
300.597	78
300.827	96
301.057	74
301.288	102
301.518	88
301.748	99
301.979	84
302.209	94
302.439	83
302.669	90
302.9	98
303.13	85
303.36	86
303.59	92
303.82	85
304.051	83
304.281	100
304.511	91
304.741	85
304.971	99
305.201	99
305.431	91
305.661	94
305.891	93
306.121	88
306.352	81
306.582	77
306.812	87
307.042	98
307.272	94
307.502	74
307.731	92
307.961	89
308.191	98
308.421	91
308.651	66
308.881	74
309.111	87
309.341	93
309.571	88
309.8	94
310.03	92
310.26	90
310.49	93
310.72	94
310.949	81
311.179	84
311.409	82
311.639	92
311.868	97
312.098	93
312.328	90
312.557	78
312.787	90
313.017	112
313.246	79
313.476	90
313.706	81
313.935	90
314.165	91
314.394	97
314.624	88
314.853	90
315.083	95
315.312	93
315.542	97
315.771	88
316.001	86
316.23	95
316.46	82
316.689	85
316.919	96
317.148	89
317.377	87
317.607	83
317.836	80
318.065	90
318.295	85
318.524	97
318.753	89
318.983	95
319.212	89
319.441	84
319.67	94
319.9	93
320.129	94
320.358	90
320.587	86
320.816	95
321.046	99
321.275	99
321.504	74
321.733	85
321.962	87
322.191	91
322.42	91
322.649	85
322.878	83
323.108	72
323.337	85
323.566	100
323.795	84
324.024	84
324.253	86
324.482	67
324.71	98
324.939	100
325.168	84
325.397	92
325.626	95
325.855	89
326.084	86
326.313	90
326.542	87
326.77	90
326.999	87
327.228	75
327.457	90
327.686	101
327.914	91
328.143	92
328.372	81
328.6	95
328.829	88
329.058	85
329.287	94
329.515	92
329.744	96
329.972	83
330.201	89
330.43	87
330.658	86
330.887	82
331.115	85
331.344	103
331.572	92
331.801	74
332.03	93
332.258	97
332.486	77
332.715	89
332.943	89
333.172	76
333.4	75
333.629	81
333.857	93
334.085	91
334.314	72
334.542	87
334.771	81
334.999	94
335.227	99
335.455	86
335.684	72
335.912	62
336.14	85
336.369	84
336.597	83
336.825	90
337.053	101
337.281	96
337.51	64
337.738	81
337.966	86
338.194	83
338.422	92
338.65	86
338.878	83
339.106	90
339.334	85
339.562	76
339.79	85
340.018	86
340.246	66
340.474	87
340.702	91
340.93	95
341.158	85
341.386	87
341.614	100
341.842	87
342.07	87
342.298	92
342.526	94
342.754	88
342.981	91
343.209	97
343.437	104
343.665	85
343.893	88
344.12	78
344.348	83
344.576	88
344.804	93
345.031	76
345.259	78
345.487	91
345.714	70
345.942	89
346.17	90
346.397	90
346.625	94
346.853	87
347.08	94
347.308	89
347.535	95
347.763	91
347.99	84
348.218	98
348.445	80
348.673	80
348.9	81
349.128	91
349.355	79
349.583	81
349.81	85
350.037	96
350.265	91
350.492	94
350.72	95
350.947	107
351.174	95
351.402	88
351.629	79
351.856	84
352.083	102
352.311	94
352.538	78
352.765	99
352.992	89
353.22	94
353.447	67
353.674	87
353.901	75
354.128	76
354.355	86
354.583	85
354.81	81
355.037	87
355.264	91
355.491	78
355.718	85
355.945	86
356.172	88
356.399	80
356.626	89
356.853	82
357.08	84
357.307	79
357.534	80
357.761	76
357.988	87
358.215	79
358.441	87
358.668	101
358.895	98
359.122	83
359.349	73
359.576	79
359.802	87
360.029	88
360.256	83
360.483	76
360.709	75
360.936	95
361.163	87
361.39	78
361.616	86
361.843	86
362.07	101
362.296	90
362.523	92
362.749	85
362.976	90
363.203	88
363.429	80
363.656	86
363.882	81
364.109	94
364.335	93
364.562	75
364.788	86
365.015	86
365.241	84
365.468	94
365.694	75
365.92	78
366.147	89
366.373	86
366.599	84
366.826	86
367.052	75
367.278	97
367.505	85
367.731	83
367.957	83
368.184	85
368.41	90
368.636	89
368.862	86
369.089	79
369.315	83
369.541	89
369.767	93
369.993	88
370.219	86
370.445	82
370.672	98
370.898	91
371.124	104
371.35	100
371.576	89
371.802	80
372.028	71
372.254	80
372.48	91
372.706	102
372.932	76
373.158	92
373.384	88
373.61	84
373.835	70
374.061	69
374.287	82
374.513	74
374.739	84
374.965	75
375.191	86
375.416	79
375.642	93
375.868	96
376.094	91
376.319	93
376.545	77
376.771	93
376.997	89
377.222	86
377.448	84
377.674	87
377.899	74
378.125	85
378.35	87
378.576	93
378.802	89
379.027	81
379.253	90
379.478	92
379.704	77
379.929	87
380.155	99
380.38	87
380.606	82
380.831	95
381.057	104
381.282	72
381.507	87
381.733	82
381.958	86
382.184	92
382.409	84
382.634	84
382.86	93
383.085	87
383.31	85
383.535	88
383.761	91
383.986	97
384.211	84
384.436	83
384.662	79
384.887	83
385.112	81
385.337	86
385.562	100
385.787	84
386.013	92
386.238	96
386.463	84
386.688	85
386.913	93
387.138	85
387.363	81
387.588	85
387.813	101
388.038	98
388.263	87
388.488	86
388.713	75
388.938	86
389.163	101
389.387	91
389.612	87
389.837	85
390.062	76
390.287	83
390.512	90
390.736	84
390.961	83
391.186	103
391.411	84
391.636	93
391.86	87
392.085	88
392.31	92
392.534	83
392.759	93
392.984	85
393.208	88
393.433	93
393.658	100
393.882	102
394.107	69
394.331	94
394.556	80
394.78	83
395.005	76
395.229	103
395.454	86
395.678	102
395.903	88
396.127	89
396.352	101
396.576	77
396.801	94
397.025	94
397.249	111
397.474	97
397.698	86
397.922	92
398.147	103
398.371	83
398.595	92
398.82	97
399.044	91
399.268	90
399.492	85
399.717	90
399.941	89
400.165	89
400.389	84
400.613	92
400.837	94
401.062	99
401.286	90
401.51	103
401.734	80
401.958	94
402.182	78
402.406	93
402.63	102
402.854	83
403.078	88
403.302	95
403.526	92
403.75	82
403.974	89
404.198	98
404.422	94
404.645	101
404.869	102
405.093	83
405.317	91
405.541	95
405.765	101
405.988	96
406.212	104
406.436	95
406.66	91
406.883	73
407.107	91
407.331	102
407.555	89
407.778	87
408.002	75
408.226	92
408.449	84
408.673	98
408.896	102
409.12	92
409.344	98
409.567	91
409.791	96
410.014	88
410.238	95
410.461	80
410.685	87
410.908	89
411.132	90
411.355	91
411.578	100
411.802	92
412.025	86
412.249	90
412.472	84
412.695	91
412.919	94
413.142	89
413.365	82
413.589	88
413.812	90
414.035	97
414.258	94
414.482	84
414.705	95
414.928	99
415.151	95
415.374	113
415.597	102
415.821	89
416.044	83
416.267	103
416.49	96
416.713	90
416.936	107
417.159	85
417.382	103
417.605	95
417.828	89
418.051	94
418.274	95
418.497	93
418.72	91
418.943	105
419.166	96
419.389	94
419.611	98
419.834	91
420.057	87
420.28	102
420.503	95
420.726	91
420.948	96
421.171	114
421.394	96
421.617	97
421.839	100
422.062	101
422.285	100
422.507	85
422.73	92
422.953	82
423.175	79
423.398	101
423.621	94
423.843	111
424.066	98
424.288	82
424.511	101
424.733	99
424.956	92
425.178	77
425.401	99
425.623	118
425.846	108
426.068	103
426.291	91
426.513	92
426.735	106
426.958	96
427.18	99
427.402	97
427.625	91
427.847	83
428.069	106
428.292	103
428.514	86
428.736	105
428.958	98
429.181	93
429.403	90
429.625	94
429.847	107
430.069	103
430.292	107
430.514	98
430.736	90
430.958	100
431.18	110
431.402	94
431.624	97
431.846	107
432.068	92
432.29	87
432.512	92
432.734	95
432.956	110
433.178	101
433.4	107
433.622	98
433.844	100
434.066	105
434.287	100
434.509	76
434.731	83
434.953	94
435.175	116
435.397	102
435.618	89
435.84	90
436.062	87
436.284	99
436.505	95
436.727	78
436.949	84
437.17	78
437.392	90
437.614	118
437.835	87
438.057	99
438.278	92
438.5	98
438.721	96
438.943	97
439.165	89
439.386	95
439.608	98
439.829	91
440.05	106
440.272	84
440.493	103
440.715	109
440.936	104
441.158	98
441.379	125
441.6	116
441.822	105
442.043	96
442.264	97
442.486	84
442.707	108
442.928	87
443.149	99
443.371	97
443.592	108
443.813	105
444.034	87
444.255	100
444.476	92
444.698	103
444.919	98
445.14	216
445.361	150
445.582	120
445.803	100
446.024	98
446.245	93
446.466	91
446.687	95
446.908	112
447.129	114
447.35	100
447.571	109
447.792	96
448.013	93
448.234	120
448.455	86
448.675	93
448.896	99
449.117	95
449.338	94
449.559	103
449.779	110
450	105
450.221	89
450.442	96
450.662	108
450.883	95
451.104	90
451.324	86
451.545	97
451.766	108
451.986	113
452.207	82
452.428	111
452.648	101
452.869	89
453.089	69
453.31	94
453.53	102
453.751	83
453.971	102
454.192	76
454.412	102
454.633	97
454.853	99
455.073	93
455.294	85
455.514	89
455.734	91
455.955	95
456.175	97
456.395	96
456.616	86
456.836	98
457.056	93
457.276	93
457.497	93
457.717	94
457.937	99
458.157	90
458.377	113
458.598	84
458.818	82
459.038	89
459.258	84
459.478	77
459.698	99
459.918	73
460.138	97
460.358	92
460.578	105
460.798	78
461.018	95
461.238	107
461.458	113
461.678	91
461.898	92
462.118	96
462.338	84
462.558	97
462.777	83
462.997	106
463.217	99
463.437	103
463.657	93
463.876	92
464.096	88
464.316	96
464.536	85
464.755	92
464.975	92
465.195	98
465.414	91
465.634	92
465.854	110
466.073	84
466.293	100
466.512	99
466.732	90
466.951	90
467.171	100
467.391	99
467.61	94
467.829	99
468.049	97
468.268	98
468.488	102
468.707	101
468.927	108
469.146	91
469.365	110
469.585	97
469.804	102
470.023	107
470.243	107
470.462	101
470.681	97
470.901	107
471.12	102
471.339	102
471.558	96
471.777	113
471.997	87
472.216	103
472.435	88
472.654	94
472.873	85
473.092	91
473.311	92
473.53	92
473.749	107
473.968	99
474.187	98
474.406	81
474.625	103
474.844	103
475.063	80
475.282	89
475.501	82
475.72	92
475.939	106
476.158	110
476.377	98
476.596	97
476.814	104
477.033	95
477.252	97
477.471	92
477.69	97
477.908	89
478.127	102
478.346	98
478.564	104
478.783	92
479.002	107
479.22	93
479.439	99
479.658	79
479.876	98
480.095	85
480.313	97
480.532	102
480.751	97
480.969	99
481.188	85
481.406	81
481.624	91
481.843	91
482.061	97
482.28	91
482.498	76
482.717	95
482.935	101
483.153	122
483.372	104
483.59	120
483.808	93
484.027	99
484.245	94
484.463	93
484.681	118
484.9	102
485.118	102
485.336	100
485.554	104
485.772	79
485.99	107
486.209	95
486.427	90
486.645	92
486.863	92
487.081	108
487.299	90
487.517	103
487.735	114
487.953	120
488.171	122
488.389	114
488.607	91
488.825	108
489.043	103
489.261	94
489.479	96
489.696	104
489.914	104
490.132	94
490.35	110
490.568	112
490.786	115
491.003	103
491.221	108
491.439	106
491.657	110
491.874	115
492.092	124
492.31	129
492.527	124
492.745	124
492.963	119
493.18	123
493.398	125
493.615	110
493.833	117
494.05	118
494.268	125
494.485	117
494.703	103
494.92	108
495.138	105
495.355	108
495.573	124
495.79	111
496.008	110
496.225	119
496.442	102
496.66	107
496.877	114
497.094	111
497.312	115
497.529	113
497.746	117
497.963	102
498.181	109
498.398	97
498.615	95
498.832	85
499.049	98
499.267	93
499.484	89
499.701	104
499.918	118
500.135	91
500.352	100
500.569	93
500.786	103
501.003	99
501.22	97
501.437	94
501.654	107
501.871	89
502.088	102
502.305	99
502.522	99
502.739	91
502.956	95
503.172	86
503.389	85
503.606	93
503.823	105
504.04	88
504.256	93
504.473	96
504.69	99
504.907	101
505.123	104
505.34	94
505.557	92
505.773	110
505.99	100
506.207	90
506.423	90
506.64	97
506.856	88
507.073	95
507.289	85
507.506	91
507.722	79
507.939	101
508.155	105
508.372	88
508.588	106
508.805	98
509.021	95
509.238	97
509.454	99
509.67	87
509.887	77
510.103	99
510.319	107
510.536	88
510.752	95
510.968	102
511.184	88
511.401	87
511.617	90
511.833	85
512.049	91
512.265	89
512.481	84
512.698	93
512.914	75
513.13	94
513.346	89
513.562	84
513.778	91
513.994	86
514.21	77
514.426	89
514.642	79
514.858	97
515.074	76
515.29	92
515.506	74
515.721	81
515.937	86
516.153	85
516.369	82
516.585	88
516.801	86
517.016	91
517.232	88
517.448	85
517.664	89
517.879	99
518.095	92
518.311	91
518.527	88
518.742	94
518.958	73
519.173	82
519.389	85
519.605	111
519.82	104
520.036	91
520.251	86
520.467	95
520.682	89
520.898	90
521.113	76
521.329	89
521.544	80
521.76	87
521.975	84
522.19	89
522.406	85
522.621	78
522.836	95
523.052	85
523.267	93
523.482	89
523.698	86
523.913	105
524.128	94
524.343	113
524.559	102
524.774	104
524.989	93
525.204	106
525.419	92
525.634	86
525.849	96
526.064	90
526.28	100
526.495	74
526.71	82
526.925	91
527.14	80
527.355	86
527.57	97
527.785	79
527.999	83
528.214	76
528.429	95
528.644	82
528.859	90
529.074	109
529.289	115
529.503	95
529.718	104
529.933	108
530.148	96
530.363	87
530.577	89
530.792	79
531.007	91
531.221	97
531.436	98
531.651	89
531.865	84
532.08	85
532.295	80
532.509	92
532.724	97
532.938	91
533.153	84
533.367	91
533.582	89
533.796	97
534.011	88
534.225	91
534.44	82
534.654	68
534.868	90
535.083	91
535.297	95
535.511	102
535.726	89
535.94	101
536.154	85
536.369	89
536.583	90
536.797	80
537.011	83
537.225	76
537.44	83
537.654	80
537.868	84
538.082	95
538.296	94
538.51	99
538.724	89
538.938	96
539.153	100
539.367	93
539.581	96
539.795	94
540.009	79
540.222	95
540.436	86
540.65	98
540.864	100
541.078	99
541.292	105
541.506	94
541.72	114
541.934	108
542.147	123
542.361	123
542.575	106
542.789	102
543.002	118
543.216	110
543.43	102
543.644	89
543.857	101
544.071	114
544.285	123
544.498	125
544.712	114
544.925	114
545.139	113
545.352	120
545.566	103
545.779	106
545.993	105
546.206	118
546.42	110
546.633	105
546.847	127
547.06	109
547.274	112
547.487	121
547.7	106
547.914	133
548.127	118
548.34	109
548.554	100
548.767	111
548.98	107
549.193	116
549.407	104
549.62	109
549.833	115
550.046	107
550.259	111
550.473	110
550.686	108
550.899	106
551.112	118
551.325	99
551.538	96
551.751	100
551.964	95
552.177	106
552.39	99
552.603	97
552.816	114
553.029	121
553.242	106
553.455	98
553.667	110
553.88	110
554.093	104
554.306	108
554.519	96
554.732	111
554.944	107
555.157	94
555.37	102
555.583	107
555.795	107
556.008	93
556.221	103
556.433	101
556.646	98
556.859	82
557.071	106
557.284	110
557.496	111
557.709	113
557.921	114
558.134	86
558.346	110
558.559	105
558.771	105
558.984	109
559.196	102
559.409	94
559.621	118
559.833	98
560.046	98
560.258	118
560.47	106
560.683	89
560.895	95
561.107	100
561.32	103
561.532	94
561.744	93
561.956	103
562.168	110
562.381	102
562.593	94
562.805	95
563.017	103
563.229	110
563.441	97
563.653	90
563.865	116
564.077	103
564.289	111
564.501	110
564.713	113
564.925	115
565.137	94
565.349	101
565.561	104
565.773	104
565.985	92
566.197	93
566.408	102
566.62	81
566.832	102
567.044	108
567.255	106
567.467	104
567.679	95
567.891	94
568.102	103
568.314	95
568.526	99
568.737	100
568.949	90
569.161	100
569.372	89
569.584	79
569.795	96
570.007	93
570.218	83
570.43	102
570.641	96
570.853	93
571.064	97
571.276	110
571.487	82
571.698	99
571.91	79
572.121	89
572.333	92
572.544	87
572.755	82
572.966	76
573.178	91
573.389	99
573.6	84
573.811	92
574.023	88
574.234	98
574.445	105
574.656	90
574.867	82
575.078	105
575.289	93
575.501	88
575.712	94
575.923	101
576.134	113
576.345	87
576.556	89
576.767	96
576.978	102
577.188	99
577.399	110
577.61	76
577.821	91
578.032	93
578.243	99
578.454	86
578.665	84
578.875	87
579.086	90
579.297	77
579.508	94
579.718	90
579.929	79
580.14	78
580.35	85
580.561	90
580.772	95
580.982	95
581.193	90
581.403	91
581.614	85
581.825	85
582.035	74
582.246	85
582.456	85
582.667	86
582.877	104
583.087	80
583.298	98
583.508	75
583.719	84
583.929	93
584.139	100
584.35	86
584.56	100
584.77	81
584.981	88
585.191	96
585.401	80
585.611	80
585.821	88
586.032	74
586.242	87
586.452	81
586.662	79
586.872	86
587.082	74
587.292	78
587.502	91
587.713	90
587.923	88
588.133	81
588.343	82
588.553	92
588.762	84
588.972	91
589.182	95
589.392	84
589.602	99
589.812	93
590.022	95
590.232	83
590.441	78
590.651	82
590.861	83
591.071	91
591.281	85
591.49	80
591.7	86
591.91	91
592.119	83
592.329	94
592.539	82
592.748	99
592.958	90
593.167	75
593.377	80
593.587	93
593.796	76
594.006	76
594.215	83
594.424	77
594.634	79
594.843	98
595.053	84
595.262	96
595.472	89
595.681	72
595.89	85
596.1	98
596.309	91
596.518	93
596.727	93
596.937	85
597.146	93
597.355	99
597.564	90
597.774	100
597.983	82
598.192	86
598.401	87
598.61	93
598.819	108
599.028	94
599.237	88
599.446	90
599.655	85
599.864	81
600.073	92
600.282	89
600.491	90
600.7	85
600.909	107
601.118	89
601.327	95
601.536	100
601.745	97
601.953	100
602.162	94
602.371	97
602.58	106
602.789	90
602.997	101
603.206	91
603.415	90
603.623	85
603.832	97
604.041	91
604.249	90
604.458	85
604.666	86
604.875	101
605.084	91
605.292	93
605.501	95
605.709	89
605.918	92
606.126	101
606.334	88
606.543	92
606.751	103
606.96	83
607.168	95
607.376	84
607.585	94
607.793	93
608.001	96
608.21	103
608.418	96
608.626	90
608.834	90
609.043	91
609.251	90
609.459	106
609.667	93
609.875	93
610.083	95
610.291	84
610.499	97
610.707	103
610.916	93
611.124	100
611.332	99
611.54	99
611.748	103
611.955	96
612.163	101
612.371	96
612.579	83
612.787	102
612.995	100
613.203	96
613.411	97
613.618	86
613.826	101
614.034	87
614.242	90
614.449	108
614.657	79
614.865	85
615.072	90
615.28	110
615.488	89
615.695	105
615.903	106
616.111	97
616.318	91
616.526	103
616.733	106
616.941	100
617.148	102
617.356	75
617.563	92
617.771	92
617.978	94
618.185	95
618.393	72
618.6	108
618.807	88
619.015	92
619.222	96
619.429	101
619.637	98
619.844	87
620.051	99
620.258	94
620.466	82
620.673	111
620.88	86
621.087	97
621.294	87
621.501	97
621.708	105
621.915	97
622.122	103
622.329	90
622.536	97
622.743	85
622.95	89
623.157	82
623.364	86
623.571	106
623.778	94
623.985	91
624.192	107
624.399	95
624.606	88
624.812	85
625.019	104
625.226	105
625.433	102
625.639	102
625.846	83
626.053	84
626.259	81
626.466	91
626.673	79
626.879	90
627.086	101
627.293	97
627.499	91
627.706	85
627.912	90
628.119	100
628.325	79
628.532	93
628.738	92
628.945	82
629.151	77
629.357	97
629.564	100
629.77	94
629.976	78
630.183	93
630.389	93
630.595	93
630.802	86
631.008	100
631.214	93
631.42	78
631.627	91
631.833	96
632.039	100
632.245	90
632.451	92
632.657	103
632.863	80
633.069	82
633.275	102
633.481	91
633.688	83
633.893	94
634.099	101
634.305	85
634.511	93
634.717	92
634.923	90
635.129	77
635.335	90
635.541	79
635.747	85
635.952	89
636.158	82
636.364	78
636.57	87
636.775	102
636.981	101
637.187	111
637.392	78
637.598	93
637.804	97
638.009	81
638.215	100
638.421	101
638.626	92
638.832	95
639.037	91
639.243	88
639.448	87
639.654	93
639.859	110
640.065	100
640.27	113
640.475	83
640.681	84
640.886	82
641.091	86
641.297	76
641.502	93
641.707	85
641.913	104
642.118	92
642.323	88
642.528	99
642.733	96
642.939	93
643.144	89
643.349	93
643.554	87
643.759	87
643.964	98
644.169	87
644.374	91
644.579	103
644.784	92
644.989	88
645.194	88
645.399	73
645.604	100
645.809	85
646.014	100
646.219	92
646.423	95
646.628	90
646.833	76
647.038	85
647.243	76
647.447	89
647.652	89
647.857	87
648.062	87
648.266	91
648.471	103
648.676	88
648.88	83
649.085	79
649.289	100
649.494	80
649.698	83
649.903	91
650.107	103
650.312	89
650.516	103
650.721	80
650.925	83
651.13	78
651.334	79
651.539	90
651.743	83
651.947	83
652.152	101
652.356	77
652.56	90
652.764	92
652.969	95
653.173	96
653.377	93
653.581	85
653.785	85
653.99	78
654.194	85
654.398	94
654.602	84
654.806	85
655.01	85
655.214	92
655.418	89
655.622	98
655.826	82
656.03	84
656.234	98
656.438	77
656.642	79
656.846	72
657.049	94
657.253	80
657.457	91
657.661	80
657.865	85
658.068	84
658.272	88
658.476	94
658.68	86
658.883	77
659.087	95
659.291	83
659.494	89
659.698	83
659.901	87
660.105	101
660.309	98
660.512	91
660.716	97
660.919	83
661.123	84
661.326	89
661.53	83
661.733	82
661.936	82
662.14	101
662.343	77
662.546	85
662.75	88
662.953	91
663.156	81
663.36	87
663.563	90
663.766	86
663.969	89
664.173	87
664.376	81
664.579	83
664.782	75
664.985	84
665.188	87
665.391	84
665.594	85
665.797	89
666	89
666.203	86
666.406	79
666.609	77
666.812	71
667.015	93
667.218	83
667.421	74
667.624	90
667.827	86
668.03	84
668.232	89
668.435	93
668.638	94
668.841	86
669.043	75
669.246	87
669.449	83
669.651	94
669.854	85
670.057	83
670.259	76
670.462	90
670.665	83
670.867	84
671.07	79
671.272	76
671.475	79
671.677	86
671.88	69
672.082	98
672.284	90
672.487	82
672.689	90
672.892	93
