Data from Location3.07152019.Energy5.Lamp.07192019.3%Agarose_HRD10591_15-18-14-269.txt Node
Date: Fri Jul 19 15:18:14 EDT 2019
User: cochatt
Spectrometer: HR+D1059
Trigger mode: 1
Integration Time (sec): 1.000000E-1
Scans to average: 1
Electric dark correction enabled: true
Nonlinearity correction enabled: false
Boxcar width: 0
XAxis mode: Wavelengths
Number of Pixels in Spectrum: 2048
>>>>>Begin Spectral Data<<<<<
223.165	-16
223.4	-16
223.635	-16
223.869	-26
224.104	-15
224.338	-16
224.573	-20
224.808	-19
225.042	-11
225.277	-20
225.511	4
225.746	3
225.98	23
226.215	16
226.449	18
226.683	22
226.918	25
227.152	32
227.387	31
227.621	39
227.856	35
228.09	58
228.324	41
228.559	57
228.793	61
229.027	64
229.262	71
229.496	63
229.73	57
229.964	79
230.199	77
230.433	72
230.667	74
230.901	80
231.136	69
231.37	92
231.604	75
231.838	104
232.072	89
232.306	88
232.541	83
232.775	78
233.009	86
233.243	95
233.477	80
233.711	81
233.945	91
234.179	99
234.413	80
234.647	82
234.881	77
235.115	88
235.349	89
235.583	78
235.817	84
236.051	83
236.285	100
236.519	83
236.753	81
236.987	70
237.221	76
237.455	91
237.689	76
237.922	72
238.156	77
238.39	92
238.624	80
238.858	75
239.091	69
239.325	82
239.559	68
239.793	81
240.027	87
240.26	72
240.494	90
240.728	92
240.961	67
241.195	78
241.429	63
241.662	76
241.896	72
242.13	90
242.363	69
242.597	86
242.83	82
243.064	73
243.298	92
243.531	90
243.765	79
243.998	79
244.232	83
244.465	85
244.699	79
244.932	80
245.166	90
245.399	78
245.633	75
245.866	75
246.099	79
246.333	77
246.566	93
246.8	82
247.033	80
247.266	79
247.5	77
247.733	75
247.966	86
248.2	72
248.433	76
248.666	91
248.899	86
249.133	93
249.366	68
249.599	75
249.832	68
250.066	99
250.299	95
250.532	88
250.765	79
250.998	87
251.231	84
251.465	90
251.698	69
251.931	83
252.164	80
252.397	76
252.63	76
252.863	87
253.096	78
253.329	82
253.562	92
253.795	65
254.028	83
254.261	79
254.494	93
254.727	94
254.96	77
255.193	73
255.426	78
255.659	83
255.892	89
256.124	84
256.357	88
256.59	89
256.823	75
257.056	93
257.289	65
257.521	90
257.754	80
257.987	92
258.22	78
258.452	86
258.685	100
258.918	80
259.151	81
259.383	87
259.616	76
259.849	79
260.081	83
260.314	86
260.547	76
260.779	99
261.012	88
261.244	72
261.477	93
261.71	83
261.942	89
262.175	83
262.407	77
262.64	76
262.872	85
263.105	90
263.337	77
263.57	81
263.802	90
264.035	84
264.267	84
264.499	74
264.732	81
264.964	89
265.197	85
265.429	80
265.661	75
265.894	85
266.126	93
266.358	98
266.591	73
266.823	95
267.055	73
267.287	78
267.52	77
267.752	78
267.984	90
268.216	72
268.448	83
268.681	81
268.913	94
269.145	84
269.377	88
269.609	87
269.841	85
270.073	92
270.306	80
270.538	89
270.77	75
271.002	90
271.234	79
271.466	79
271.698	92
271.93	85
272.162	76
272.394	80
272.626	63
272.858	77
273.09	90
273.322	95
273.553	93
273.785	81
274.017	82
274.249	83
274.481	76
274.713	71
274.945	89
275.176	84
275.408	70
275.64	80
275.872	81
276.104	95
276.335	86
276.567	88
276.799	84
277.031	80
277.262	87
277.494	84
277.726	92
277.957	75
278.189	71
278.421	84
278.652	83
278.884	102
279.115	87
279.347	88
279.579	90
279.81	88
280.042	81
280.273	75
280.505	94
280.736	111
280.968	71
281.199	93
281.431	89
281.662	85
281.894	77
282.125	89
282.356	85
282.588	84
282.819	98
283.051	74
283.282	97
283.513	84
283.745	84
283.976	91
284.207	85
284.439	90
284.67	103
284.901	74
285.132	80
285.364	86
285.595	84
285.826	84
286.057	87
286.288	85
286.52	103
286.751	93
286.982	82
287.213	93
287.444	92
287.675	80
287.906	85
288.138	95
288.369	88
288.6	78
288.831	84
289.062	87
289.293	99
289.524	77
289.755	83
289.986	86
290.217	76
290.448	74
290.679	92
290.91	80
291.141	81
291.371	80
291.602	76
291.833	87
292.064	95
292.295	92
292.526	83
292.757	91
292.987	71
293.218	91
293.449	91
293.68	78
293.91	84
294.141	91
294.372	78
294.603	98
294.833	80
295.064	77
295.295	73
295.525	100
295.756	90
295.987	95
296.217	95
296.448	84
296.679	96
296.909	95
297.14	77
297.37	92
297.601	75
297.831	95
298.062	85
298.292	80
298.523	84
298.753	73
298.984	85
299.214	82
299.445	82
299.675	89
299.905	77
300.136	91
300.366	77
300.597	89
300.827	91
301.057	95
301.288	103
301.518	86
301.748	83
301.979	76
302.209	81
302.439	94
302.669	91
302.9	102
303.13	80
303.36	83
303.59	82
303.82	91
304.051	88
304.281	82
304.511	81
304.741	83
304.971	83
305.201	84
305.431	87
305.661	82
305.891	91
306.121	94
306.352	82
306.582	79
306.812	92
307.042	82
307.272	80
307.502	100
307.731	91
307.961	78
308.191	93
308.421	100
308.651	90
308.881	88
309.111	99
309.341	92
309.571	79
309.8	84
310.03	96
310.26	83
310.49	102
310.72	78
310.949	81
311.179	85
311.409	96
311.639	87
311.868	76
312.098	93
312.328	78
312.557	92
312.787	86
313.017	89
313.246	80
313.476	77
313.706	84
313.935	86
314.165	83
314.394	76
314.624	83
314.853	91
315.083	93
315.312	83
315.542	90
315.771	54
316.001	79
316.23	75
316.46	95
316.689	84
316.919	80
317.148	84
317.377	82
317.607	92
317.836	82
318.065	82
318.295	85
318.524	90
318.753	93
318.983	78
319.212	90
319.441	92
319.67	79
319.9	104
320.129	81
320.358	103
320.587	91
320.816	89
321.046	77
321.275	84
321.504	88
321.733	96
321.962	78
322.191	77
322.42	91
322.649	90
322.878	84
323.108	85
323.337	97
323.566	84
323.795	96
324.024	86
324.253	78
324.482	81
324.71	81
324.939	89
325.168	90
325.397	87
325.626	68
325.855	81
326.084	92
326.313	100
326.542	90
326.77	78
326.999	77
327.228	84
327.457	93
327.686	82
327.914	87
328.143	91
328.372	80
328.6	84
328.829	58
329.058	80
329.287	92
329.515	83
329.744	88
329.972	74
330.201	84
330.43	89
330.658	82
330.887	96
331.115	83
331.344	94
331.572	83
331.801	77
332.03	84
332.258	88
332.486	87
332.715	82
332.943	79
333.172	94
333.4	81
333.629	93
333.857	82
334.085	91
334.314	84
334.542	81
334.771	72
334.999	94
335.227	84
335.455	79
335.684	92
335.912	93
336.14	80
336.369	73
336.597	96
336.825	94
337.053	72
337.281	79
337.51	92
337.738	90
337.966	93
338.194	96
338.422	95
338.65	83
338.878	88
339.106	92
339.334	80
339.562	82
339.79	92
340.018	95
340.246	84
340.474	88
340.702	90
340.93	104
341.158	82
341.386	82
341.614	86
341.842	84
342.07	81
342.298	90
342.526	85
342.754	78
342.981	82
343.209	81
343.437	94
343.665	87
343.893	90
344.12	87
344.348	75
344.576	80
344.804	86
345.031	86
345.259	90
345.487	103
345.714	87
345.942	104
346.17	97
346.397	87
346.625	78
346.853	85
347.08	72
347.308	91
347.535	97
347.763	80
347.99	85
348.218	87
348.445	84
348.673	92
348.9	90
349.128	95
349.355	96
349.583	85
349.81	75
350.037	89
350.265	87
350.492	83
350.72	87
350.947	83
351.174	86
351.402	105
351.629	71
351.856	72
352.083	86
352.311	81
352.538	97
352.765	85
352.992	76
353.22	95
353.447	84
353.674	95
353.901	71
354.128	89
354.355	95
354.583	94
354.81	86
355.037	100
355.264	91
355.491	72
355.718	90
355.945	94
356.172	79
356.399	80
356.626	88
356.853	80
357.08	83
357.307	72
357.534	99
357.761	86
357.988	83
358.215	81
358.441	90
358.668	82
358.895	70
359.122	78
359.349	77
359.576	81
359.802	83
360.029	92
360.256	76
360.483	88
360.709	69
360.936	89
361.163	79
361.39	82
361.616	77
361.843	86
362.07	82
362.296	88
362.523	73
362.749	78
362.976	81
363.203	99
363.429	91
363.656	72
363.882	86
364.109	84
364.335	80
364.562	81
364.788	81
365.015	91
365.241	82
365.468	89
365.694	89
365.92	88
366.147	84
366.373	73
366.599	87
366.826	80
367.052	96
367.278	79
367.505	92
367.731	76
367.957	87
368.184	74
368.41	73
368.636	90
368.862	89
369.089	74
369.315	87
369.541	94
369.767	80
369.993	92
370.219	79
370.445	91
370.672	96
370.898	86
371.124	76
371.35	93
371.576	73
371.802	88
372.028	82
372.254	85
372.48	79
372.706	92
372.932	83
373.158	82
373.384	81
373.61	96
373.835	87
374.061	73
374.287	75
374.513	84
374.739	88
374.965	86
375.191	91
375.416	84
375.642	87
375.868	89
376.094	92
376.319	80
376.545	81
376.771	76
376.997	88
377.222	82
377.448	90
377.674	83
377.899	74
378.125	92
378.35	87
378.576	83
378.802	99
379.027	80
379.253	94
379.478	84
379.704	77
379.929	88
380.155	83
380.38	78
380.606	85
380.831	83
381.057	95
381.282	84
381.507	85
381.733	86
381.958	77
382.184	87
382.409	80
382.634	84
382.86	81
383.085	85
383.31	77
383.535	92
383.761	82
383.986	73
384.211	84
384.436	88
384.662	90
384.887	93
385.112	83
385.337	85
385.562	80
385.787	84
386.013	102
386.238	68
386.463	89
386.688	80
386.913	95
387.138	79
387.363	76
387.588	82
387.813	95
388.038	79
388.263	95
388.488	92
388.713	83
388.938	77
389.163	78
389.387	92
389.612	82
389.837	85
390.062	104
390.287	88
390.512	90
390.736	78
390.961	90
391.186	86
391.411	99
391.636	95
391.86	89
392.085	93
392.31	89
392.534	87
392.759	79
392.984	87
393.208	79
393.433	99
393.658	96
393.882	89
394.107	85
394.331	88
394.556	74
394.78	87
395.005	76
395.229	83
395.454	86
395.678	95
395.903	92
396.127	103
396.352	82
396.576	74
396.801	100
397.025	88
397.249	97
397.474	98
397.698	108
397.922	91
398.147	97
398.371	92
398.595	84
398.82	80
399.044	90
399.268	80
399.492	90
399.717	96
399.941	94
400.165	89
400.389	89
400.613	104
400.837	82
401.062	85
401.286	93
401.51	94
401.734	79
401.958	84
402.182	81
402.406	97
402.63	80
402.854	86
403.078	88
403.302	86
403.526	81
403.75	103
403.974	94
404.198	84
404.422	82
404.645	96
404.869	90
405.093	76
405.317	89
405.541	85
405.765	84
405.988	86
406.212	94
406.436	83
406.66	97
406.883	83
407.107	96
407.331	77
407.555	86
407.778	89
408.002	89
408.226	87
408.449	93
408.673	90
408.896	103
409.12	98
409.344	92
409.567	98
409.791	79
410.014	89
410.238	82
410.461	84
410.685	95
410.908	91
411.132	88
411.355	93
411.578	92
411.802	82
412.025	101
412.249	86
412.472	91
412.695	81
412.919	105
413.142	107
413.365	96
413.589	96
413.812	96
414.035	99
414.258	84
414.482	84
414.705	83
414.928	82
415.151	90
415.374	87
415.597	95
415.821	88
416.044	79
416.267	94
416.49	105
416.713	92
416.936	89
417.159	97
417.382	91
417.605	93
417.828	101
418.051	95
418.274	94
418.497	91
418.72	101
418.943	105
419.166	107
419.389	102
419.611	108
419.834	92
420.057	103
420.28	108
420.503	101
420.726	94
420.948	92
421.171	107
421.394	103
421.617	96
421.839	112
422.062	86
422.285	91
422.507	90
422.73	99
422.953	92
423.175	106
423.398	100
423.621	95
423.843	87
424.066	117
424.288	110
424.511	96
424.733	108
424.956	108
425.178	87
425.401	98
425.623	92
425.846	85
426.068	104
426.291	89
426.513	99
426.735	88
426.958	92
427.18	93
427.402	93
427.625	103
427.847	98
428.069	97
428.292	100
428.514	87
428.736	92
428.958	77
429.181	90
429.403	85
429.625	100
429.847	82
430.069	102
430.292	95
430.514	104
430.736	106
430.958	90
431.18	93
431.402	91
431.624	88
431.846	95
432.068	88
432.29	83
432.512	97
432.734	92
432.956	94
433.178	93
433.4	80
433.622	80
433.844	88
434.066	75
434.287	89
434.509	83
434.731	79
434.953	99
435.175	98
435.397	83
435.618	80
435.84	99
436.062	98
436.284	84
436.505	92
436.727	85
436.949	94
437.17	101
437.392	84
437.614	98
437.835	82
438.057	89
438.278	97
438.5	91
438.721	87
438.943	98
439.165	97
439.386	87
439.608	113
439.829	109
440.05	78
440.272	97
440.493	83
440.715	88
440.936	99
441.158	108
441.379	103
441.6	92
441.822	105
442.043	91
442.264	114
442.486	112
442.707	90
442.928	97
443.149	95
443.371	103
443.592	95
443.813	101
444.034	98
444.255	111
444.476	92
444.698	80
444.919	100
445.14	177
445.361	149
445.582	108
445.803	95
446.024	109
446.245	103
446.466	102
446.687	95
446.908	100
447.129	95
447.35	92
447.571	114
447.792	99
448.013	107
448.234	95
448.455	90
448.675	81
448.896	91
449.117	104
449.338	107
449.559	101
449.779	103
450	111
450.221	99
450.442	104
450.662	104
450.883	98
451.104	98
451.324	105
451.545	92
451.766	96
451.986	94
452.207	92
452.428	91
452.648	91
452.869	96
453.089	112
453.31	88
453.53	85
453.751	88
453.971	85
454.192	91
454.412	92
454.633	80
454.853	102
455.073	109
455.294	97
455.514	104
455.734	88
455.955	95
456.175	91
456.395	75
456.616	102
456.836	101
457.056	88
457.276	91
457.497	92
457.717	87
457.937	92
458.157	98
458.377	87
458.598	85
458.818	80
459.038	75
459.258	87
459.478	81
459.698	79
459.918	74
460.138	86
460.358	73
460.578	93
460.798	99
461.018	104
461.238	103
461.458	103
461.678	84
461.898	87
462.118	102
462.338	93
462.558	85
462.777	93
462.997	91
463.217	86
463.437	96
463.657	87
463.876	91
464.096	94
464.316	80
464.536	68
464.755	91
464.975	94
465.195	87
465.414	92
465.634	89
465.854	96
466.073	91
466.293	93
466.512	98
466.732	92
466.951	99
467.171	105
467.391	85
467.61	104
467.829	91
468.049	98
468.268	93
468.488	115
468.707	104
468.927	84
469.146	84
469.365	97
469.585	108
469.804	111
470.023	95
470.243	107
470.462	93
470.681	105
470.901	112
471.12	99
471.339	100
471.558	106
471.777	88
471.997	101
472.216	91
472.435	88
472.654	108
472.873	102
473.092	102
473.311	91
473.53	86
473.749	98
473.968	85
474.187	98
474.406	97
474.625	83
474.844	94
475.063	119
475.282	92
475.501	101
475.72	93
475.939	96
476.158	89
476.377	84
476.596	106
476.814	101
477.033	87
477.252	94
477.471	102
477.69	84
477.908	95
478.127	95
478.346	94
478.564	103
478.783	95
479.002	99
479.22	101
479.439	109
479.658	94
479.876	95
480.095	81
480.313	81
480.532	96
480.751	87
480.969	84
481.188	95
481.406	93
481.624	84
481.843	92
482.061	85
482.28	89
482.498	88
482.717	90
482.935	85
483.153	107
483.372	115
483.59	100
483.808	100
484.027	111
484.245	103
484.463	97
484.681	115
484.9	100
485.118	98
485.336	90
485.554	95
485.772	84
485.99	85
486.209	94
486.427	74
486.645	97
486.863	93
487.081	106
487.299	94
487.517	105
487.735	99
487.953	106
488.171	122
488.389	106
488.607	103
488.825	97
489.043	102
489.261	101
489.479	94
489.696	96
489.914	95
490.132	91
490.35	104
490.568	103
490.786	100
491.003	112
491.221	98
491.439	125
491.657	119
491.874	128
492.092	134
492.31	125
492.527	131
492.745	114
492.963	113
493.18	110
493.398	124
493.615	109
493.833	109
494.05	108
494.268	116
494.485	123
494.703	107
494.92	109
495.138	100
495.355	114
495.573	106
495.79	102
496.008	106
496.225	114
496.442	129
496.66	103
496.877	111
497.094	108
497.312	105
497.529	108
497.746	104
497.963	99
498.181	90
498.398	103
498.615	93
498.832	94
499.049	93
499.267	98
499.484	99
499.701	96
499.918	101
500.135	95
500.352	99
500.569	107
500.786	106
501.003	77
501.22	93
501.437	104
501.654	87
501.871	92
502.088	111
502.305	101
502.522	95
502.739	93
502.956	90
503.172	104
503.389	80
503.606	96
503.823	87
504.04	81
504.256	98
504.473	102
504.69	95
504.907	99
505.123	89
505.34	85
505.557	95
505.773	98
505.99	91
506.207	101
506.423	94
506.64	100
506.856	99
507.073	86
507.289	94
507.506	93
507.722	85
507.939	97
508.155	105
508.372	91
508.588	105
508.805	87
509.021	87
509.238	90
509.454	73
509.67	93
509.887	91
510.103	93
510.319	76
510.536	84
510.752	77
510.968	76
511.184	81
511.401	74
511.617	93
511.833	91
512.049	74
512.265	87
512.481	77
512.698	104
512.914	94
513.13	93
513.346	79
513.562	82
513.778	95
513.994	87
514.21	89
514.426	92
514.642	87
514.858	85
515.074	84
515.29	89
515.506	98
515.721	81
515.937	89
516.153	92
516.369	81
516.585	101
516.801	95
517.016	92
517.232	85
517.448	84
517.664	81
517.879	95
518.095	98
518.311	91
518.527	93
518.742	95
518.958	67
519.173	82
519.389	107
519.605	89
519.82	100
520.036	98
520.251	95
520.467	89
520.682	77
520.898	97
521.113	92
521.329	97
521.544	71
521.76	98
521.975	81
522.19	83
522.406	88
522.621	85
522.836	90
523.052	93
523.267	89
523.482	92
523.698	107
523.913	90
524.128	93
524.343	93
524.559	99
524.774	99
524.989	89
525.204	99
525.419	95
525.634	91
525.849	76
526.064	82
526.28	90
526.495	83
526.71	73
526.925	67
527.14	84
527.355	79
527.57	82
527.785	75
527.999	96
528.214	85
528.429	105
528.644	103
528.859	95
529.074	106
529.289	111
529.503	115
529.718	106
529.933	101
530.148	83
530.363	88
530.577	85
530.792	79
531.007	83
531.221	95
531.436	83
531.651	76
531.865	80
532.08	76
532.295	73
532.509	89
532.724	78
532.938	88
533.153	84
533.367	87
533.582	95
533.796	112
534.011	85
534.225	82
534.44	76
534.654	91
534.868	100
535.083	86
535.297	91
535.511	76
535.726	85
535.94	106
536.154	105
536.369	81
536.583	85
536.797	82
537.011	103
537.225	95
537.44	82
537.654	89
537.868	99
538.082	91
538.296	92
538.51	91
538.724	85
538.938	91
539.153	72
539.367	87
539.581	87
539.795	87
540.009	103
540.222	89
540.436	92
540.65	94
540.864	102
541.078	101
541.292	107
541.506	119
541.72	104
541.934	117
542.147	118
542.361	111
542.575	91
542.789	106
543.002	93
543.216	100
543.43	105
543.644	99
543.857	109
544.071	117
544.285	115
544.498	103
544.712	116
544.925	117
545.139	122
545.352	108
545.566	102
545.779	111
545.993	107
546.206	107
546.42	115
546.633	122
546.847	116
547.06	117
547.274	128
547.487	123
547.7	116
547.914	115
548.127	108
548.34	116
548.554	115
548.767	112
548.98	110
549.193	109
549.407	113
549.62	122
549.833	103
550.046	102
550.259	116
550.473	99
550.686	110
550.899	113
551.112	118
551.325	108
551.538	105
551.751	97
551.964	102
552.177	105
552.39	101
552.603	95
552.816	117
553.029	108
553.242	114
553.455	115
553.667	122
553.88	125
554.093	112
554.306	121
554.519	106
554.732	113
554.944	104
555.157	109
555.37	113
555.583	116
555.795	106
556.008	108
556.221	104
556.433	92
556.646	119
556.859	96
557.071	103
557.284	91
557.496	99
557.709	94
557.921	108
558.134	104
558.346	106
558.559	100
558.771	101
558.984	90
559.196	92
559.409	100
559.621	92
559.833	101
560.046	96
560.258	90
560.47	97
560.683	108
560.895	96
561.107	101
561.32	95
561.532	119
561.744	101
561.956	96
562.168	100
562.381	104
562.593	98
562.805	109
563.017	100
563.229	101
563.441	101
563.653	98
563.865	91
564.077	108
564.289	96
564.501	110
564.713	93
564.925	76
565.137	85
565.349	91
565.561	87
565.773	97
565.985	101
566.197	99
566.408	104
566.62	87
566.832	99
567.044	102
567.255	100
567.467	99
567.679	92
567.891	84
568.102	102
568.314	82
568.526	74
568.737	91
568.949	91
569.161	83
569.372	83
569.584	92
569.795	85
570.007	89
570.218	86
570.43	81
570.641	92
570.853	106
571.064	90
571.276	86
571.487	84
571.698	84
571.91	88
572.121	80
572.333	81
572.544	94
572.755	84
572.966	95
573.178	79
573.389	88
573.6	72
573.811	75
574.023	80
574.234	88
574.445	83
574.656	82
574.867	80
575.078	79
575.289	92
575.501	100
575.712	84
575.923	83
576.134	89
576.345	99
576.556	93
576.767	82
576.978	96
577.188	85
577.399	87
577.61	93
577.821	88
578.032	98
578.243	96
578.454	90
578.665	83
578.875	92
579.086	85
579.297	85
579.508	90
579.718	84
579.929	85
580.14	82
580.35	95
580.561	78
580.772	98
580.982	87
581.193	82
581.403	85
581.614	80
581.825	101
582.035	95
582.246	88
582.456	88
582.667	87
582.877	83
583.087	88
583.298	96
583.508	76
583.719	82
583.929	80
584.139	99
584.35	83
584.56	83
584.77	85
584.981	103
585.191	89
585.401	88
585.611	93
585.821	82
586.032	95
586.242	88
586.452	84
586.662	84
586.872	93
587.082	94
587.292	93
587.502	87
587.713	76
587.923	87
588.133	72
588.343	92
588.553	100
588.762	86
588.972	67
589.182	87
589.392	95
589.602	99
589.812	91
590.022	99
590.232	82
590.441	74
590.651	87
590.861	79
591.071	85
591.281	97
591.49	88
591.7	78
591.91	97
592.119	87
592.329	86
592.539	86
592.748	82
592.958	83
593.167	93
593.377	78
593.587	92
593.796	84
594.006	67
594.215	88
594.424	93
594.634	88
594.843	85
595.053	98
595.262	93
595.472	90
595.681	93
595.89	97
596.1	91
596.309	72
596.518	80
596.727	86
596.937	83
597.146	103
597.355	98
597.564	110
597.774	75
597.983	100
598.192	89
598.401	69
598.61	84
598.819	84
599.028	93
599.237	88
599.446	99
599.655	101
599.864	84
600.073	83
600.282	90
600.491	85
600.7	86
600.909	69
601.118	92
601.327	91
601.536	97
601.745	104
601.953	86
602.162	94
602.371	81
602.58	77
602.789	103
602.997	90
603.206	97
603.415	85
603.623	84
603.832	105
604.041	94
604.249	84
604.458	88
604.666	78
604.875	71
605.084	89
605.292	98
605.501	81
605.709	97
605.918	85
606.126	101
606.334	96
606.543	87
606.751	90
606.96	107
607.168	82
607.376	87
607.585	93
607.793	91
608.001	82
608.21	93
608.418	85
608.626	95
608.834	85
609.043	89
609.251	88
609.459	103
609.667	102
609.875	112
610.083	95
610.291	92
610.499	103
610.707	100
610.916	99
611.124	97
611.332	83
611.54	88
611.748	78
611.955	87
612.163	111
612.371	93
612.579	75
612.787	81
612.995	87
613.203	99
613.411	110
613.618	91
613.826	93
614.034	95
614.242	85
614.449	100
614.657	88
614.865	105
615.072	98
615.28	95
615.488	92
615.695	92
615.903	102
616.111	94
616.318	108
616.526	113
616.733	87
616.941	106
617.148	98
617.356	92
617.563	87
617.771	95
617.978	89
618.185	97
618.393	86
618.6	92
618.807	97
619.015	89
619.222	92
619.429	83
619.637	100
619.844	102
620.051	102
620.258	88
620.466	101
620.673	100
620.88	89
621.087	106
621.294	93
621.501	90
621.708	106
621.915	93
622.122	106
622.329	99
622.536	94
622.743	87
622.95	86
623.157	104
623.364	93
623.571	107
623.778	98
623.985	91
624.192	101
624.399	107
624.606	86
624.812	85
625.019	87
625.226	101
625.433	97
625.639	101
625.846	96
626.053	85
626.259	104
626.466	93
626.673	81
626.879	74
627.086	102
627.293	106
627.499	103
627.706	91
627.912	96
628.119	84
628.325	96
628.532	97
628.738	103
628.945	95
629.151	85
629.357	91
629.564	107
629.77	98
629.976	87
630.183	100
630.389	85
630.595	90
630.802	92
631.008	82
631.214	96
631.42	99
631.627	95
631.833	99
632.039	98
632.245	77
632.451	91
632.657	83
632.863	95
633.069	93
633.275	84
633.481	78
633.688	92
633.893	99
634.099	90
634.305	98
634.511	85
634.717	96
634.923	85
635.129	84
635.335	95
635.541	96
635.747	105
635.952	104
636.158	96
636.364	85
636.57	87
636.775	89
636.981	88
637.187	85
637.392	88
637.598	96
637.804	99
638.009	82
638.215	96
638.421	100
638.626	91
638.832	90
639.037	87
639.243	84
639.448	72
639.654	89
639.859	95
640.065	98
640.27	100
640.475	87
640.681	84
640.886	97
641.091	92
641.297	107
641.502	90
641.707	90
641.913	96
642.118	94
642.323	92
642.528	95
642.733	88
642.939	101
643.144	103
643.349	85
643.554	97
643.759	91
643.964	84
644.169	100
644.374	85
644.579	83
644.784	79
644.989	91
645.194	91
645.399	83
645.604	99
645.809	101
646.014	95
646.219	91
646.423	83
646.628	86
646.833	100
647.038	91
647.243	92
647.447	83
647.652	88
647.857	76
648.062	91
648.266	89
648.471	87
648.676	92
648.88	80
649.085	85
649.289	92
649.494	87
649.698	93
649.903	80
650.107	88
650.312	82
650.516	93
650.721	85
650.925	80
651.13	92
651.334	106
651.539	91
651.743	80
651.947	91
652.152	87
652.356	95
652.56	97
652.764	97
652.969	79
653.173	88
653.377	81
653.581	88
653.785	74
653.99	98
654.194	97
654.398	82
654.602	88
654.806	80
655.01	91
655.214	93
655.418	84
655.622	87
655.826	83
656.03	81
656.234	92
656.438	92
656.642	102
656.846	84
657.049	89
657.253	89
657.457	101
657.661	95
657.865	84
658.068	80
658.272	100
658.476	99
658.68	84
658.883	79
659.087	91
659.291	75
659.494	90
659.698	85
659.901	77
660.105	89
660.309	75
660.512	74
660.716	73
660.919	82
661.123	82
661.326	82
661.53	73
661.733	88
661.936	82
662.14	95
662.343	94
662.546	97
662.75	88
662.953	89
663.156	92
663.36	82
663.563	73
663.766	87
663.969	79
664.173	80
664.376	81
664.579	93
664.782	97
664.985	81
665.188	89
665.391	78
665.594	75
665.797	68
666	82
666.203	80
666.406	84
666.609	79
666.812	87
667.015	71
667.218	77
667.421	91
667.624	81
667.827	89
668.03	75
668.232	85
668.435	81
668.638	66
668.841	104
669.043	73
669.246	81
669.449	85
669.651	85
669.854	85
670.057	83
670.259	88
670.462	91
670.665	79
670.867	89
671.07	77
671.272	81
671.475	81
671.677	96
671.88	83
672.082	77
672.284	94
672.487	93
672.689	57
672.892	74
