Data from Location3.07152019.Energy5.Lamp.07192019.3%Agarose_HRD10591_15-19-38-270.txt Node
Date: Fri Jul 19 15:19:38 EDT 2019
User: cochatt
Spectrometer: HR+D1059
Trigger mode: 1
Integration Time (sec): 1.000000E-1
Scans to average: 1
Electric dark correction enabled: true
Nonlinearity correction enabled: false
Boxcar width: 0
XAxis mode: Wavelengths
Number of Pixels in Spectrum: 2048
>>>>>Begin Spectral Data<<<<<
223.165	-13
223.4	-13
223.635	-13
223.869	-9
224.104	-16
224.338	-12
224.573	-17
224.808	-7
225.042	-24
225.277	-3
225.511	12
225.746	-7
225.98	6
226.215	2
226.449	12
226.683	7
226.918	19
227.152	50
227.387	35
227.621	37
227.856	34
228.09	53
228.324	43
228.559	60
228.793	63
229.027	60
229.262	54
229.496	74
229.73	81
229.964	74
230.199	71
230.433	82
230.667	74
230.901	65
231.136	72
231.37	87
231.604	74
231.838	74
232.072	83
232.306	95
232.541	86
232.775	93
233.009	87
233.243	68
233.477	83
233.711	89
233.945	78
234.179	83
234.413	77
234.647	87
234.881	73
235.115	96
235.349	74
235.583	75
235.817	73
236.051	81
236.285	89
236.519	89
236.753	78
236.987	84
237.221	80
237.455	83
237.689	68
237.922	77
238.156	83
238.39	70
238.624	83
238.858	82
239.091	67
239.325	80
239.559	79
239.793	80
240.027	84
240.26	79
240.494	94
240.728	90
240.961	84
241.195	78
241.429	71
241.662	71
241.896	65
242.13	76
242.363	82
242.597	81
242.83	83
243.064	92
243.298	78
243.531	82
243.765	82
243.998	71
244.232	73
244.465	78
244.699	73
244.932	93
245.166	71
245.399	89
245.633	82
245.866	70
246.099	77
246.333	79
246.566	73
246.8	76
247.033	83
247.266	72
247.5	87
247.733	92
247.966	71
248.2	81
248.433	78
248.666	91
248.899	81
249.133	79
249.366	83
249.599	88
249.832	81
250.066	86
250.299	77
250.532	82
250.765	73
250.998	77
251.231	67
251.465	84
251.698	84
251.931	93
252.164	76
252.397	89
252.63	84
252.863	76
253.096	76
253.329	68
253.562	77
253.795	79
254.028	79
254.261	85
254.494	80
254.727	72
254.96	79
255.193	88
255.426	80
255.659	79
255.892	83
256.124	70
256.357	93
256.59	86
256.823	89
257.056	92
257.289	82
257.521	69
257.754	76
257.987	74
258.22	70
258.452	90
258.685	87
258.918	78
259.151	95
259.383	81
259.616	79
259.849	91
260.081	80
260.314	74
260.547	85
260.779	72
261.012	82
261.244	81
261.477	82
261.71	80
261.942	74
262.175	76
262.407	86
262.64	74
262.872	71
263.105	69
263.337	82
263.57	72
263.802	90
264.035	79
264.267	71
264.499	74
264.732	75
264.964	68
265.197	88
265.429	78
265.661	67
265.894	98
266.126	72
266.358	95
266.591	88
266.823	84
267.055	83
267.287	77
267.52	81
267.752	69
267.984	74
268.216	79
268.448	77
268.681	84
268.913	76
269.145	91
269.377	100
269.609	76
269.841	76
270.073	75
270.306	85
270.538	81
270.77	81
271.002	71
271.234	91
271.466	88
271.698	102
271.93	80
272.162	84
272.394	82
272.626	70
272.858	93
273.09	88
273.322	90
273.553	85
273.785	77
274.017	93
274.249	83
274.481	88
274.713	74
274.945	83
275.176	74
275.408	93
275.64	96
275.872	65
276.104	77
276.335	83
276.567	79
276.799	79
277.031	91
277.262	94
277.494	84
277.726	91
277.957	76
278.189	87
278.421	84
278.652	88
278.884	87
279.115	83
279.347	72
279.579	77
279.81	82
280.042	83
280.273	76
280.505	84
280.736	93
280.968	73
281.199	85
281.431	79
281.662	72
281.894	72
282.125	78
282.356	88
282.588	78
282.819	71
283.051	78
283.282	88
283.513	84
283.745	91
283.976	90
284.207	85
284.439	84
284.67	86
284.901	80
285.132	74
285.364	83
285.595	92
285.826	79
286.057	90
286.288	75
286.52	90
286.751	75
286.982	83
287.213	94
287.444	84
287.675	76
287.906	88
288.138	76
288.369	81
288.6	107
288.831	83
289.062	80
289.293	82
289.524	96
289.755	91
289.986	85
290.217	86
290.448	78
290.679	70
290.91	93
291.141	80
291.371	84
291.602	89
291.833	78
292.064	81
292.295	84
292.526	82
292.757	86
292.987	89
293.218	78
293.449	100
293.68	96
293.91	84
294.141	73
294.372	74
294.603	66
294.833	87
295.064	80
295.295	90
295.525	89
295.756	90
295.987	81
296.217	87
296.448	99
296.679	72
296.909	91
297.14	87
297.37	83
297.601	82
297.831	88
298.062	84
298.292	80
298.523	78
298.753	79
298.984	84
299.214	70
299.445	89
299.675	80
299.905	88
300.136	80
300.366	87
300.597	91
300.827	89
301.057	82
301.288	93
301.518	87
301.748	92
301.979	97
302.209	88
302.439	84
302.669	92
302.9	80
303.13	93
303.36	96
303.59	82
303.82	76
304.051	91
304.281	95
304.511	80
304.741	88
304.971	84
305.201	90
305.431	86
305.661	88
305.891	81
306.121	92
306.352	98
306.582	85
306.812	87
307.042	78
307.272	78
307.502	74
307.731	82
307.961	83
308.191	77
308.421	75
308.651	90
308.881	86
309.111	87
309.341	86
309.571	83
309.8	92
310.03	98
310.26	87
310.49	90
310.72	82
310.949	89
311.179	77
311.409	86
311.639	83
311.868	75
312.098	82
312.328	90
312.557	94
312.787	87
313.017	75
313.246	75
313.476	85
313.706	82
313.935	87
314.165	93
314.394	90
314.624	89
314.853	90
315.083	96
315.312	91
315.542	91
315.771	90
316.001	90
316.23	80
316.46	77
316.689	80
316.919	83
317.148	79
317.377	95
317.607	80
317.836	85
318.065	95
318.295	82
318.524	81
318.753	90
318.983	86
319.212	88
319.441	91
319.67	100
319.9	95
320.129	87
320.358	83
320.587	74
320.816	85
321.046	92
321.275	89
321.504	86
321.733	86
321.962	90
322.191	87
322.42	73
322.649	96
322.878	76
323.108	74
323.337	81
323.566	75
323.795	84
324.024	89
324.253	75
324.482	84
324.71	90
324.939	76
325.168	84
325.397	81
325.626	89
325.855	92
326.084	93
326.313	88
326.542	85
326.77	74
326.999	89
327.228	87
327.457	71
327.686	84
327.914	92
328.143	90
328.372	69
328.6	86
328.829	83
329.058	92
329.287	81
329.515	72
329.744	85
329.972	84
330.201	88
330.43	94
330.658	89
330.887	90
331.115	88
331.344	84
331.572	80
331.801	80
332.03	83
332.258	92
332.486	90
332.715	85
332.943	97
333.172	87
333.4	93
333.629	87
333.857	78
334.085	77
334.314	86
334.542	85
334.771	85
334.999	88
335.227	99
335.455	77
335.684	91
335.912	87
336.14	80
336.369	83
336.597	84
336.825	82
337.053	94
337.281	88
337.51	85
337.738	86
337.966	90
338.194	65
338.422	75
338.65	84
338.878	82
339.106	91
339.334	88
339.562	71
339.79	84
340.018	74
340.246	91
340.474	81
340.702	87
340.93	99
341.158	83
341.386	84
341.614	91
341.842	88
342.07	87
342.298	89
342.526	93
342.754	82
342.981	92
343.209	93
343.437	89
343.665	99
343.893	81
344.12	90
344.348	91
344.576	60
344.804	85
345.031	97
345.259	89
345.487	96
345.714	88
345.942	72
346.17	85
346.397	78
346.625	89
346.853	83
347.08	85
347.308	79
347.535	82
347.763	94
347.99	86
348.218	90
348.445	95
348.673	83
348.9	84
349.128	88
349.355	92
349.583	84
349.81	83
350.037	83
350.265	57
350.492	85
350.72	74
350.947	95
351.174	70
351.402	101
351.629	74
351.856	73
352.083	82
352.311	76
352.538	97
352.765	75
352.992	76
353.22	73
353.447	84
353.674	79
353.901	77
354.128	81
354.355	89
354.583	87
354.81	91
355.037	93
355.264	75
355.491	73
355.718	78
355.945	83
356.172	87
356.399	72
356.626	84
356.853	81
357.08	75
357.307	82
357.534	86
357.761	69
357.988	89
358.215	90
358.441	97
358.668	81
358.895	96
359.122	99
359.349	71
359.576	72
359.802	75
360.029	98
360.256	73
360.483	76
360.709	85
360.936	74
361.163	84
361.39	83
361.616	84
361.843	95
362.07	92
362.296	89
362.523	91
362.749	82
362.976	84
363.203	80
363.429	97
363.656	87
363.882	88
364.109	78
364.335	86
364.562	88
364.788	73
365.015	76
365.241	87
365.468	78
365.694	77
365.92	87
366.147	82
366.373	76
366.599	98
366.826	91
367.052	90
367.278	88
367.505	86
367.731	90
367.957	95
368.184	77
368.41	87
368.636	81
368.862	84
369.089	81
369.315	79
369.541	93
369.767	78
369.993	82
370.219	84
370.445	100
370.672	86
370.898	79
371.124	76
371.35	89
371.576	83
371.802	93
372.028	70
372.254	88
372.48	96
372.706	82
372.932	98
373.158	77
373.384	82
373.61	92
373.835	77
374.061	83
374.287	82
374.513	73
374.739	69
374.965	79
375.191	83
375.416	89
375.642	80
375.868	94
376.094	82
376.319	86
376.545	74
376.771	92
376.997	83
377.222	91
377.448	96
377.674	91
377.899	90
378.125	87
378.35	80
378.576	88
378.802	83
379.027	88
379.253	90
379.478	83
379.704	88
379.929	80
380.155	78
380.38	84
380.606	79
380.831	90
381.057	77
381.282	90
381.507	87
381.733	73
381.958	85
382.184	90
382.409	71
382.634	85
382.86	81
383.085	78
383.31	100
383.535	85
383.761	96
383.986	89
384.211	82
384.436	77
384.662	82
384.887	89
385.112	80
385.337	92
385.562	86
385.787	84
386.013	86
386.238	80
386.463	88
386.688	98
386.913	85
387.138	86
387.363	97
387.588	91
387.813	88
388.038	78
388.263	94
388.488	91
388.713	81
388.938	94
389.163	80
389.387	81
389.612	88
389.837	88
390.062	89
390.287	79
390.512	82
390.736	91
390.961	87
391.186	96
391.411	91
391.636	98
391.86	95
392.085	72
392.31	85
392.534	90
392.759	88
392.984	95
393.208	81
393.433	89
393.658	89
393.882	87
394.107	87
394.331	99
394.556	94
394.78	87
395.005	86
395.229	105
395.454	84
395.678	74
395.903	91
396.127	89
396.352	95
396.576	91
396.801	91
397.025	91
397.249	96
397.474	92
397.698	84
397.922	80
398.147	87
398.371	83
398.595	69
398.82	68
399.044	78
399.268	82
399.492	92
399.717	102
399.941	92
400.165	88
400.389	94
400.613	87
400.837	100
401.062	87
401.286	78
401.51	92
401.734	89
401.958	97
402.182	95
402.406	84
402.63	92
402.854	101
403.078	90
403.302	101
403.526	87
403.75	97
403.974	85
404.198	103
404.422	97
404.645	94
404.869	90
405.093	92
405.317	91
405.541	84
405.765	68
405.988	92
406.212	91
406.436	98
406.66	99
406.883	97
407.107	82
407.331	84
407.555	99
407.778	79
408.002	77
408.226	111
408.449	98
408.673	94
408.896	96
409.12	79
409.344	84
409.567	101
409.791	76
410.014	69
410.238	95
410.461	88
410.685	104
410.908	90
411.132	103
411.355	98
411.578	86
411.802	89
412.025	73
412.249	74
412.472	89
412.695	106
412.919	92
413.142	91
413.365	87
413.589	102
413.812	94
414.035	105
414.258	110
414.482	89
414.705	101
414.928	83
415.151	88
415.374	95
415.597	100
415.821	95
416.044	88
416.267	88
416.49	100
416.713	91
416.936	97
417.159	85
417.382	92
417.605	95
417.828	91
418.051	102
418.274	106
418.497	97
418.72	103
418.943	105
419.166	102
419.389	91
419.611	97
419.834	97
420.057	88
420.28	101
420.503	92
420.726	97
420.948	85
421.171	103
421.394	87
421.617	104
421.839	91
422.062	97
422.285	105
422.507	94
422.73	106
422.953	85
423.175	88
423.398	86
423.621	93
423.843	105
424.066	100
424.288	92
424.511	107
424.733	109
424.956	109
425.178	88
425.401	90
425.623	110
425.846	88
426.068	103
426.291	106
426.513	104
426.735	99
426.958	90
427.18	102
427.402	92
427.625	102
427.847	100
428.069	81
428.292	102
428.514	80
428.736	105
428.958	104
429.181	88
429.403	93
429.625	87
429.847	95
430.069	100
430.292	100
430.514	86
430.736	102
430.958	104
431.18	93
431.402	92
431.624	77
431.846	85
432.068	101
432.29	82
432.512	91
432.734	81
432.956	94
433.178	103
433.4	81
433.622	97
433.844	94
434.066	102
434.287	81
434.509	86
434.731	96
434.953	93
435.175	95
435.397	88
435.618	84
435.84	95
436.062	98
436.284	96
436.505	90
436.727	98
436.949	92
437.17	91
437.392	95
437.614	94
437.835	77
438.057	97
438.278	97
438.5	89
438.721	97
438.943	95
439.165	88
439.386	103
439.608	91
439.829	99
440.05	95
440.272	102
440.493	95
440.715	90
440.936	84
441.158	98
441.379	99
441.6	97
441.822	111
442.043	96
442.264	101
442.486	94
442.707	101
442.928	83
443.149	100
443.371	106
443.592	89
443.813	92
444.034	87
444.255	106
444.476	101
444.698	102
444.919	89
445.14	220
445.361	156
445.582	95
445.803	105
446.024	96
446.245	98
446.466	104
446.687	88
446.908	106
447.129	114
447.35	96
447.571	87
447.792	102
448.013	95
448.234	76
448.455	107
448.675	116
448.896	81
449.117	107
449.338	95
449.559	92
449.779	95
450	95
450.221	99
450.442	93
450.662	93
450.883	85
451.104	93
451.324	92
451.545	84
451.766	101
451.986	82
452.207	96
452.428	92
452.648	107
452.869	91
453.089	81
453.31	88
453.53	83
453.751	92
453.971	93
454.192	81
454.412	93
454.633	71
454.853	86
455.073	96
455.294	99
455.514	85
455.734	87
455.955	96
456.175	108
456.395	83
456.616	85
456.836	90
457.056	91
457.276	87
457.497	93
457.717	85
457.937	94
458.157	95
458.377	78
458.598	83
458.818	82
459.038	78
459.258	80
459.478	85
459.698	91
459.918	96
460.138	95
460.358	81
460.578	84
460.798	84
461.018	91
461.238	96
461.458	99
461.678	99
461.898	96
462.118	90
462.338	87
462.558	90
462.777	93
462.997	93
463.217	99
463.437	90
463.657	95
463.876	77
464.096	101
464.316	91
464.536	90
464.755	91
464.975	84
465.195	80
465.414	80
465.634	91
465.854	81
466.073	92
466.293	96
466.512	85
466.732	106
466.951	90
467.171	81
467.391	98
467.61	96
467.829	82
468.049	99
468.268	103
468.488	85
468.707	94
468.927	79
469.146	95
469.365	106
469.585	101
469.804	101
470.023	94
470.243	97
470.462	88
470.681	114
470.901	100
471.12	92
471.339	108
471.558	117
471.777	118
471.997	102
472.216	95
472.435	94
472.654	105
472.873	93
473.092	95
473.311	84
473.53	90
473.749	103
473.968	102
474.187	93
474.406	99
474.625	90
474.844	97
475.063	97
475.282	98
475.501	86
475.72	99
475.939	108
476.158	92
476.377	100
476.596	94
476.814	88
477.033	98
477.252	108
477.471	86
477.69	89
477.908	93
478.127	98
478.346	96
478.564	89
478.783	94
479.002	94
479.22	103
479.439	104
479.658	105
479.876	95
480.095	77
480.313	87
480.532	103
480.751	82
480.969	88
481.188	76
481.406	90
481.624	71
481.843	83
482.061	95
482.28	80
482.498	95
482.717	83
482.935	97
483.153	96
483.372	96
483.59	92
483.808	92
484.027	101
484.245	93
484.463	99
484.681	114
484.9	95
485.118	99
485.336	91
485.554	89
485.772	101
485.99	80
486.209	93
486.427	105
486.645	93
486.863	81
487.081	89
487.299	93
487.517	112
487.735	113
487.953	108
488.171	107
488.389	113
488.607	105
488.825	83
489.043	102
489.261	98
489.479	103
489.696	92
489.914	84
490.132	85
490.35	93
490.568	100
490.786	99
491.003	101
491.221	117
491.439	120
491.657	116
491.874	120
492.092	124
492.31	120
492.527	132
492.745	123
492.963	114
493.18	115
493.398	120
493.615	111
493.833	109
494.05	113
494.268	109
494.485	101
494.703	102
494.92	99
495.138	111
495.355	119
495.573	126
495.79	121
496.008	102
496.225	98
496.442	106
496.66	104
496.877	100
497.094	109
497.312	120
497.529	100
497.746	106
497.963	101
498.181	102
498.398	92
498.615	89
498.832	90
499.049	92
499.267	99
499.484	72
499.701	95
499.918	103
500.135	99
500.352	102
500.569	104
500.786	87
501.003	107
501.22	104
501.437	104
501.654	92
501.871	117
502.088	113
502.305	98
502.522	95
502.739	91
502.956	91
503.172	87
503.389	90
503.606	102
503.823	93
504.04	106
504.256	99
504.473	106
504.69	100
504.907	97
505.123	86
505.34	99
505.557	110
505.773	96
505.99	96
506.207	95
506.423	94
506.64	92
506.856	101
507.073	93
507.289	87
507.506	90
507.722	74
507.939	81
508.155	93
508.372	89
508.588	82
508.805	92
509.021	88
509.238	92
509.454	83
509.67	88
509.887	85
510.103	76
510.319	80
510.536	81
510.752	88
510.968	89
511.184	75
511.401	87
511.617	88
511.833	88
512.049	86
512.265	101
512.481	95
512.698	98
512.914	74
513.13	92
513.346	91
513.562	82
513.778	91
513.994	94
514.21	85
514.426	85
514.642	80
514.858	91
515.074	83
515.29	81
515.506	84
515.721	90
515.937	88
516.153	87
516.369	82
516.585	65
516.801	72
517.016	74
517.232	88
517.448	77
517.664	93
517.879	73
518.095	81
518.311	72
518.527	82
518.742	94
518.958	86
519.173	90
519.389	95
519.605	95
519.82	93
520.036	98
520.251	83
520.467	94
520.682	78
520.898	82
521.113	87
521.329	85
521.544	91
521.76	82
521.975	91
522.19	88
522.406	93
522.621	95
522.836	86
523.052	76
523.267	83
523.482	90
523.698	82
523.913	99
524.128	90
524.343	81
524.559	88
524.774	89
524.989	98
525.204	84
525.419	96
525.634	98
525.849	96
526.064	91
526.28	80
526.495	83
526.71	87
526.925	73
527.14	69
527.355	95
527.57	81
527.785	90
527.999	103
528.214	80
528.429	81
528.644	112
528.859	101
529.074	104
529.289	96
529.503	100
529.718	107
529.933	102
530.148	82
530.363	70
530.577	84
530.792	84
531.007	85
531.221	92
531.436	65
531.651	90
531.865	99
532.08	73
532.295	86
532.509	81
532.724	72
532.938	85
533.153	85
533.367	94
533.582	85
533.796	90
534.011	90
534.225	83
534.44	72
534.654	67
534.868	89
535.083	76
535.297	103
535.511	102
535.726	93
535.94	90
536.154	92
536.369	90
536.583	86
536.797	93
537.011	84
537.225	87
537.44	88
537.654	79
537.868	105
538.082	75
538.296	72
538.51	88
538.724	80
538.938	85
539.153	93
539.367	100
539.581	96
539.795	106
540.009	72
540.222	85
540.436	95
540.65	100
540.864	93
541.078	101
541.292	98
541.506	106
541.72	119
541.934	117
542.147	121
542.361	119
542.575	108
542.789	107
543.002	95
543.216	106
543.43	97
543.644	90
543.857	98
544.071	90
544.285	109
544.498	103
544.712	117
544.925	99
545.139	99
545.352	111
545.566	113
545.779	111
545.993	112
546.206	96
546.42	112
546.633	120
546.847	107
547.06	113
547.274	104
547.487	113
547.7	125
547.914	109
548.127	112
548.34	107
548.554	113
548.767	120
548.98	111
549.193	111
549.407	106
549.62	118
549.833	111
550.046	115
550.259	112
550.473	113
550.686	109
550.899	99
551.112	107
551.325	103
551.538	96
551.751	92
551.964	84
552.177	117
552.39	102
552.603	108
552.816	108
553.029	107
553.242	109
553.455	95
553.667	116
553.88	100
554.093	96
554.306	99
554.519	95
554.732	96
554.944	109
555.157	119
555.37	102
555.583	101
555.795	89
556.008	91
556.221	110
556.433	102
556.646	92
556.859	96
557.071	104
557.284	100
557.496	116
557.709	111
557.921	100
558.134	98
558.346	103
558.559	99
558.771	98
558.984	100
559.196	104
559.409	97
559.621	88
559.833	105
560.046	102
560.258	106
560.47	102
560.683	99
560.895	94
561.107	104
561.32	106
561.532	101
561.744	112
561.956	103
562.168	91
562.381	106
562.593	98
562.805	94
563.017	105
563.229	81
563.441	86
563.653	84
563.865	95
564.077	95
564.289	98
564.501	77
564.713	96
564.925	93
565.137	99
565.349	98
565.561	82
565.773	102
565.985	106
566.197	85
566.408	100
566.62	99
566.832	87
567.044	91
567.255	90
567.467	86
567.679	100
567.891	97
568.102	88
568.314	80
568.526	86
568.737	97
568.949	78
569.161	91
569.372	84
569.584	80
569.795	73
570.007	86
570.218	76
570.43	85
570.641	80
570.853	83
571.064	87
571.276	108
571.487	100
571.698	86
571.91	75
572.121	87
572.333	96
572.544	90
572.755	105
572.966	69
573.178	89
573.389	92
573.6	76
573.811	95
574.023	75
574.234	79
574.445	91
574.656	86
574.867	96
575.078	88
575.289	93
575.501	83
575.712	91
575.923	77
576.134	99
576.345	97
576.556	96
576.767	94
576.978	104
577.188	86
577.399	86
577.61	90
577.821	69
578.032	89
578.243	80
578.454	86
578.665	83
578.875	80
579.086	86
579.297	84
579.508	88
579.718	89
579.929	85
580.14	82
580.35	95
580.561	75
580.772	84
580.982	91
581.193	91
581.403	90
581.614	84
581.825	86
582.035	90
582.246	90
582.456	92
582.667	76
582.877	77
583.087	95
583.298	95
583.508	82
583.719	88
583.929	87
584.139	75
584.35	82
584.56	84
584.77	90
584.981	77
585.191	101
585.401	100
585.611	97
585.821	93
586.032	93
586.242	78
586.452	79
586.662	69
586.872	85
587.082	86
587.292	87
587.502	75
587.713	78
587.923	85
588.133	84
588.343	90
588.553	92
588.762	78
588.972	81
589.182	81
589.392	91
589.602	82
589.812	74
590.022	81
590.232	84
590.441	86
590.651	84
590.861	86
591.071	84
591.281	89
591.49	84
591.7	78
591.91	92
592.119	86
592.329	85
592.539	79
592.748	73
592.958	85
593.167	92
593.377	81
593.587	100
593.796	78
594.006	91
594.215	82
594.424	83
594.634	90
594.843	88
595.053	85
595.262	94
595.472	82
595.681	90
595.89	82
596.1	78
596.309	83
596.518	82
596.727	92
596.937	88
597.146	81
597.355	99
597.564	100
597.774	91
597.983	84
598.192	73
598.401	82
598.61	79
598.819	98
599.028	92
599.237	85
599.446	88
599.655	88
599.864	91
600.073	85
600.282	97
600.491	86
600.7	77
600.909	111
601.118	91
601.327	78
601.536	92
601.745	93
601.953	97
602.162	89
602.371	101
602.58	96
602.789	95
602.997	88
603.206	86
603.415	94
603.623	92
603.832	84
604.041	101
604.249	85
604.458	93
604.666	88
604.875	84
605.084	94
605.292	81
605.501	102
605.709	98
605.918	95
606.126	95
606.334	101
606.543	108
606.751	92
606.96	95
607.168	96
607.376	83
607.585	93
607.793	84
608.001	93
608.21	82
608.418	95
608.626	85
608.834	87
609.043	90
609.251	91
609.459	87
609.667	103
609.875	91
610.083	95
610.291	92
610.499	95
610.707	95
610.916	95
611.124	89
611.332	98
611.54	104
611.748	90
611.955	97
612.163	97
612.371	88
612.579	78
612.787	95
612.995	90
613.203	107
613.411	92
613.618	91
613.826	98
614.034	86
614.242	87
614.449	102
614.657	94
614.865	123
615.072	94
615.28	97
615.488	101
615.695	85
615.903	102
616.111	91
616.318	90
616.526	96
616.733	97
616.941	94
617.148	88
617.356	92
617.563	100
617.771	107
617.978	85
618.185	98
618.393	100
618.6	88
618.807	104
619.015	97
619.222	87
619.429	99
619.637	86
619.844	96
620.051	91
620.258	99
620.466	103
620.673	83
620.88	103
621.087	90
621.294	79
621.501	81
621.708	98
621.915	93
622.122	97
622.329	95
622.536	110
622.743	91
622.95	93
623.157	88
623.364	81
623.571	91
623.778	93
623.985	103
624.192	105
624.399	99
624.606	99
624.812	88
625.019	89
625.226	88
625.433	88
625.639	86
625.846	80
626.053	97
626.259	92
626.466	94
626.673	89
626.879	84
627.086	83
627.293	101
627.499	84
627.706	77
627.912	103
628.119	81
628.325	106
628.532	96
628.738	78
628.945	99
629.151	89
629.357	88
629.564	87
629.77	79
629.976	74
630.183	92
630.389	90
630.595	90
630.802	92
631.008	85
631.214	84
631.42	93
631.627	98
631.833	69
632.039	97
632.245	97
632.451	92
632.657	86
632.863	92
633.069	92
633.275	87
633.481	96
633.688	91
633.893	101
634.099	84
634.305	78
634.511	99
634.717	104
634.923	99
635.129	88
635.335	83
635.541	92
635.747	100
635.952	88
636.158	85
636.364	90
636.57	82
636.775	97
636.981	85
637.187	83
637.392	82
637.598	79
637.804	99
638.009	92
638.215	90
638.421	90
638.626	76
638.832	83
639.037	88
639.243	86
639.448	81
639.654	94
639.859	87
640.065	105
640.27	99
640.475	94
640.681	93
640.886	88
641.091	85
641.297	88
641.502	97
641.707	95
641.913	87
642.118	81
642.323	101
642.528	91
642.733	88
642.939	101
643.144	104
643.349	83
643.554	87
643.759	100
643.964	94
644.169	98
644.374	91
644.579	93
644.784	95
644.989	86
645.194	102
645.399	93
645.604	79
645.809	90
646.014	87
646.219	83
646.423	90
646.628	72
646.833	79
647.038	86
647.243	89
647.447	87
647.652	79
647.857	90
648.062	113
648.266	84
648.471	95
648.676	89
648.88	108
649.085	89
649.289	101
649.494	71
649.698	96
649.903	85
650.107	105
650.312	88
650.516	72
650.721	82
650.925	86
651.13	82
651.334	98
651.539	83
651.743	90
651.947	102
652.152	84
652.356	87
652.56	98
652.764	98
652.969	83
653.173	83
653.377	84
653.581	94
653.785	88
653.99	70
654.194	86
654.398	94
654.602	72
654.806	77
655.01	94
655.214	86
655.418	75
655.622	88
655.826	81
656.03	90
656.234	93
656.438	90
656.642	88
656.846	82
657.049	77
657.253	88
657.457	101
657.661	82
657.865	90
658.068	89
658.272	87
658.476	87
658.68	80
658.883	78
659.087	84
659.291	76
659.494	90
659.698	83
659.901	84
660.105	76
660.309	74
660.512	89
660.716	86
660.919	85
661.123	84
661.326	79
661.53	87
661.733	75
661.936	96
662.14	80
662.343	95
662.546	86
662.75	84
662.953	87
663.156	74
663.36	72
663.563	90
663.766	78
663.969	89
664.173	83
664.376	98
664.579	92
664.782	85
664.985	92
665.188	89
665.391	88
665.594	86
665.797	84
666	92
666.203	96
666.406	91
666.609	79
666.812	79
667.015	75
667.218	89
667.421	77
667.624	79
667.827	90
668.03	66
668.232	68
668.435	81
668.638	81
668.841	81
669.043	87
669.246	82
669.449	80
669.651	83
669.854	79
670.057	96
670.259	84
670.462	80
670.665	95
670.867	89
671.07	96
671.272	92
671.475	86
671.677	76
671.88	81
672.082	92
672.284	83
672.487	85
672.689	84
672.892	87
