Data from Location3.07152019.Energy5.Lamp.07192019.3%Agarose_HRD10591_15-18-48-269.txt Node
Date: Fri Jul 19 15:18:48 EDT 2019
User: cochatt
Spectrometer: HR+D1059
Trigger mode: 1
Integration Time (sec): 1.000000E-1
Scans to average: 1
Electric dark correction enabled: true
Nonlinearity correction enabled: false
Boxcar width: 0
XAxis mode: Wavelengths
Number of Pixels in Spectrum: 2048
>>>>>Begin Spectral Data<<<<<
223.165	-8
223.4	-8
223.635	-8
223.869	-1
224.104	-15
224.338	-13
224.573	-13
224.808	-3
225.042	-21
225.277	-7
225.511	-5
225.746	-1
225.98	6
226.215	13
226.449	16
226.683	11
226.918	12
227.152	29
227.387	51
227.621	42
227.856	53
228.09	52
228.324	56
228.559	60
228.793	68
229.027	75
229.262	72
229.496	64
229.73	76
229.964	63
230.199	70
230.433	80
230.667	84
230.901	80
231.136	62
231.37	77
231.604	77
231.838	83
232.072	81
232.306	93
232.541	82
232.775	75
233.009	74
233.243	79
233.477	77
233.711	94
233.945	91
234.179	84
234.413	93
234.647	86
234.881	87
235.115	83
235.349	73
235.583	76
235.817	82
236.051	83
236.285	81
236.519	83
236.753	82
236.987	74
237.221	88
237.455	92
237.689	84
237.922	83
238.156	70
238.39	79
238.624	81
238.858	75
239.091	77
239.325	95
239.559	77
239.793	68
240.027	83
240.26	80
240.494	86
240.728	80
240.961	72
241.195	79
241.429	76
241.662	77
241.896	78
242.13	82
242.363	77
242.597	102
242.83	85
243.064	77
243.298	85
243.531	86
243.765	73
243.998	79
244.232	96
244.465	66
244.699	70
244.932	76
245.166	81
245.399	83
245.633	80
245.866	81
246.099	81
246.333	71
246.566	78
246.8	85
247.033	80
247.266	65
247.5	68
247.733	85
247.966	99
248.2	80
248.433	82
248.666	81
248.899	92
249.133	83
249.366	81
249.599	85
249.832	79
250.066	90
250.299	77
250.532	82
250.765	76
250.998	69
251.231	74
251.465	68
251.698	83
251.931	82
252.164	79
252.397	76
252.63	70
252.863	68
253.096	80
253.329	92
253.562	84
253.795	72
254.028	85
254.261	79
254.494	72
254.727	90
254.96	83
255.193	83
255.426	76
255.659	81
255.892	95
256.124	84
256.357	73
256.59	73
256.823	86
257.056	76
257.289	100
257.521	74
257.754	84
257.987	90
258.22	89
258.452	85
258.685	95
258.918	74
259.151	81
259.383	81
259.616	82
259.849	75
260.081	89
260.314	93
260.547	75
260.779	74
261.012	86
261.244	75
261.477	83
261.71	77
261.942	80
262.175	83
262.407	101
262.64	85
262.872	80
263.105	78
263.337	71
263.57	83
263.802	79
264.035	89
264.267	80
264.499	77
264.732	92
264.964	97
265.197	81
265.429	83
265.661	73
265.894	82
266.126	81
266.358	80
266.591	92
266.823	87
267.055	87
267.287	94
267.52	94
267.752	90
267.984	75
268.216	68
268.448	76
268.681	87
268.913	82
269.145	88
269.377	81
269.609	79
269.841	85
270.073	83
270.306	80
270.538	79
270.77	71
271.002	94
271.234	76
271.466	83
271.698	93
271.93	87
272.162	99
272.394	78
272.626	95
272.858	93
273.09	88
273.322	87
273.553	72
273.785	84
274.017	81
274.249	89
274.481	83
274.713	79
274.945	80
275.176	71
275.408	73
275.64	82
275.872	89
276.104	92
276.335	84
276.567	78
276.799	82
277.031	97
277.262	91
277.494	82
277.726	81
277.957	85
278.189	80
278.421	84
278.652	79
278.884	90
279.115	83
279.347	68
279.579	83
279.81	83
280.042	85
280.273	94
280.505	83
280.736	81
280.968	73
281.199	76
281.431	89
281.662	87
281.894	88
282.125	95
282.356	81
282.588	81
282.819	83
283.051	77
283.282	95
283.513	91
283.745	91
283.976	85
284.207	87
284.439	96
284.67	86
284.901	74
285.132	87
285.364	90
285.595	103
285.826	93
286.057	85
286.288	76
286.52	84
286.751	87
286.982	75
287.213	71
287.444	84
287.675	84
287.906	80
288.138	83
288.369	94
288.6	76
288.831	94
289.062	85
289.293	90
289.524	81
289.755	83
289.986	82
290.217	80
290.448	89
290.679	87
290.91	84
291.141	83
291.371	90
291.602	101
291.833	89
292.064	84
292.295	84
292.526	81
292.757	77
292.987	95
293.218	92
293.449	84
293.68	102
293.91	89
294.141	81
294.372	82
294.603	82
294.833	99
295.064	73
295.295	87
295.525	83
295.756	89
295.987	74
296.217	78
296.448	84
296.679	85
296.909	81
297.14	79
297.37	77
297.601	68
297.831	81
298.062	90
298.292	75
298.523	95
298.753	77
298.984	86
299.214	86
299.445	88
299.675	93
299.905	84
300.136	77
300.366	81
300.597	74
300.827	92
301.057	89
301.288	94
301.518	88
301.748	83
301.979	97
302.209	90
302.439	89
302.669	91
302.9	93
303.13	97
303.36	90
303.59	87
303.82	89
304.051	91
304.281	81
304.511	80
304.741	76
304.971	84
305.201	86
305.431	81
305.661	77
305.891	77
306.121	91
306.352	79
306.582	87
306.812	92
307.042	97
307.272	76
307.502	95
307.731	85
307.961	77
308.191	83
308.421	86
308.651	89
308.881	92
309.111	85
309.341	68
309.571	91
309.8	76
310.03	73
310.26	95
310.49	97
310.72	73
310.949	94
311.179	89
311.409	77
311.639	87
311.868	70
312.098	83
312.328	96
312.557	90
312.787	79
313.017	82
313.246	72
313.476	79
313.706	96
313.935	101
314.165	81
314.394	86
314.624	86
314.853	96
315.083	83
315.312	85
315.542	89
315.771	98
316.001	85
316.23	89
316.46	100
316.689	73
316.919	87
317.148	84
317.377	80
317.607	94
317.836	87
318.065	81
318.295	85
318.524	80
318.753	77
318.983	83
319.212	88
319.441	95
319.67	81
319.9	97
320.129	86
320.358	102
320.587	85
320.816	93
321.046	75
321.275	83
321.504	74
321.733	85
321.962	83
322.191	82
322.42	95
322.649	111
322.878	96
323.108	83
323.337	80
323.566	79
323.795	85
324.024	75
324.253	89
324.482	88
324.71	86
324.939	98
325.168	72
325.397	82
325.626	92
325.855	75
326.084	88
326.313	95
326.542	81
326.77	86
326.999	82
327.228	77
327.457	72
327.686	87
327.914	90
328.143	95
328.372	90
328.6	83
328.829	89
329.058	75
329.287	100
329.515	89
329.744	90
329.972	72
330.201	94
330.43	88
330.658	81
330.887	94
331.115	87
331.344	87
331.572	98
331.801	93
332.03	88
332.258	91
332.486	74
332.715	80
332.943	85
333.172	79
333.4	81
333.629	80
333.857	73
334.085	94
334.314	83
334.542	98
334.771	77
334.999	106
335.227	78
335.455	84
335.684	80
335.912	71
336.14	85
336.369	75
336.597	91
336.825	90
337.053	72
337.281	95
337.51	84
337.738	90
337.966	102
338.194	86
338.422	103
338.65	99
338.878	93
339.106	74
339.334	92
339.562	80
339.79	87
340.018	83
340.246	75
340.474	75
340.702	80
340.93	81
341.158	93
341.386	81
341.614	98
341.842	93
342.07	75
342.298	81
342.526	82
342.754	82
342.981	77
343.209	83
343.437	80
343.665	87
343.893	88
344.12	92
344.348	88
344.576	82
344.804	97
345.031	79
345.259	90
345.487	85
345.714	83
345.942	79
346.17	78
346.397	71
346.625	74
346.853	84
347.08	84
347.308	84
347.535	73
347.763	81
347.99	75
348.218	86
348.445	85
348.673	89
348.9	70
349.128	94
349.355	78
349.583	88
349.81	108
350.037	88
350.265	84
350.492	88
350.72	77
350.947	93
351.174	67
351.402	77
351.629	93
351.856	89
352.083	80
352.311	86
352.538	61
352.765	90
352.992	102
353.22	66
353.447	85
353.674	77
353.901	82
354.128	92
354.355	79
354.583	83
354.81	66
355.037	79
355.264	78
355.491	89
355.718	84
355.945	88
356.172	104
356.399	96
356.626	87
356.853	96
357.08	97
357.307	69
357.534	88
357.761	85
357.988	92
358.215	91
358.441	73
358.668	83
358.895	83
359.122	88
359.349	78
359.576	81
359.802	86
360.029	77
360.256	84
360.483	93
360.709	88
360.936	89
361.163	87
361.39	92
361.616	72
361.843	74
362.07	81
362.296	90
362.523	84
362.749	82
362.976	73
363.203	87
363.429	78
363.656	99
363.882	87
364.109	85
364.335	73
364.562	87
364.788	71
365.015	74
365.241	87
365.468	95
365.694	88
365.92	83
366.147	98
366.373	76
366.599	85
366.826	90
367.052	81
367.278	81
367.505	91
367.731	93
367.957	87
368.184	76
368.41	88
368.636	80
368.862	84
369.089	91
369.315	71
369.541	81
369.767	96
369.993	89
370.219	90
370.445	89
370.672	94
370.898	91
371.124	83
371.35	91
371.576	86
371.802	86
372.028	90
372.254	80
372.48	90
372.706	81
372.932	93
373.158	90
373.384	87
373.61	88
373.835	76
374.061	94
374.287	91
374.513	97
374.739	81
374.965	100
375.191	95
375.416	84
375.642	96
375.868	91
376.094	87
376.319	86
376.545	89
376.771	90
376.997	86
377.222	89
377.448	85
377.674	85
377.899	76
378.125	69
378.35	79
378.576	68
378.802	85
379.027	91
379.253	91
379.478	85
379.704	87
379.929	83
380.155	85
380.38	84
380.606	88
380.831	85
381.057	88
381.282	78
381.507	92
381.733	104
381.958	77
382.184	90
382.409	86
382.634	87
382.86	93
383.085	90
383.31	72
383.535	99
383.761	89
383.986	83
384.211	87
384.436	85
384.662	82
384.887	83
385.112	89
385.337	89
385.562	90
385.787	83
386.013	95
386.238	94
386.463	89
386.688	86
386.913	87
387.138	89
387.363	92
387.588	88
387.813	79
388.038	89
388.263	88
388.488	93
388.713	88
388.938	83
389.163	83
389.387	83
389.612	84
389.837	86
390.062	92
390.287	88
390.512	86
390.736	77
390.961	84
391.186	87
391.411	107
391.636	99
391.86	93
392.085	86
392.31	74
392.534	102
392.759	95
392.984	99
393.208	103
393.433	100
393.658	83
393.882	94
394.107	98
394.331	90
394.556	85
394.78	95
395.005	91
395.229	93
395.454	84
395.678	81
395.903	87
396.127	79
396.352	89
396.576	98
396.801	88
397.025	92
397.249	91
397.474	100
397.698	90
397.922	91
398.147	80
398.371	101
398.595	96
398.82	93
399.044	98
399.268	85
399.492	91
399.717	100
399.941	97
400.165	93
400.389	104
400.613	86
400.837	85
401.062	88
401.286	100
401.51	89
401.734	81
401.958	89
402.182	98
402.406	102
402.63	83
402.854	73
403.078	83
403.302	77
403.526	94
403.75	100
403.974	82
404.198	99
404.422	88
404.645	95
404.869	85
405.093	86
405.317	88
405.541	85
405.765	82
405.988	87
406.212	98
406.436	85
406.66	96
406.883	101
407.107	91
407.331	95
407.555	87
407.778	79
408.002	97
408.226	84
408.449	99
408.673	81
408.896	90
409.12	80
409.344	84
409.567	87
409.791	87
410.014	96
410.238	83
410.461	102
410.685	74
410.908	96
411.132	89
411.355	92
411.578	100
411.802	88
412.025	98
412.249	81
412.472	87
412.695	97
412.919	85
413.142	96
413.365	90
413.589	99
413.812	87
414.035	97
414.258	100
414.482	90
414.705	87
414.928	103
415.151	89
415.374	96
415.597	88
415.821	103
416.044	103
416.267	102
416.49	97
416.713	106
416.936	67
417.159	69
417.382	88
417.605	104
417.828	92
418.051	95
418.274	106
418.497	97
418.72	99
418.943	102
419.166	97
419.389	101
419.611	92
419.834	87
420.057	85
420.28	90
420.503	99
420.726	100
420.948	97
421.171	107
421.394	114
421.617	93
421.839	89
422.062	91
422.285	95
422.507	87
422.73	91
422.953	92
423.175	89
423.398	95
423.621	91
423.843	95
424.066	97
424.288	87
424.511	102
424.733	97
424.956	119
425.178	99
425.401	81
425.623	112
425.846	95
426.068	89
426.291	104
426.513	91
426.735	91
426.958	90
427.18	97
427.402	96
427.625	83
427.847	92
428.069	99
428.292	86
428.514	100
428.736	97
428.958	101
429.181	97
429.403	100
429.625	94
429.847	95
430.069	84
430.292	109
430.514	86
430.736	94
430.958	101
431.18	89
431.402	88
431.624	91
431.846	88
432.068	90
432.29	95
432.512	69
432.734	102
432.956	85
433.178	92
433.4	98
433.622	123
433.844	105
434.066	93
434.287	90
434.509	99
434.731	86
434.953	87
435.175	88
435.397	83
435.618	93
435.84	90
436.062	98
436.284	107
436.505	86
436.727	107
436.949	102
437.17	106
437.392	87
437.614	84
437.835	95
438.057	85
438.278	98
438.5	95
438.721	85
438.943	94
439.165	99
439.386	103
439.608	100
439.829	96
440.05	102
440.272	103
440.493	100
440.715	112
440.936	98
441.158	103
441.379	93
441.6	108
441.822	90
442.043	110
442.264	108
442.486	113
442.707	98
442.928	105
443.149	89
443.371	86
443.592	99
443.813	99
444.034	79
444.255	104
444.476	92
444.698	105
444.919	90
445.14	244
445.361	161
445.582	91
445.803	92
446.024	81
446.245	104
446.466	110
446.687	92
446.908	101
447.129	106
447.35	87
447.571	98
447.792	101
448.013	91
448.234	99
448.455	100
448.675	105
448.896	87
449.117	95
449.338	98
449.559	100
449.779	96
450	102
450.221	94
450.442	78
450.662	95
450.883	101
451.104	111
451.324	102
451.545	101
451.766	99
451.986	94
452.207	103
452.428	95
452.648	107
452.869	84
453.089	90
453.31	84
453.53	83
453.751	92
453.971	89
454.192	75
454.412	93
454.633	92
454.853	123
455.073	85
455.294	106
455.514	82
455.734	105
455.955	97
456.175	84
456.395	100
456.616	92
456.836	102
457.056	98
457.276	103
457.497	104
457.717	85
457.937	94
458.157	102
458.377	89
458.598	87
458.818	79
459.038	84
459.258	62
459.478	76
459.698	84
459.918	83
460.138	85
460.358	83
460.578	89
460.798	89
461.018	82
461.238	101
461.458	88
461.678	91
461.898	89
462.118	101
462.338	92
462.558	114
462.777	94
462.997	104
463.217	93
463.437	93
463.657	78
463.876	90
464.096	102
464.316	100
464.536	100
464.755	86
464.975	81
465.195	98
465.414	86
465.634	91
465.854	103
466.073	97
466.293	97
466.512	92
466.732	101
466.951	82
467.171	96
467.391	87
467.61	92
467.829	101
468.049	77
468.268	97
468.488	100
468.707	96
468.927	83
469.146	94
469.365	93
469.585	96
469.804	85
470.023	96
470.243	99
470.462	118
470.681	113
470.901	101
471.12	88
471.339	101
471.558	94
471.777	85
471.997	99
472.216	74
472.435	102
472.654	100
472.873	81
473.092	86
473.311	90
473.53	88
473.749	106
473.968	83
474.187	92
474.406	97
474.625	98
474.844	108
475.063	111
475.282	114
475.501	90
475.72	84
475.939	92
476.158	97
476.377	100
476.596	97
476.814	79
477.033	80
477.252	94
477.471	92
477.69	97
477.908	107
478.127	97
478.346	104
478.564	93
478.783	91
479.002	108
479.22	102
479.439	81
479.658	104
479.876	80
480.095	100
480.313	89
480.532	88
480.751	85
480.969	82
481.188	82
481.406	90
481.624	84
481.843	91
482.061	90
482.28	99
482.498	94
482.717	108
482.935	91
483.153	118
483.372	92
483.59	95
483.808	98
484.027	104
484.245	104
484.463	89
484.681	119
484.9	109
485.118	108
485.336	97
485.554	85
485.772	79
485.99	92
486.209	94
486.427	85
486.645	100
486.863	96
487.081	112
487.299	95
487.517	105
487.735	111
487.953	118
488.171	111
488.389	111
488.607	96
488.825	89
489.043	104
489.261	102
489.479	108
489.696	114
489.914	98
490.132	101
490.35	121
490.568	121
490.786	113
491.003	112
491.221	96
491.439	122
491.657	127
491.874	139
492.092	128
492.31	133
492.527	115
492.745	119
492.963	112
493.18	110
493.398	114
493.615	114
493.833	113
494.05	112
494.268	115
494.485	94
494.703	117
494.92	111
495.138	124
495.355	119
495.573	103
495.79	95
496.008	105
496.225	102
496.442	111
496.66	125
496.877	101
497.094	104
497.312	103
497.529	97
497.746	109
497.963	96
498.181	94
498.398	75
498.615	99
498.832	111
499.049	110
499.267	103
499.484	93
499.701	99
499.918	99
500.135	92
500.352	93
500.569	99
500.786	90
501.003	81
501.22	115
501.437	115
501.654	104
501.871	90
502.088	96
502.305	114
502.522	97
502.739	108
502.956	96
503.172	87
503.389	115
503.606	96
503.823	90
504.04	85
504.256	94
504.473	106
504.69	87
504.907	93
505.123	88
505.34	93
505.557	88
505.773	99
505.99	109
506.207	95
506.423	103
506.64	85
506.856	89
507.073	92
507.289	89
507.506	93
507.722	100
507.939	101
508.155	101
508.372	105
508.588	95
508.805	85
509.021	90
509.238	84
509.454	97
509.67	95
509.887	87
510.103	76
510.319	85
510.536	92
510.752	97
510.968	86
511.184	93
511.401	84
511.617	87
511.833	100
512.049	97
512.265	83
512.481	83
512.698	89
512.914	92
513.13	92
513.346	86
513.562	101
513.778	97
513.994	95
514.21	75
514.426	103
514.642	89
514.858	89
515.074	91
515.29	77
515.506	81
515.721	81
515.937	65
516.153	90
516.369	88
516.585	83
516.801	81
517.016	83
517.232	91
517.448	91
517.664	88
517.879	85
518.095	88
518.311	103
518.527	94
518.742	100
518.958	90
519.173	83
519.389	96
519.605	95
519.82	90
520.036	95
520.251	86
520.467	83
520.682	103
520.898	90
521.113	93
521.329	85
521.544	89
521.76	83
521.975	97
522.19	97
522.406	85
522.621	84
522.836	83
523.052	88
523.267	106
523.482	88
523.698	86
523.913	98
524.128	95
524.343	91
524.559	93
524.774	94
524.989	95
525.204	91
525.419	92
525.634	78
525.849	99
526.064	102
526.28	82
526.495	86
526.71	90
526.925	97
527.14	94
527.355	86
527.57	94
527.785	95
527.999	70
528.214	91
528.429	89
528.644	81
528.859	116
529.074	103
529.289	114
529.503	105
529.718	90
529.933	101
530.148	103
530.363	75
530.577	89
530.792	87
531.007	85
531.221	88
531.436	74
531.651	88
531.865	93
532.08	93
532.295	71
532.509	94
532.724	70
532.938	73
533.153	90
533.367	94
533.582	77
533.796	106
534.011	87
534.225	88
534.44	85
534.654	91
534.868	88
535.083	79
535.297	87
535.511	102
535.726	102
535.94	82
536.154	85
536.369	91
536.583	84
536.797	92
537.011	84
537.225	77
537.44	79
537.654	77
537.868	68
538.082	87
538.296	83
538.51	105
538.724	110
538.938	91
539.153	114
539.367	104
539.581	111
539.795	93
540.009	112
540.222	98
540.436	92
540.65	90
540.864	95
541.078	93
541.292	99
541.506	119
541.72	129
541.934	123
542.147	119
542.361	121
542.575	109
542.789	123
543.002	100
543.216	101
543.43	98
543.644	104
543.857	104
544.071	102
544.285	103
544.498	118
544.712	101
544.925	107
545.139	104
545.352	106
545.566	103
545.779	109
545.993	103
546.206	108
546.42	107
546.633	117
546.847	106
547.06	111
547.274	123
547.487	109
547.7	113
547.914	124
548.127	111
548.34	104
548.554	111
548.767	104
548.98	104
549.193	114
549.407	99
549.62	113
549.833	128
550.046	106
550.259	107
550.473	112
550.686	119
550.899	105
551.112	105
551.325	88
551.538	95
551.751	98
551.964	84
552.177	93
552.39	101
552.603	111
552.816	107
553.029	117
553.242	124
553.455	114
553.667	99
553.88	91
554.093	118
554.306	96
554.519	113
554.732	104
554.944	103
555.157	121
555.37	102
555.583	89
555.795	108
556.008	96
556.221	101
556.433	94
556.646	96
556.859	96
557.071	112
557.284	99
557.496	101
557.709	104
557.921	91
558.134	107
558.346	113
558.559	103
558.771	111
558.984	103
559.196	102
559.409	92
559.621	102
559.833	85
560.046	91
560.258	92
560.47	102
560.683	118
560.895	94
561.107	85
561.32	96
561.532	103
561.744	95
561.956	104
562.168	100
562.381	104
562.593	84
562.805	131
563.017	105
563.229	102
563.441	102
563.653	98
563.865	104
564.077	100
564.289	112
564.501	97
564.713	105
564.925	91
565.137	84
565.349	116
565.561	105
565.773	91
565.985	101
566.197	100
566.408	96
566.62	93
566.832	92
567.044	111
567.255	97
567.467	112
567.679	90
567.891	98
568.102	89
568.314	78
568.526	76
568.737	103
568.949	75
569.161	92
569.372	87
569.584	80
569.795	98
570.007	83
570.218	89
570.43	72
570.641	89
570.853	91
571.064	90
571.276	89
571.487	69
571.698	100
571.91	91
572.121	85
572.333	85
572.544	96
572.755	88
572.966	87
573.178	97
573.389	84
573.6	88
573.811	97
574.023	85
574.234	84
574.445	81
574.656	96
574.867	74
575.078	87
575.289	95
575.501	92
575.712	78
575.923	97
576.134	76
576.345	100
576.556	85
576.767	97
576.978	95
577.188	99
577.399	93
577.61	98
577.821	100
578.032	79
578.243	92
578.454	90
578.665	72
578.875	88
579.086	92
579.297	83
579.508	95
579.718	78
579.929	86
580.14	92
580.35	86
580.561	87
580.772	88
580.982	77
581.193	87
581.403	89
581.614	92
581.825	95
582.035	88
582.246	103
582.456	86
582.667	96
582.877	71
583.087	99
583.298	72
583.508	105
583.719	87
583.929	88
584.139	93
584.35	84
584.56	96
584.77	107
584.981	88
585.191	67
585.401	86
585.611	88
585.821	82
586.032	96
586.242	79
586.452	79
586.662	98
586.872	93
587.082	78
587.292	91
587.502	83
587.713	90
587.923	101
588.133	87
588.343	87
588.553	90
588.762	93
588.972	84
589.182	79
589.392	91
589.602	80
589.812	76
590.022	80
590.232	75
590.441	91
590.651	74
590.861	99
591.071	84
591.281	83
591.49	76
591.7	81
591.91	89
592.119	83
592.329	84
592.539	71
592.748	97
592.958	91
593.167	90
593.377	83
593.587	102
593.796	87
594.006	84
594.215	102
594.424	78
594.634	81
594.843	83
595.053	77
595.262	77
595.472	87
595.681	81
595.89	91
596.1	85
596.309	77
596.518	80
596.727	95
596.937	89
597.146	95
597.355	94
597.564	85
597.774	96
597.983	89
598.192	96
598.401	85
598.61	73
598.819	69
599.028	92
599.237	85
599.446	81
599.655	84
599.864	92
600.073	75
600.282	89
600.491	84
600.7	84
600.909	90
601.118	81
601.327	74
601.536	99
601.745	95
601.953	102
602.162	95
602.371	101
602.58	84
602.789	89
602.997	95
603.206	86
603.415	103
603.623	92
603.832	90
604.041	108
604.249	97
604.458	96
604.666	92
604.875	105
605.084	98
605.292	95
605.501	94
605.709	84
605.918	103
606.126	93
606.334	103
606.543	88
606.751	105
606.96	91
607.168	78
607.376	98
607.585	93
607.793	96
608.001	88
608.21	107
608.418	97
608.626	101
608.834	86
609.043	91
609.251	81
609.459	91
609.667	90
609.875	96
610.083	103
610.291	96
610.499	91
610.707	95
610.916	88
611.124	96
611.332	88
611.54	91
611.748	92
611.955	93
612.163	88
612.371	109
612.579	88
612.787	98
612.995	88
613.203	102
613.411	96
613.618	92
613.826	99
614.034	100
614.242	91
614.449	101
614.657	93
614.865	99
615.072	101
615.28	89
615.488	86
615.695	99
615.903	91
616.111	94
616.318	92
616.526	99
616.733	104
616.941	93
617.148	92
617.356	100
617.563	90
617.771	87
617.978	88
618.185	85
618.393	96
618.6	88
618.807	81
619.015	98
619.222	91
619.429	95
619.637	99
619.844	104
620.051	80
620.258	86
620.466	97
620.673	84
620.88	91
621.087	87
621.294	80
621.501	100
621.708	97
621.915	81
622.122	89
622.329	97
622.536	95
622.743	85
622.95	83
623.157	107
623.364	87
623.571	102
623.778	113
623.985	94
624.192	95
624.399	90
624.606	99
624.812	89
625.019	92
625.226	88
625.433	100
625.639	91
625.846	88
626.053	89
626.259	100
626.466	80
626.673	98
626.879	92
627.086	91
627.293	88
627.499	77
627.706	108
627.912	94
628.119	84
628.325	98
628.532	90
628.738	101
628.945	102
629.151	96
629.357	97
629.564	87
629.77	90
629.976	96
630.183	90
630.389	92
630.595	83
630.802	92
631.008	104
631.214	98
631.42	95
631.627	107
631.833	84
632.039	87
632.245	87
632.451	104
632.657	90
632.863	88
633.069	78
633.275	86
633.481	90
633.688	83
633.893	88
634.099	93
634.305	100
634.511	92
634.717	91
634.923	89
635.129	99
635.335	92
635.541	83
635.747	94
635.952	91
636.158	80
636.364	92
636.57	82
636.775	86
636.981	83
637.187	88
637.392	92
637.598	96
637.804	88
638.009	90
638.215	113
638.421	91
638.626	93
638.832	93
639.037	91
639.243	86
639.448	97
639.654	97
639.859	98
640.065	85
640.27	83
640.475	100
640.681	93
640.886	85
641.091	89
641.297	72
641.502	105
641.707	95
641.913	95
642.118	87
642.323	90
642.528	92
642.733	93
642.939	82
643.144	106
643.349	90
643.554	99
643.759	96
643.964	104
644.169	113
644.374	79
644.579	106
644.784	92
644.989	90
645.194	84
645.399	89
645.604	101
645.809	91
646.014	100
646.219	85
646.423	103
646.628	92
646.833	88
647.038	90
647.243	93
647.447	92
647.652	85
647.857	93
648.062	102
648.266	95
648.471	96
648.676	79
648.88	89
649.085	92
649.289	92
649.494	92
649.698	93
649.903	81
650.107	82
650.312	100
650.516	86
650.721	95
650.925	92
651.13	103
651.334	76
651.539	102
651.743	91
651.947	83
652.152	84
652.356	100
652.56	85
652.764	91
652.969	91
653.173	92
653.377	95
653.581	77
653.785	85
653.99	85
654.194	82
654.398	81
654.602	89
654.806	86
655.01	85
655.214	83
655.418	72
655.622	78
655.826	85
656.03	103
656.234	96
656.438	89
656.642	74
656.846	84
657.049	87
657.253	88
657.457	86
657.661	90
657.865	77
658.068	93
658.272	85
658.476	84
658.68	87
658.883	85
659.087	97
659.291	99
659.494	85
659.698	89
659.901	83
660.105	75
660.309	88
660.512	93
660.716	99
660.919	80
661.123	97
661.326	98
661.53	85
661.733	95
661.936	94
662.14	93
662.343	71
662.546	70
662.75	77
662.953	92
663.156	95
663.36	81
663.563	75
663.766	88
663.969	74
664.173	89
664.376	77
664.579	83
664.782	70
664.985	92
665.188	79
665.391	91
665.594	98
665.797	83
666	78
666.203	88
666.406	77
666.609	93
666.812	84
667.015	88
667.218	90
667.421	96
667.624	92
667.827	86
668.03	84
668.232	85
668.435	75
668.638	90
668.841	91
669.043	83
669.246	78
669.449	77
669.651	75
669.854	82
670.057	76
670.259	77
670.462	88
670.665	71
670.867	87
671.07	94
671.272	64
671.475	93
671.677	85
671.88	81
672.082	80
672.284	88
672.487	99
672.689	89
672.892	71
