Data from Location3.07152019.Energy5.Lamp.07192019.3%Agarose_HRD10591_15-19-27-270.txt Node
Date: Fri Jul 19 15:19:27 EDT 2019
User: cochatt
Spectrometer: HR+D1059
Trigger mode: 1
Integration Time (sec): 1.000000E-1
Scans to average: 1
Electric dark correction enabled: true
Nonlinearity correction enabled: false
Boxcar width: 0
XAxis mode: Wavelengths
Number of Pixels in Spectrum: 2048
>>>>>Begin Spectral Data<<<<<
223.165	-16
223.4	-16
223.635	-16
223.869	-14
224.104	-14
224.338	-14
224.573	-15
224.808	-3
225.042	-14
225.277	-7
225.511	-2
225.746	-3
225.98	15
226.215	9
226.449	16
226.683	14
226.918	34
227.152	14
227.387	25
227.621	27
227.856	48
228.09	46
228.324	57
228.559	51
228.793	49
229.027	68
229.262	66
229.496	71
229.73	67
229.964	68
230.199	80
230.433	62
230.667	66
230.901	80
231.136	70
231.37	65
231.604	89
231.838	81
232.072	88
232.306	83
232.541	85
232.775	75
233.009	76
233.243	81
233.477	82
233.711	80
233.945	73
234.179	73
234.413	80
234.647	75
234.881	76
235.115	75
235.349	69
235.583	67
235.817	72
236.051	67
236.285	85
236.519	69
236.753	85
236.987	68
237.221	73
237.455	78
237.689	82
237.922	69
238.156	62
238.39	87
238.624	73
238.858	70
239.091	67
239.325	79
239.559	85
239.793	69
240.027	65
240.26	77
240.494	73
240.728	83
240.961	87
241.195	77
241.429	67
241.662	83
241.896	79
242.13	85
242.363	68
242.597	87
242.83	82
243.064	67
243.298	64
243.531	84
243.765	83
243.998	69
244.232	65
244.465	75
244.699	73
244.932	81
245.166	68
245.399	76
245.633	86
245.866	79
246.099	77
246.333	70
246.566	76
246.8	82
247.033	78
247.266	77
247.5	75
247.733	69
247.966	64
248.2	82
248.433	64
248.666	73
248.899	84
249.133	85
249.366	81
249.599	83
249.832	85
250.066	79
250.299	85
250.532	77
250.765	69
250.998	70
251.231	79
251.465	84
251.698	65
251.931	68
252.164	76
252.397	78
252.63	71
252.863	80
253.096	81
253.329	85
253.562	78
253.795	67
254.028	78
254.261	71
254.494	76
254.727	83
254.96	83
255.193	88
255.426	72
255.659	66
255.892	87
256.124	74
256.357	74
256.59	72
256.823	71
257.056	64
257.289	89
257.521	73
257.754	66
257.987	60
258.22	79
258.452	72
258.685	80
258.918	86
259.151	88
259.383	85
259.616	83
259.849	78
260.081	93
260.314	85
260.547	73
260.779	72
261.012	81
261.244	64
261.477	88
261.71	75
261.942	77
262.175	70
262.407	73
262.64	73
262.872	83
263.105	77
263.337	86
263.57	57
263.802	86
264.035	75
264.267	84
264.499	91
264.732	82
264.964	84
265.197	87
265.429	79
265.661	83
265.894	72
266.126	83
266.358	78
266.591	83
266.823	69
267.055	80
267.287	93
267.52	76
267.752	70
267.984	69
268.216	77
268.448	85
268.681	72
268.913	80
269.145	78
269.377	64
269.609	73
269.841	81
270.073	87
270.306	83
270.538	70
270.77	85
271.002	69
271.234	83
271.466	88
271.698	82
271.93	66
272.162	79
272.394	88
272.626	61
272.858	85
273.09	84
273.322	75
273.553	67
273.785	76
274.017	76
274.249	84
274.481	69
274.713	76
274.945	81
275.176	82
275.408	90
275.64	69
275.872	86
276.104	85
276.335	80
276.567	84
276.799	84
277.031	80
277.262	82
277.494	74
277.726	76
277.957	70
278.189	64
278.421	79
278.652	72
278.884	66
279.115	83
279.347	91
279.579	76
279.81	80
280.042	83
280.273	70
280.505	75
280.736	86
280.968	78
281.199	78
281.431	88
281.662	79
281.894	86
282.125	79
282.356	81
282.588	86
282.819	85
283.051	89
283.282	83
283.513	93
283.745	70
283.976	75
284.207	85
284.439	93
284.67	97
284.901	84
285.132	71
285.364	85
285.595	81
285.826	88
286.057	72
286.288	76
286.52	80
286.751	86
286.982	77
287.213	86
287.444	75
287.675	84
287.906	79
288.138	72
288.369	73
288.6	83
288.831	87
289.062	84
289.293	88
289.524	76
289.755	77
289.986	86
290.217	76
290.448	85
290.679	82
290.91	83
291.141	84
291.371	94
291.602	76
291.833	83
292.064	84
292.295	81
292.526	78
292.757	67
292.987	79
293.218	83
293.449	80
293.68	91
293.91	87
294.141	83
294.372	83
294.603	81
294.833	88
295.064	75
295.295	71
295.525	83
295.756	72
295.987	84
296.217	79
296.448	77
296.679	93
296.909	78
297.14	87
297.37	77
297.601	85
297.831	81
298.062	84
298.292	72
298.523	79
298.753	75
298.984	85
299.214	71
299.445	86
299.675	84
299.905	81
300.136	83
300.366	76
300.597	85
300.827	89
301.057	94
301.288	74
301.518	80
301.748	98
301.979	85
302.209	64
302.439	84
302.669	84
302.9	91
303.13	81
303.36	97
303.59	79
303.82	78
304.051	79
304.281	77
304.511	81
304.741	69
304.971	77
305.201	83
305.431	81
305.661	82
305.891	85
306.121	84
306.352	78
306.582	83
306.812	81
307.042	91
307.272	79
307.502	83
307.731	81
307.961	87
308.191	85
308.421	82
308.651	81
308.881	78
309.111	95
309.341	77
309.571	88
309.8	81
310.03	56
310.26	77
310.49	84
310.72	86
310.949	86
311.179	81
311.409	80
311.639	89
311.868	84
312.098	75
312.328	76
312.557	78
312.787	67
313.017	91
313.246	79
313.476	83
313.706	84
313.935	77
314.165	88
314.394	82
314.624	80
314.853	73
315.083	88
315.312	76
315.542	89
315.771	71
316.001	85
316.23	102
316.46	91
316.689	92
316.919	79
317.148	82
317.377	88
317.607	81
317.836	82
318.065	84
318.295	85
318.524	71
318.753	82
318.983	91
319.212	87
319.441	68
319.67	81
319.9	85
320.129	82
320.358	76
320.587	74
320.816	84
321.046	97
321.275	73
321.504	90
321.733	77
321.962	94
322.191	84
322.42	96
322.649	91
322.878	91
323.108	87
323.337	86
323.566	82
323.795	79
324.024	80
324.253	75
324.482	85
324.71	85
324.939	83
325.168	79
325.397	83
325.626	92
325.855	90
326.084	81
326.313	89
326.542	84
326.77	91
326.999	81
327.228	82
327.457	73
327.686	78
327.914	79
328.143	89
328.372	84
328.6	78
328.829	99
329.058	68
329.287	72
329.515	88
329.744	86
329.972	76
330.201	78
330.43	88
330.658	83
330.887	82
331.115	87
331.344	85
331.572	92
331.801	77
332.03	86
332.258	70
332.486	84
332.715	77
332.943	78
333.172	88
333.4	93
333.629	84
333.857	81
334.085	86
334.314	84
334.542	79
334.771	82
334.999	84
335.227	77
335.455	76
335.684	80
335.912	92
336.14	83
336.369	82
336.597	83
336.825	92
337.053	72
337.281	77
337.51	67
337.738	71
337.966	75
338.194	71
338.422	86
338.65	83
338.878	97
339.106	89
339.334	90
339.562	72
339.79	80
340.018	78
340.246	82
340.474	95
340.702	83
340.93	73
341.158	85
341.386	79
341.614	75
341.842	87
342.07	86
342.298	89
342.526	81
342.754	78
342.981	77
343.209	87
343.437	68
343.665	78
343.893	85
344.12	71
344.348	91
344.576	73
344.804	97
345.031	78
345.259	83
345.487	70
345.714	86
345.942	88
346.17	93
346.397	89
346.625	78
346.853	75
347.08	81
347.308	77
347.535	75
347.763	86
347.99	83
348.218	66
348.445	80
348.673	78
348.9	87
349.128	76
349.355	86
349.583	82
349.81	98
350.037	91
350.265	89
350.492	92
350.72	77
350.947	59
351.174	79
351.402	85
351.629	79
351.856	94
352.083	73
352.311	88
352.538	83
352.765	60
352.992	96
353.22	77
353.447	81
353.674	98
353.901	96
354.128	93
354.355	93
354.583	78
354.81	69
355.037	72
355.264	82
355.491	71
355.718	65
355.945	71
356.172	69
356.399	76
356.626	87
356.853	80
357.08	83
357.307	75
357.534	92
357.761	82
357.988	76
358.215	73
358.441	72
358.668	82
358.895	81
359.122	70
359.349	82
359.576	85
359.802	79
360.029	89
360.256	73
360.483	79
360.709	85
360.936	100
361.163	90
361.39	86
361.616	83
361.843	83
362.07	105
362.296	88
362.523	63
362.749	60
362.976	80
363.203	76
363.429	74
363.656	66
363.882	68
364.109	78
364.335	84
364.562	81
364.788	79
365.015	83
365.241	71
365.468	71
365.694	79
365.92	89
366.147	78
366.373	68
366.599	68
366.826	82
367.052	59
367.278	70
367.505	87
367.731	78
367.957	73
368.184	72
368.41	87
368.636	83
368.862	77
369.089	81
369.315	78
369.541	85
369.767	96
369.993	75
370.219	73
370.445	73
370.672	74
370.898	69
371.124	86
371.35	77
371.576	73
371.802	93
372.028	85
372.254	95
372.48	83
372.706	65
372.932	84
373.158	86
373.384	84
373.61	82
373.835	84
374.061	70
374.287	86
374.513	76
374.739	85
374.965	86
375.191	77
375.416	85
375.642	78
375.868	88
376.094	79
376.319	100
376.545	80
376.771	91
376.997	85
377.222	76
377.448	73
377.674	70
377.899	94
378.125	100
378.35	91
378.576	77
378.802	82
379.027	91
379.253	61
379.478	85
379.704	83
379.929	67
380.155	96
380.38	85
380.606	75
380.831	87
381.057	89
381.282	59
381.507	79
381.733	83
381.958	86
382.184	77
382.409	76
382.634	85
382.86	76
383.085	79
383.31	73
383.535	78
383.761	77
383.986	74
384.211	63
384.436	87
384.662	81
384.887	80
385.112	84
385.337	88
385.562	94
385.787	80
386.013	63
386.238	81
386.463	86
386.688	89
386.913	78
387.138	80
387.363	80
387.588	85
387.813	88
388.038	81
388.263	85
388.488	79
388.713	84
388.938	86
389.163	93
389.387	86
389.612	87
389.837	95
390.062	99
390.287	82
390.512	83
390.736	92
390.961	88
391.186	85
391.411	75
391.636	86
391.86	84
392.085	82
392.31	91
392.534	92
392.759	81
392.984	68
393.208	91
393.433	70
393.658	91
393.882	81
394.107	71
394.331	77
394.556	93
394.78	66
395.005	72
395.229	78
395.454	81
395.678	81
395.903	76
396.127	84
396.352	79
396.576	76
396.801	84
397.025	84
397.249	94
397.474	87
397.698	89
397.922	83
398.147	79
398.371	92
398.595	75
398.82	81
399.044	78
399.268	79
399.492	81
399.717	95
399.941	78
400.165	71
400.389	90
400.613	88
400.837	83
401.062	90
401.286	82
401.51	96
401.734	82
401.958	82
402.182	77
402.406	108
402.63	73
402.854	79
403.078	94
403.302	77
403.526	85
403.75	87
403.974	80
404.198	94
404.422	102
404.645	77
404.869	88
405.093	89
405.317	84
405.541	101
405.765	77
405.988	94
406.212	105
406.436	93
406.66	89
406.883	94
407.107	82
407.331	95
407.555	87
407.778	83
408.002	92
408.226	82
408.449	93
408.673	85
408.896	87
409.12	92
409.344	91
409.567	77
409.791	86
410.014	88
410.238	74
410.461	97
410.685	99
410.908	89
411.132	95
411.355	97
411.578	75
411.802	73
412.025	83
412.249	92
412.472	97
412.695	101
412.919	96
413.142	85
413.365	74
413.589	86
413.812	98
414.035	90
414.258	96
414.482	99
414.705	83
414.928	104
415.151	99
415.374	79
415.597	83
415.821	99
416.044	85
416.267	89
416.49	102
416.713	90
416.936	85
417.159	83
417.382	85
417.605	89
417.828	95
418.051	107
418.274	82
418.497	90
418.72	83
418.943	102
419.166	84
419.389	92
419.611	83
419.834	104
420.057	92
420.28	93
420.503	81
420.726	84
420.948	85
421.171	93
421.394	99
421.617	90
421.839	73
422.062	113
422.285	102
422.507	93
422.73	76
422.953	96
423.175	77
423.398	91
423.621	97
423.843	91
424.066	106
424.288	87
424.511	78
424.733	96
424.956	99
425.178	85
425.401	94
425.623	87
425.846	75
426.068	84
426.291	80
426.513	83
426.735	94
426.958	97
427.18	86
427.402	98
427.625	80
427.847	85
428.069	98
428.292	93
428.514	94
428.736	89
428.958	92
429.181	94
429.403	100
429.625	95
429.847	90
430.069	101
430.292	107
430.514	93
430.736	88
430.958	90
431.18	86
431.402	95
431.624	87
431.846	88
432.068	82
432.29	78
432.512	84
432.734	89
432.956	99
433.178	83
433.4	102
433.622	88
433.844	103
434.066	89
434.287	87
434.509	64
434.731	91
434.953	87
435.175	103
435.397	81
435.618	95
435.84	80
436.062	87
436.284	93
436.505	73
436.727	85
436.949	94
437.17	101
437.392	90
437.614	95
437.835	83
438.057	83
438.278	88
438.5	92
438.721	73
438.943	89
439.165	100
439.386	92
439.608	112
439.829	81
440.05	102
440.272	98
440.493	103
440.715	85
440.936	86
441.158	108
441.379	94
441.6	92
441.822	104
442.043	96
442.264	95
442.486	101
442.707	98
442.928	85
443.149	92
443.371	98
443.592	95
443.813	82
444.034	89
444.255	104
444.476	96
444.698	87
444.919	104
445.14	225
445.361	152
445.582	111
445.803	107
446.024	95
446.245	84
446.466	93
446.687	100
446.908	114
447.129	92
447.35	95
447.571	94
447.792	86
448.013	97
448.234	109
448.455	87
448.675	88
448.896	92
449.117	91
449.338	96
449.559	83
449.779	82
450	102
450.221	109
450.442	91
450.662	95
450.883	93
451.104	93
451.324	93
451.545	94
451.766	86
451.986	91
452.207	83
452.428	92
452.648	93
452.869	90
453.089	92
453.31	79
453.53	89
453.751	73
453.971	86
454.192	83
454.412	77
454.633	93
454.853	87
455.073	73
455.294	83
455.514	98
455.734	89
455.955	82
456.175	75
456.395	88
456.616	85
456.836	82
457.056	87
457.276	77
457.497	80
457.717	88
457.937	77
458.157	79
458.377	80
458.598	78
458.818	63
459.038	79
459.258	87
459.478	79
459.698	97
459.918	67
460.138	91
460.358	79
460.578	83
460.798	87
461.018	87
461.238	88
461.458	92
461.678	94
461.898	89
462.118	86
462.338	89
462.558	91
462.777	106
462.997	99
463.217	87
463.437	83
463.657	89
463.876	87
464.096	86
464.316	92
464.536	101
464.755	91
464.975	74
465.195	84
465.414	89
465.634	91
465.854	91
466.073	89
466.293	78
466.512	84
466.732	98
466.951	94
467.171	88
467.391	104
467.61	79
467.829	89
468.049	94
468.268	83
468.488	99
468.707	93
468.927	94
469.146	70
469.365	102
469.585	83
469.804	80
470.023	88
470.243	90
470.462	93
470.681	111
470.901	109
471.12	101
471.339	89
471.558	80
471.777	93
471.997	95
472.216	85
472.435	87
472.654	91
472.873	79
473.092	81
473.311	84
473.53	89
473.749	89
473.968	100
474.187	86
474.406	91
474.625	90
474.844	97
475.063	102
475.282	98
475.501	77
475.72	73
475.939	102
476.158	81
476.377	91
476.596	93
476.814	88
477.033	88
477.252	76
477.471	89
477.69	99
477.908	97
478.127	78
478.346	75
478.564	89
478.783	97
479.002	80
479.22	91
479.439	87
479.658	96
479.876	86
480.095	80
480.313	82
480.532	79
480.751	97
480.969	77
481.188	80
481.406	73
481.624	77
481.843	84
482.061	78
482.28	86
482.498	88
482.717	75
482.935	77
483.153	88
483.372	92
483.59	92
483.808	84
484.027	92
484.245	98
484.463	110
484.681	100
484.9	101
485.118	95
485.336	111
485.554	92
485.772	88
485.99	89
486.209	96
486.427	97
486.645	92
486.863	92
487.081	97
487.299	102
487.517	92
487.735	101
487.953	111
488.171	95
488.389	89
488.607	102
488.825	101
489.043	76
489.261	93
489.479	101
489.696	101
489.914	89
490.132	99
490.35	97
490.568	92
490.786	96
491.003	100
491.221	117
491.439	113
491.657	107
491.874	105
492.092	113
492.31	127
492.527	119
492.745	130
492.963	114
493.18	97
493.398	115
493.615	113
493.833	102
494.05	101
494.268	96
494.485	121
494.703	117
494.92	108
495.138	97
495.355	111
495.573	121
495.79	99
496.008	100
496.225	109
496.442	103
496.66	103
496.877	109
497.094	97
497.312	101
497.529	101
497.746	101
497.963	97
498.181	100
498.398	104
498.615	95
498.832	79
499.049	88
499.267	90
499.484	102
499.701	90
499.918	100
500.135	110
500.352	97
500.569	107
500.786	107
501.003	116
501.22	102
501.437	93
501.654	83
501.871	87
502.088	99
502.305	97
502.522	106
502.739	101
502.956	107
503.172	98
503.389	98
503.606	94
503.823	88
504.04	89
504.256	102
504.473	91
504.69	95
504.907	95
505.123	70
505.34	92
505.557	100
505.773	93
505.99	92
506.207	83
506.423	85
506.64	89
506.856	94
507.073	87
507.289	99
507.506	83
507.722	81
507.939	84
508.155	86
508.372	93
508.588	89
508.805	88
509.021	98
509.238	90
509.454	84
509.67	83
509.887	80
510.103	98
510.319	74
510.536	72
510.752	82
510.968	86
511.184	87
511.401	61
511.617	82
511.833	79
512.049	98
512.265	86
512.481	79
512.698	88
512.914	79
513.13	68
513.346	96
513.562	96
513.778	89
513.994	82
514.21	89
514.426	94
514.642	84
514.858	85
515.074	71
515.29	78
515.506	80
515.721	74
515.937	88
516.153	66
516.369	74
516.585	85
516.801	86
517.016	83
517.232	84
517.448	81
517.664	88
517.879	81
518.095	85
518.311	91
518.527	81
518.742	66
518.958	81
519.173	90
519.389	83
519.605	81
519.82	82
520.036	81
520.251	79
520.467	80
520.682	93
520.898	77
521.113	86
521.329	82
521.544	89
521.76	92
521.975	82
522.19	93
522.406	88
522.621	94
522.836	80
523.052	91
523.267	96
523.482	87
523.698	78
523.913	109
524.128	77
524.343	80
524.559	101
524.774	87
524.989	97
525.204	94
525.419	85
525.634	90
525.849	82
526.064	82
526.28	84
526.495	79
526.71	81
526.925	89
527.14	79
527.355	79
527.57	80
527.785	71
527.999	98
528.214	83
528.429	79
528.644	77
528.859	108
529.074	97
529.289	95
529.503	116
529.718	97
529.933	114
530.148	91
530.363	81
530.577	97
530.792	86
531.007	79
531.221	85
531.436	76
531.651	71
531.865	85
532.08	95
532.295	74
532.509	74
532.724	87
532.938	87
533.153	95
533.367	84
533.582	98
533.796	112
534.011	82
534.225	84
534.44	101
534.654	91
534.868	89
535.083	74
535.297	91
535.511	82
535.726	97
535.94	68
536.154	88
536.369	86
536.583	85
536.797	89
537.011	85
537.225	78
537.44	85
537.654	86
537.868	75
538.082	78
538.296	86
538.51	92
538.724	95
538.938	93
539.153	87
539.367	96
539.581	89
539.795	84
540.009	80
540.222	73
540.436	70
540.65	74
540.864	99
541.078	96
541.292	119
541.506	99
541.72	93
541.934	109
542.147	120
542.361	117
542.575	107
542.789	99
543.002	92
543.216	95
543.43	78
543.644	95
543.857	107
544.071	92
544.285	97
544.498	96
544.712	111
544.925	104
545.139	101
545.352	99
545.566	111
545.779	99
545.993	102
546.206	104
546.42	86
546.633	111
546.847	102
547.06	105
547.274	107
547.487	111
547.7	107
547.914	107
548.127	103
548.34	103
548.554	97
548.767	100
548.98	113
549.193	115
549.407	96
549.62	88
549.833	114
550.046	113
550.259	97
550.473	99
550.686	111
550.899	91
551.112	103
551.325	88
551.538	89
551.751	80
551.964	101
552.177	91
552.39	92
552.603	104
552.816	104
553.029	111
553.242	117
553.455	114
553.667	113
553.88	87
554.093	101
554.306	93
554.519	95
554.732	102
554.944	96
555.157	108
555.37	100
555.583	95
555.795	114
556.008	107
556.221	95
556.433	107
556.646	87
556.859	87
557.071	94
557.284	96
557.496	95
557.709	90
557.921	113
558.134	93
558.346	107
558.559	95
558.771	87
558.984	115
559.196	98
559.409	91
559.621	86
559.833	97
560.046	92
560.258	80
560.47	86
560.683	104
560.895	103
561.107	98
561.32	98
561.532	91
561.744	91
561.956	103
562.168	111
562.381	103
562.593	94
562.805	92
563.017	86
563.229	98
563.441	86
563.653	92
563.865	77
564.077	101
564.289	109
564.501	83
564.713	89
564.925	100
565.137	87
565.349	92
565.561	95
565.773	83
565.985	89
566.197	90
566.408	105
566.62	99
566.832	95
567.044	94
567.255	86
567.467	85
567.679	90
567.891	73
568.102	79
568.314	100
568.526	92
568.737	86
568.949	85
569.161	83
569.372	74
569.584	85
569.795	87
570.007	92
570.218	93
570.43	82
570.641	93
570.853	100
571.064	95
571.276	92
571.487	86
571.698	94
571.91	89
572.121	88
572.333	79
572.544	73
572.755	82
572.966	81
573.178	97
573.389	86
573.6	79
573.811	61
574.023	83
574.234	74
574.445	87
574.656	84
574.867	85
575.078	84
575.289	96
575.501	79
575.712	86
575.923	93
576.134	77
576.345	85
576.556	83
576.767	106
576.978	97
577.188	97
577.399	96
577.61	97
577.821	75
578.032	89
578.243	80
578.454	77
578.665	75
578.875	86
579.086	89
579.297	81
579.508	72
579.718	77
579.929	74
580.14	78
580.35	85
580.561	86
580.772	90
580.982	86
581.193	88
581.403	88
581.614	79
581.825	81
582.035	83
582.246	92
582.456	80
582.667	82
582.877	90
583.087	84
583.298	78
583.508	83
583.719	78
583.929	81
584.139	93
584.35	88
584.56	84
584.77	75
584.981	94
585.191	68
585.401	88
585.611	84
585.821	80
586.032	89
586.242	81
586.452	83
586.662	92
586.872	96
587.082	71
587.292	82
587.502	76
587.713	85
587.923	84
588.133	80
588.343	77
588.553	77
588.762	93
588.972	90
589.182	85
589.392	82
589.602	83
589.812	87
590.022	82
590.232	64
590.441	93
590.651	83
590.861	89
591.071	89
591.281	80
591.49	92
591.7	92
591.91	84
592.119	81
592.329	87
592.539	79
592.748	92
592.958	76
593.167	87
593.377	82
593.587	85
593.796	86
594.006	93
594.215	81
594.424	92
594.634	85
594.843	88
595.053	80
595.262	78
595.472	85
595.681	80
595.89	91
596.1	88
596.309	88
596.518	83
596.727	79
596.937	88
597.146	81
597.355	93
597.564	68
597.774	68
597.983	79
598.192	107
598.401	77
598.61	87
598.819	86
599.028	103
599.237	87
599.446	84
599.655	70
599.864	78
600.073	78
600.282	87
600.491	71
600.7	87
600.909	73
601.118	85
601.327	88
601.536	97
601.745	85
601.953	86
602.162	95
602.371	101
602.58	89
602.789	83
602.997	78
603.206	78
603.415	88
603.623	80
603.832	94
604.041	95
604.249	88
604.458	84
604.666	78
604.875	89
605.084	82
605.292	94
605.501	70
605.709	85
605.918	90
606.126	97
606.334	85
606.543	83
606.751	111
606.96	103
607.168	93
607.376	99
607.585	99
607.793	91
608.001	92
608.21	91
608.418	89
608.626	110
608.834	100
609.043	88
609.251	95
609.459	81
609.667	85
609.875	91
610.083	100
610.291	77
610.499	83
610.707	93
610.916	99
611.124	79
611.332	100
611.54	90
611.748	86
611.955	101
612.163	109
612.371	89
612.579	83
612.787	84
612.995	93
613.203	91
613.411	96
613.618	96
613.826	96
614.034	82
614.242	98
614.449	94
614.657	86
614.865	85
615.072	97
615.28	92
615.488	96
615.695	96
615.903	97
616.111	107
616.318	92
616.526	84
616.733	97
616.941	91
617.148	84
617.356	90
617.563	86
617.771	76
617.978	93
618.185	85
618.393	94
618.6	94
618.807	89
619.015	87
619.222	93
619.429	94
619.637	84
619.844	89
620.051	81
620.258	90
620.466	75
620.673	91
620.88	98
621.087	92
621.294	84
621.501	87
621.708	96
621.915	96
622.122	100
622.329	92
622.536	71
622.743	97
622.95	89
623.157	90
623.364	93
623.571	76
623.778	87
623.985	78
624.192	87
624.399	85
624.606	105
624.812	87
625.019	94
625.226	98
625.433	79
625.639	87
625.846	96
626.053	78
626.259	96
626.466	85
626.673	69
626.879	75
627.086	84
627.293	86
627.499	94
627.706	89
627.912	88
628.119	91
628.325	80
628.532	90
628.738	102
628.945	85
629.151	76
629.357	108
629.564	94
629.77	90
629.976	79
630.183	79
630.389	78
630.595	76
630.802	94
631.008	85
631.214	79
631.42	80
631.627	81
631.833	77
632.039	76
632.245	80
632.451	84
632.657	84
632.863	74
633.069	85
633.275	86
633.481	84
633.688	76
633.893	82
634.099	100
634.305	84
634.511	96
634.717	86
634.923	85
635.129	82
635.335	81
635.541	81
635.747	83
635.952	80
636.158	74
636.364	82
636.57	72
636.775	83
636.981	86
637.187	85
637.392	87
637.598	89
637.804	85
638.009	79
638.215	81
638.421	74
638.626	92
638.832	88
639.037	76
639.243	92
639.448	87
639.654	82
639.859	93
640.065	92
640.27	96
640.475	93
640.681	84
640.886	87
641.091	93
641.297	87
641.502	102
641.707	92
641.913	88
642.118	99
642.323	85
642.528	80
642.733	79
642.939	83
643.144	88
643.349	86
643.554	79
643.759	87
643.964	73
644.169	88
644.374	91
644.579	91
644.784	91
644.989	87
645.194	100
645.399	80
645.604	83
645.809	108
646.014	91
646.219	93
646.423	80
646.628	87
646.833	85
647.038	88
647.243	85
647.447	92
647.652	94
647.857	85
648.062	87
648.266	81
648.471	83
648.676	92
648.88	93
649.085	99
649.289	85
649.494	84
649.698	86
649.903	83
650.107	85
650.312	91
650.516	77
650.721	86
650.925	90
651.13	93
651.334	84
651.539	83
651.743	85
651.947	87
652.152	81
652.356	75
652.56	81
652.764	79
652.969	92
653.173	86
653.377	74
653.581	77
653.785	75
653.99	87
654.194	88
654.398	77
654.602	80
654.806	70
655.01	80
655.214	94
655.418	104
655.622	76
655.826	75
656.03	78
656.234	85
656.438	75
656.642	76
656.846	83
657.049	82
657.253	79
657.457	85
657.661	74
657.865	71
658.068	68
658.272	79
658.476	85
658.68	81
658.883	80
659.087	85
659.291	96
659.494	82
659.698	77
659.901	100
660.105	80
660.309	72
660.512	89
660.716	83
660.919	83
661.123	81
661.326	78
661.53	82
661.733	86
661.936	73
662.14	68
662.343	68
662.546	71
662.75	82
662.953	90
663.156	78
663.36	92
663.563	76
663.766	91
663.969	92
664.173	77
664.376	66
664.579	86
664.782	81
664.985	85
665.188	73
665.391	81
665.594	99
665.797	83
666	80
666.203	80
666.406	77
666.609	78
666.812	92
667.015	69
667.218	87
667.421	79
667.624	83
667.827	81
668.03	76
668.232	92
668.435	89
668.638	82
668.841	76
669.043	78
669.246	77
669.449	75
669.651	70
669.854	74
670.057	91
670.259	76
670.462	81
670.665	73
670.867	80
671.07	93
671.272	70
671.475	89
671.677	70
671.88	83
672.082	79
672.284	70
672.487	88
672.689	79
672.892	63
