Data from Location3.07152019.Energy5.Lamp.07192019.3%Agarose_HRD10591_15-17-03-269.txt Node
Date: Fri Jul 19 15:17:03 EDT 2019
User: cochatt
Spectrometer: HR+D1059
Trigger mode: 1
Integration Time (sec): 1.000000E-1
Scans to average: 1
Electric dark correction enabled: true
Nonlinearity correction enabled: false
Boxcar width: 0
XAxis mode: Wavelengths
Number of Pixels in Spectrum: 2048
>>>>>Begin Spectral Data<<<<<
223.165	-17
223.4	-17
223.635	-17
223.869	-20
224.104	-15
224.338	-15
224.573	-17
224.808	-12
225.042	1
225.277	-4
225.511	-7
225.746	11
225.98	7
226.215	11
226.449	4
226.683	25
226.918	26
227.152	22
227.387	47
227.621	36
227.856	53
228.09	47
228.324	37
228.559	53
228.793	58
229.027	57
229.262	63
229.496	58
229.73	63
229.964	82
230.199	58
230.433	91
230.667	74
230.901	68
231.136	81
231.37	73
231.604	87
231.838	68
232.072	88
232.306	94
232.541	84
232.775	83
233.009	88
233.243	88
233.477	85
233.711	79
233.945	91
234.179	84
234.413	84
234.647	94
234.881	74
235.115	73
235.349	80
235.583	88
235.817	83
236.051	73
236.285	63
236.519	83
236.753	79
236.987	85
237.221	67
237.455	81
237.689	70
237.922	65
238.156	83
238.39	87
238.624	82
238.858	89
239.091	68
239.325	87
239.559	76
239.793	86
240.027	86
240.26	69
240.494	73
240.728	81
240.961	79
241.195	84
241.429	86
241.662	90
241.896	78
242.13	99
242.363	78
242.597	76
242.83	84
243.064	63
243.298	69
243.531	78
243.765	73
243.998	85
244.232	91
244.465	71
244.699	77
244.932	75
245.166	79
245.399	83
245.633	66
245.866	74
246.099	85
246.333	84
246.566	73
246.8	87
247.033	82
247.266	83
247.5	75
247.733	76
247.966	85
248.2	79
248.433	80
248.666	87
248.899	57
249.133	73
249.366	82
249.599	82
249.832	83
250.066	87
250.299	83
250.532	87
250.765	86
250.998	80
251.231	80
251.465	90
251.698	65
251.931	74
252.164	86
252.397	63
252.63	74
252.863	85
253.096	83
253.329	89
253.562	82
253.795	69
254.028	89
254.261	87
254.494	74
254.727	72
254.96	86
255.193	72
255.426	77
255.659	77
255.892	89
256.124	84
256.357	86
256.59	63
256.823	70
257.056	73
257.289	78
257.521	83
257.754	78
257.987	82
258.22	88
258.452	76
258.685	81
258.918	77
259.151	70
259.383	79
259.616	73
259.849	86
260.081	88
260.314	70
260.547	70
260.779	71
261.012	83
261.244	87
261.477	92
261.71	80
261.942	81
262.175	76
262.407	87
262.64	88
262.872	67
263.105	98
263.337	107
263.57	81
263.802	89
264.035	76
264.267	82
264.499	76
264.732	72
264.964	83
265.197	77
265.429	77
265.661	68
265.894	86
266.126	101
266.358	91
266.591	81
266.823	74
267.055	92
267.287	83
267.52	77
267.752	91
267.984	89
268.216	96
268.448	88
268.681	80
268.913	95
269.145	80
269.377	73
269.609	70
269.841	76
270.073	73
270.306	81
270.538	83
270.77	72
271.002	80
271.234	102
271.466	84
271.698	72
271.93	93
272.162	80
272.394	100
272.626	76
272.858	68
273.09	100
273.322	90
273.553	87
273.785	69
274.017	86
274.249	69
274.481	92
274.713	87
274.945	86
275.176	68
275.408	80
275.64	85
275.872	79
276.104	85
276.335	76
276.567	70
276.799	88
277.031	95
277.262	74
277.494	92
277.726	76
277.957	87
278.189	79
278.421	89
278.652	95
278.884	93
279.115	78
279.347	79
279.579	91
279.81	73
280.042	78
280.273	94
280.505	78
280.736	84
280.968	75
281.199	76
281.431	88
281.662	84
281.894	74
282.125	79
282.356	80
282.588	83
282.819	89
283.051	87
283.282	87
283.513	94
283.745	74
283.976	76
284.207	85
284.439	88
284.67	87
284.901	98
285.132	92
285.364	83
285.595	95
285.826	79
286.057	69
286.288	89
286.52	89
286.751	87
286.982	89
287.213	83
287.444	77
287.675	78
287.906	102
288.138	82
288.369	76
288.6	74
288.831	89
289.062	92
289.293	89
289.524	98
289.755	82
289.986	88
290.217	82
290.448	75
290.679	89
290.91	73
291.141	92
291.371	91
291.602	77
291.833	86
292.064	96
292.295	76
292.526	98
292.757	75
292.987	79
293.218	83
293.449	74
293.68	90
293.91	82
294.141	96
294.372	79
294.603	92
294.833	88
295.064	72
295.295	82
295.525	83
295.756	91
295.987	81
296.217	79
296.448	82
296.679	83
296.909	85
297.14	91
297.37	83
297.601	89
297.831	78
298.062	81
298.292	84
298.523	84
298.753	86
298.984	88
299.214	66
299.445	81
299.675	91
299.905	95
300.136	90
300.366	82
300.597	95
300.827	80
301.057	90
301.288	91
301.518	89
301.748	91
301.979	85
302.209	94
302.439	91
302.669	81
302.9	76
303.13	91
303.36	98
303.59	82
303.82	84
304.051	84
304.281	73
304.511	91
304.741	83
304.971	95
305.201	77
305.431	88
305.661	80
305.891	96
306.121	75
306.352	91
306.582	95
306.812	86
307.042	89
307.272	93
307.502	91
307.731	93
307.961	89
308.191	97
308.421	91
308.651	92
308.881	88
309.111	87
309.341	84
309.571	69
309.8	73
310.03	99
310.26	91
310.49	82
310.72	95
310.949	82
311.179	80
311.409	77
311.639	82
311.868	79
312.098	84
312.328	76
312.557	94
312.787	96
313.017	87
313.246	79
313.476	78
313.706	79
313.935	94
314.165	88
314.394	91
314.624	84
314.853	89
315.083	79
315.312	69
315.542	79
315.771	87
316.001	87
316.23	90
316.46	94
316.689	92
316.919	74
317.148	98
317.377	100
317.607	83
317.836	82
318.065	84
318.295	88
318.524	83
318.753	87
318.983	83
319.212	98
319.441	90
319.67	78
319.9	89
320.129	87
320.358	94
320.587	80
320.816	88
321.046	76
321.275	105
321.504	78
321.733	78
321.962	84
322.191	83
322.42	74
322.649	79
322.878	86
323.108	94
323.337	82
323.566	86
323.795	79
324.024	87
324.253	86
324.482	87
324.71	83
324.939	90
325.168	83
325.397	92
325.626	84
325.855	72
326.084	75
326.313	83
326.542	84
326.77	85
326.999	86
327.228	95
327.457	94
327.686	89
327.914	86
328.143	85
328.372	91
328.6	94
328.829	76
329.058	92
329.287	82
329.515	84
329.744	82
329.972	84
330.201	89
330.43	89
330.658	86
330.887	73
331.115	89
331.344	90
331.572	89
331.801	81
332.03	87
332.258	80
332.486	83
332.715	87
332.943	100
333.172	82
333.4	79
333.629	78
333.857	79
334.085	87
334.314	99
334.542	76
334.771	91
334.999	92
335.227	91
335.455	86
335.684	86
335.912	70
336.14	84
336.369	90
336.597	91
336.825	94
337.053	94
337.281	74
337.51	78
337.738	100
337.966	94
338.194	72
338.422	85
338.65	80
338.878	96
339.106	88
339.334	92
339.562	88
339.79	80
340.018	82
340.246	81
340.474	78
340.702	86
340.93	83
341.158	84
341.386	76
341.614	79
341.842	70
342.07	68
342.298	88
342.526	91
342.754	94
342.981	87
343.209	89
343.437	86
343.665	82
343.893	78
344.12	82
344.348	84
344.576	99
344.804	83
345.031	86
345.259	83
345.487	87
345.714	81
345.942	83
346.17	81
346.397	77
346.625	94
346.853	81
347.08	93
347.308	83
347.535	85
347.763	94
347.99	82
348.218	79
348.445	94
348.673	72
348.9	87
349.128	91
349.355	88
349.583	95
349.81	90
350.037	85
350.265	88
350.492	86
350.72	80
350.947	92
351.174	91
351.402	83
351.629	74
351.856	84
352.083	88
352.311	91
352.538	83
352.765	76
352.992	97
353.22	93
353.447	87
353.674	86
353.901	94
354.128	82
354.355	88
354.583	92
354.81	90
355.037	88
355.264	89
355.491	90
355.718	87
355.945	97
356.172	75
356.399	85
356.626	97
356.853	75
357.08	83
357.307	81
357.534	89
357.761	75
357.988	91
358.215	96
358.441	91
358.668	83
358.895	84
359.122	93
359.349	93
359.576	85
359.802	91
360.029	79
360.256	83
360.483	106
360.709	76
360.936	74
361.163	81
361.39	94
361.616	84
361.843	79
362.07	71
362.296	92
362.523	86
362.749	68
362.976	91
363.203	97
363.429	90
363.656	89
363.882	89
364.109	85
364.335	99
364.562	85
364.788	86
365.015	78
365.241	76
365.468	95
365.694	79
365.92	91
366.147	77
366.373	98
366.599	84
366.826	84
367.052	80
367.278	71
367.505	81
367.731	79
367.957	89
368.184	90
368.41	96
368.636	76
368.862	82
369.089	89
369.315	86
369.541	102
369.767	103
369.993	91
370.219	81
370.445	90
370.672	95
370.898	97
371.124	89
371.35	100
371.576	99
371.802	70
372.028	86
372.254	85
372.48	86
372.706	75
372.932	84
373.158	82
373.384	87
373.61	84
373.835	76
374.061	77
374.287	89
374.513	80
374.739	75
374.965	83
375.191	86
375.416	93
375.642	85
375.868	74
376.094	94
376.319	85
376.545	84
376.771	92
376.997	82
377.222	95
377.448	86
377.674	86
377.899	80
378.125	98
378.35	87
378.576	93
378.802	75
379.027	65
379.253	80
379.478	101
379.704	87
379.929	100
380.155	97
380.38	106
380.606	92
380.831	84
381.057	73
381.282	91
381.507	76
381.733	75
381.958	87
382.184	90
382.409	88
382.634	86
382.86	84
383.085	84
383.31	79
383.535	87
383.761	84
383.986	91
384.211	85
384.436	92
384.662	91
384.887	83
385.112	72
385.337	72
385.562	90
385.787	86
386.013	89
386.238	92
386.463	76
386.688	89
386.913	89
387.138	84
387.363	73
387.588	97
387.813	87
388.038	76
388.263	84
388.488	80
388.713	80
388.938	92
389.163	81
389.387	91
389.612	103
389.837	98
390.062	87
390.287	85
390.512	86
390.736	79
390.961	100
391.186	95
391.411	89
391.636	87
391.86	80
392.085	101
392.31	91
392.534	95
392.759	96
392.984	89
393.208	89
393.433	91
393.658	93
393.882	82
394.107	98
394.331	104
394.556	95
394.78	90
395.005	103
395.229	83
395.454	93
395.678	72
395.903	98
396.127	96
396.352	83
396.576	88
396.801	83
397.025	94
397.249	88
397.474	105
397.698	95
397.922	96
398.147	88
398.371	88
398.595	74
398.82	85
399.044	70
399.268	80
399.492	87
399.717	86
399.941	107
400.165	101
400.389	103
400.613	102
400.837	89
401.062	93
401.286	96
401.51	88
401.734	83
401.958	95
402.182	91
402.406	83
402.63	87
402.854	99
403.078	89
403.302	80
403.526	88
403.75	118
403.974	97
404.198	86
404.422	98
404.645	78
404.869	94
405.093	95
405.317	91
405.541	97
405.765	100
405.988	84
406.212	89
406.436	104
406.66	95
406.883	84
407.107	99
407.331	89
407.555	98
407.778	88
408.002	97
408.226	88
408.449	89
408.673	92
408.896	98
409.12	108
409.344	83
409.567	90
409.791	94
410.014	89
410.238	98
410.461	89
410.685	90
410.908	91
411.132	92
411.355	99
411.578	82
411.802	102
412.025	100
412.249	95
412.472	84
412.695	96
412.919	91
413.142	96
413.365	92
413.589	96
413.812	78
414.035	103
414.258	103
414.482	96
414.705	101
414.928	81
415.151	101
415.374	100
415.597	95
415.821	117
416.044	103
416.267	82
416.49	94
416.713	101
416.936	115
417.159	116
417.382	94
417.605	97
417.828	94
418.051	86
418.274	100
418.497	100
418.72	89
418.943	92
419.166	99
419.389	115
419.611	86
419.834	98
420.057	86
420.28	96
420.503	86
420.726	96
420.948	99
421.171	92
421.394	89
421.617	98
421.839	93
422.062	109
422.285	84
422.507	93
422.73	99
422.953	88
423.175	86
423.398	90
423.621	85
423.843	103
424.066	90
424.288	96
424.511	80
424.733	103
424.956	105
425.178	82
425.401	99
425.623	110
425.846	103
426.068	87
426.291	91
426.513	88
426.735	100
426.958	78
427.18	97
427.402	99
427.625	99
427.847	95
428.069	96
428.292	100
428.514	103
428.736	100
428.958	95
429.181	114
429.403	94
429.625	87
429.847	94
430.069	87
430.292	84
430.514	76
430.736	101
430.958	89
431.18	82
431.402	97
431.624	79
431.846	90
432.068	89
432.29	94
432.512	112
432.734	87
432.956	98
433.178	108
433.4	112
433.622	94
433.844	105
434.066	97
434.287	92
434.509	88
434.731	94
434.953	94
435.175	100
435.397	100
435.618	98
435.84	80
436.062	95
436.284	94
436.505	94
436.727	82
436.949	96
437.17	92
437.392	88
437.614	96
437.835	86
438.057	91
438.278	81
438.5	91
438.721	95
438.943	113
439.165	82
439.386	97
439.608	100
439.829	98
440.05	96
440.272	106
440.493	85
440.715	81
440.936	81
441.158	103
441.379	102
441.6	90
441.822	99
442.043	93
442.264	103
442.486	100
442.707	94
442.928	110
443.149	102
443.371	94
443.592	109
443.813	88
444.034	100
444.255	84
444.476	95
444.698	110
444.919	95
445.14	224
445.361	153
445.582	118
445.803	90
446.024	99
446.245	86
446.466	112
446.687	96
446.908	96
447.129	91
447.35	105
447.571	100
447.792	91
448.013	90
448.234	107
448.455	111
448.675	91
448.896	96
449.117	100
449.338	90
449.559	106
449.779	104
450	87
450.221	97
450.442	106
450.662	104
450.883	80
451.104	106
451.324	95
451.545	89
451.766	113
451.986	106
452.207	82
452.428	80
452.648	99
452.869	98
453.089	98
453.31	98
453.53	93
453.751	94
453.971	91
454.192	84
454.412	75
454.633	94
454.853	99
455.073	91
455.294	88
455.514	85
455.734	80
455.955	95
456.175	101
456.395	91
456.616	91
456.836	92
457.056	84
457.276	92
457.497	92
457.717	99
457.937	94
458.157	100
458.377	84
458.598	80
458.818	81
459.038	83
459.258	81
459.478	83
459.698	85
459.918	80
460.138	79
460.358	93
460.578	105
460.798	88
461.018	90
461.238	87
461.458	81
461.678	88
461.898	99
462.118	88
462.338	80
462.558	95
462.777	90
462.997	104
463.217	81
463.437	82
463.657	92
463.876	92
464.096	88
464.316	92
464.536	81
464.755	93
464.975	97
465.195	96
465.414	94
465.634	83
465.854	98
466.073	96
466.293	97
466.512	75
466.732	111
466.951	94
467.171	91
467.391	104
467.61	105
467.829	96
468.049	94
468.268	86
468.488	103
468.707	81
468.927	93
469.146	94
469.365	82
469.585	91
469.804	104
470.023	88
470.243	98
470.462	98
470.681	100
470.901	97
471.12	99
471.339	103
471.558	97
471.777	97
471.997	100
472.216	88
472.435	86
472.654	86
472.873	83
473.092	91
473.311	94
473.53	90
473.749	95
473.968	117
474.187	94
474.406	94
474.625	96
474.844	102
475.063	92
475.282	91
475.501	90
475.72	105
475.939	97
476.158	111
476.377	94
476.596	98
476.814	100
477.033	83
477.252	80
477.471	95
477.69	87
477.908	91
478.127	110
478.346	108
478.564	104
478.783	122
479.002	103
479.22	86
479.439	99
479.658	106
479.876	90
480.095	87
480.313	95
480.532	97
480.751	84
480.969	85
481.188	92
481.406	71
481.624	83
481.843	76
482.061	90
482.28	79
482.498	96
482.717	87
482.935	83
483.153	105
483.372	100
483.59	95
483.808	98
484.027	98
484.245	104
484.463	119
484.681	103
484.9	102
485.118	107
485.336	102
485.554	90
485.772	95
485.99	84
486.209	95
486.427	87
486.645	100
486.863	102
487.081	97
487.299	99
487.517	97
487.735	105
487.953	103
488.171	116
488.389	116
488.607	100
488.825	103
489.043	86
489.261	87
489.479	97
489.696	108
489.914	96
490.132	108
490.35	100
490.568	112
490.786	110
491.003	108
491.221	110
491.439	105
491.657	116
491.874	130
492.092	106
492.31	113
492.527	135
492.745	128
492.963	118
493.18	118
493.398	112
493.615	107
493.833	106
494.05	114
494.268	105
494.485	106
494.703	102
494.92	110
495.138	102
495.355	126
495.573	119
495.79	107
496.008	124
496.225	111
496.442	118
496.66	114
496.877	104
497.094	110
497.312	94
497.529	102
497.746	107
497.963	110
498.181	110
498.398	89
498.615	95
498.832	86
499.049	91
499.267	105
499.484	81
499.701	102
499.918	98
500.135	102
500.352	101
500.569	109
500.786	97
501.003	96
501.22	100
501.437	98
501.654	95
501.871	100
502.088	102
502.305	98
502.522	102
502.739	105
502.956	85
503.172	99
503.389	90
503.606	98
503.823	99
504.04	81
504.256	114
504.473	97
504.69	95
504.907	103
505.123	100
505.34	100
505.557	91
505.773	100
505.99	82
506.207	94
506.423	91
506.64	94
506.856	104
507.073	94
507.289	89
507.506	92
507.722	85
507.939	99
508.155	94
508.372	98
508.588	95
508.805	90
509.021	102
509.238	85
509.454	92
509.67	86
509.887	90
510.103	81
510.319	94
510.536	81
510.752	78
510.968	88
511.184	82
511.401	79
511.617	86
511.833	96
512.049	84
512.265	75
512.481	68
512.698	89
512.914	93
513.13	88
513.346	90
513.562	81
513.778	93
513.994	99
514.21	86
514.426	97
514.642	74
514.858	81
515.074	91
515.29	79
515.506	82
515.721	88
515.937	72
516.153	71
516.369	81
516.585	86
516.801	74
517.016	81
517.232	86
517.448	84
517.664	94
517.879	76
518.095	75
518.311	91
518.527	78
518.742	82
518.958	84
519.173	106
519.389	83
519.605	84
519.82	91
520.036	88
520.251	80
520.467	81
520.682	84
520.898	76
521.113	87
521.329	89
521.544	86
521.76	93
521.975	86
522.19	88
522.406	69
522.621	84
522.836	94
523.052	90
523.267	97
523.482	81
523.698	77
523.913	87
524.128	97
524.343	92
524.559	85
524.774	95
524.989	97
525.204	87
525.419	82
525.634	91
525.849	79
526.064	75
526.28	91
526.495	91
526.71	81
526.925	85
527.14	86
527.355	78
527.57	77
527.785	88
527.999	87
528.214	84
528.429	94
528.644	86
528.859	79
529.074	96
529.289	114
529.503	109
529.718	107
529.933	99
530.148	86
530.363	88
530.577	87
530.792	67
531.007	79
531.221	89
531.436	80
531.651	84
531.865	93
532.08	78
532.295	84
532.509	99
532.724	76
532.938	92
533.153	105
533.367	99
533.582	83
533.796	104
534.011	112
534.225	95
534.44	100
534.654	91
534.868	87
535.083	97
535.297	86
535.511	87
535.726	92
535.94	79
536.154	98
536.369	90
536.583	84
536.797	88
537.011	66
537.225	85
537.44	82
537.654	91
537.868	85
538.082	78
538.296	105
538.51	97
538.724	90
538.938	93
539.153	99
539.367	102
539.581	96
539.795	89
540.009	83
540.222	81
540.436	90
540.65	94
540.864	104
541.078	99
541.292	97
541.506	95
541.72	121
541.934	124
542.147	132
542.361	121
542.575	108
542.789	95
543.002	100
543.216	106
543.43	111
543.644	96
543.857	103
544.071	91
544.285	118
544.498	103
544.712	112
544.925	103
545.139	98
545.352	96
545.566	93
545.779	104
545.993	120
546.206	114
546.42	120
546.633	104
546.847	95
547.06	107
547.274	110
547.487	114
547.7	107
547.914	108
548.127	102
548.34	106
548.554	106
548.767	105
548.98	122
549.193	98
549.407	99
549.62	98
549.833	102
550.046	110
550.259	107
550.473	98
550.686	103
550.899	111
551.112	102
551.325	111
551.538	95
551.751	101
551.964	99
552.177	95
552.39	108
552.603	109
552.816	122
553.029	121
553.242	117
553.455	96
553.667	102
553.88	100
554.093	90
554.306	94
554.519	115
554.732	93
554.944	106
555.157	113
555.37	100
555.583	105
555.795	105
556.008	100
556.221	103
556.433	112
556.646	88
556.859	96
557.071	99
557.284	102
557.496	106
557.709	112
557.921	98
558.134	106
558.346	104
558.559	99
558.771	105
558.984	87
559.196	103
559.409	102
559.621	90
559.833	91
560.046	101
560.258	90
560.47	94
560.683	109
560.895	89
561.107	94
561.32	98
561.532	92
561.744	105
561.956	101
562.168	107
562.381	100
562.593	95
562.805	93
563.017	90
563.229	98
563.441	105
563.653	102
563.865	93
564.077	98
564.289	85
564.501	101
564.713	107
564.925	103
565.137	87
565.349	80
565.561	98
565.773	85
565.985	89
566.197	97
566.408	104
566.62	93
566.832	90
567.044	101
567.255	94
567.467	96
567.679	98
567.891	99
568.102	91
568.314	90
568.526	87
568.737	90
568.949	77
569.161	87
569.372	82
569.584	88
569.795	83
570.007	76
570.218	100
570.43	91
570.641	87
570.853	89
571.064	99
571.276	88
571.487	88
571.698	99
571.91	91
572.121	77
572.333	83
572.544	102
572.755	94
572.966	90
573.178	89
573.389	89
573.6	90
573.811	92
574.023	73
574.234	84
574.445	82
574.656	81
574.867	90
575.078	87
575.289	83
575.501	90
575.712	84
575.923	71
576.134	86
576.345	81
576.556	84
576.767	86
576.978	83
577.188	98
577.399	93
577.61	93
577.821	84
578.032	86
578.243	80
578.454	85
578.665	81
578.875	72
579.086	86
579.297	87
579.508	100
579.718	92
579.929	83
580.14	96
580.35	71
580.561	86
580.772	88
580.982	78
581.193	97
581.403	87
581.614	82
581.825	86
582.035	72
582.246	93
582.456	86
582.667	85
582.877	85
583.087	86
583.298	83
583.508	83
583.719	77
583.929	90
584.139	93
584.35	82
584.56	85
584.77	82
584.981	96
585.191	94
585.401	97
585.611	84
585.821	79
586.032	86
586.242	88
586.452	87
586.662	94
586.872	71
587.082	82
587.292	100
587.502	90
587.713	86
587.923	87
588.133	80
588.343	103
588.553	82
588.762	82
588.972	82
589.182	82
589.392	85
589.602	96
589.812	73
590.022	86
590.232	94
590.441	83
590.651	75
590.861	88
591.071	89
591.281	93
591.49	87
591.7	87
591.91	85
592.119	89
592.329	75
592.539	90
592.748	87
592.958	88
593.167	84
593.377	96
593.587	103
593.796	91
594.006	86
594.215	83
594.424	88
594.634	84
594.843	92
595.053	88
595.262	98
595.472	96
595.681	84
595.89	86
596.1	74
596.309	81
596.518	81
596.727	85
596.937	86
597.146	85
597.355	88
597.564	91
597.774	87
597.983	87
598.192	81
598.401	91
598.61	100
598.819	87
599.028	76
599.237	102
599.446	90
599.655	89
599.864	95
600.073	83
600.282	92
600.491	91
600.7	84
600.909	78
601.118	107
601.327	88
601.536	83
601.745	87
601.953	102
602.162	98
602.371	87
602.58	89
602.789	96
602.997	103
603.206	108
603.415	88
603.623	96
603.832	84
604.041	94
604.249	83
604.458	91
604.666	87
604.875	106
605.084	86
605.292	83
605.501	104
605.709	103
605.918	84
606.126	94
606.334	88
606.543	82
606.751	96
606.96	83
607.168	97
607.376	102
607.585	95
607.793	92
608.001	87
608.21	86
608.418	95
608.626	86
608.834	91
609.043	91
609.251	84
609.459	92
609.667	100
609.875	103
610.083	93
610.291	94
610.499	90
610.707	86
610.916	77
611.124	93
611.332	95
611.54	90
611.748	89
611.955	85
612.163	83
612.371	87
612.579	99
612.787	103
612.995	107
613.203	93
613.411	104
613.618	104
613.826	100
614.034	107
614.242	102
614.449	98
614.657	98
614.865	98
615.072	94
615.28	92
615.488	99
615.695	84
615.903	102
616.111	98
616.318	92
616.526	96
616.733	92
616.941	90
617.148	110
617.356	90
617.563	111
617.771	90
617.978	89
618.185	89
618.393	89
618.6	99
618.807	104
619.015	97
619.222	101
619.429	102
619.637	91
619.844	95
620.051	91
620.258	91
620.466	77
620.673	95
620.88	86
621.087	84
621.294	118
621.501	94
621.708	94
621.915	106
622.122	109
622.329	82
622.536	104
622.743	96
622.95	89
623.157	92
623.364	88
623.571	108
623.778	87
623.985	94
624.192	96
624.399	97
624.606	97
624.812	96
625.019	95
625.226	88
625.433	89
625.639	97
625.846	87
626.053	76
626.259	76
626.466	90
626.673	91
626.879	83
627.086	84
627.293	84
627.499	101
627.706	99
627.912	81
628.119	90
628.325	104
628.532	95
628.738	79
628.945	88
629.151	98
629.357	104
629.564	104
629.77	99
629.976	97
630.183	89
630.389	97
630.595	90
630.802	81
631.008	84
631.214	100
631.42	112
631.627	106
631.833	92
632.039	84
632.245	88
632.451	88
632.657	91
632.863	91
633.069	90
633.275	89
633.481	87
633.688	83
633.893	107
634.099	75
634.305	82
634.511	80
634.717	99
634.923	89
635.129	83
635.335	84
635.541	94
635.747	109
635.952	82
636.158	88
636.364	77
636.57	78
636.775	100
636.981	82
637.187	83
637.392	79
637.598	79
637.804	95
638.009	76
638.215	97
638.421	90
638.626	101
638.832	84
639.037	79
639.243	102
639.448	87
639.654	82
639.859	87
640.065	86
640.27	94
640.475	80
640.681	83
640.886	76
641.091	85
641.297	97
641.502	105
641.707	92
641.913	90
642.118	84
642.323	85
642.528	90
642.733	90
642.939	87
643.144	86
643.349	91
643.554	88
643.759	91
643.964	86
644.169	76
644.374	97
644.579	98
644.784	91
644.989	80
645.194	85
645.399	85
645.604	90
645.809	95
646.014	97
646.219	97
646.423	100
646.628	73
646.833	93
647.038	71
647.243	83
647.447	90
647.652	98
647.857	86
648.062	91
648.266	80
648.471	83
648.676	94
648.88	86
649.085	75
649.289	77
649.494	91
649.698	91
649.903	79
650.107	91
650.312	92
650.516	83
650.721	83
650.925	95
651.13	79
651.334	81
651.539	85
651.743	93
651.947	81
652.152	80
652.356	89
652.56	68
652.764	88
652.969	79
653.173	69
653.377	93
653.581	91
653.785	84
653.99	101
654.194	96
654.398	81
654.602	88
654.806	80
655.01	85
655.214	82
655.418	95
655.622	87
655.826	84
656.03	84
656.234	79
656.438	94
656.642	62
656.846	90
657.049	75
657.253	92
657.457	83
657.661	92
657.865	93
658.068	94
658.272	85
658.476	90
658.68	83
658.883	78
659.087	67
659.291	88
659.494	93
659.698	90
659.901	88
660.105	92
660.309	81
660.512	67
660.716	77
660.919	83
661.123	95
661.326	87
661.53	88
661.733	97
661.936	78
662.14	77
662.343	85
662.546	88
662.75	88
662.953	91
663.156	87
663.36	66
663.563	81
663.766	83
663.969	82
664.173	82
664.376	83
664.579	90
664.782	85
664.985	69
665.188	72
665.391	84
665.594	86
665.797	88
666	87
666.203	82
666.406	74
666.609	94
666.812	86
667.015	86
667.218	84
667.421	76
667.624	71
667.827	89
668.03	80
668.232	83
668.435	80
668.638	82
668.841	82
669.043	91
669.246	77
669.449	96
669.651	94
669.854	87
670.057	77
670.259	89
670.462	95
670.665	85
670.867	81
671.07	88
671.272	74
671.475	89
671.677	89
671.88	75
672.082	87
672.284	80
672.487	88
672.689	86
672.892	90
