Data from Location3.07152019.Energy5.Lamp.07192019.3%Agarose_HRD10591_15-17-54-269.txt Node
Date: Fri Jul 19 15:17:54 EDT 2019
User: cochatt
Spectrometer: HR+D1059
Trigger mode: 1
Integration Time (sec): 1.000000E-1
Scans to average: 1
Electric dark correction enabled: true
Nonlinearity correction enabled: false
Boxcar width: 0
XAxis mode: Wavelengths
Number of Pixels in Spectrum: 2048
>>>>>Begin Spectral Data<<<<<
223.165	-22
223.4	-22
223.635	-22
223.869	-16
224.104	-12
224.338	-25
224.573	-24
224.808	-20
225.042	-6
225.277	-3
225.511	7
225.746	9
225.98	4
226.215	3
226.449	19
226.683	29
226.918	25
227.152	32
227.387	24
227.621	37
227.856	39
228.09	48
228.324	54
228.559	58
228.793	59
229.027	67
229.262	61
229.496	79
229.73	80
229.964	71
230.199	63
230.433	82
230.667	83
230.901	75
231.136	67
231.37	77
231.604	69
231.838	91
232.072	92
232.306	79
232.541	95
232.775	74
233.009	91
233.243	101
233.477	90
233.711	78
233.945	83
234.179	76
234.413	89
234.647	96
234.881	86
235.115	95
235.349	86
235.583	92
235.817	82
236.051	78
236.285	62
236.519	82
236.753	84
236.987	79
237.221	72
237.455	87
237.689	75
237.922	86
238.156	75
238.39	74
238.624	82
238.858	70
239.091	71
239.325	85
239.559	79
239.793	78
240.027	81
240.26	80
240.494	80
240.728	83
240.961	91
241.195	91
241.429	84
241.662	63
241.896	84
242.13	88
242.363	76
242.597	80
242.83	77
243.064	85
243.298	78
243.531	102
243.765	100
243.998	94
244.232	87
244.465	92
244.699	88
244.932	88
245.166	85
245.399	90
245.633	72
245.866	74
246.099	79
246.333	92
246.566	75
246.8	79
247.033	77
247.266	72
247.5	65
247.733	80
247.966	85
248.2	74
248.433	74
248.666	83
248.899	80
249.133	90
249.366	70
249.599	91
249.832	80
250.066	78
250.299	85
250.532	92
250.765	83
250.998	68
251.231	80
251.465	88
251.698	91
251.931	75
252.164	90
252.397	89
252.63	94
252.863	93
253.096	85
253.329	85
253.562	93
253.795	75
254.028	85
254.261	88
254.494	74
254.727	73
254.96	91
255.193	83
255.426	82
255.659	80
255.892	79
256.124	92
256.357	84
256.59	85
256.823	72
257.056	84
257.289	89
257.521	94
257.754	76
257.987	82
258.22	84
258.452	78
258.685	67
258.918	83
259.151	77
259.383	78
259.616	78
259.849	81
260.081	83
260.314	80
260.547	70
260.779	86
261.012	96
261.244	92
261.477	84
261.71	80
261.942	75
262.175	83
262.407	89
262.64	79
262.872	91
263.105	86
263.337	83
263.57	78
263.802	80
264.035	91
264.267	94
264.499	80
264.732	88
264.964	89
265.197	84
265.429	78
265.661	80
265.894	83
266.126	93
266.358	91
266.591	83
266.823	80
267.055	62
267.287	88
267.52	88
267.752	99
267.984	84
268.216	91
268.448	90
268.681	80
268.913	78
269.145	68
269.377	95
269.609	91
269.841	90
270.073	92
270.306	90
270.538	88
270.77	76
271.002	82
271.234	78
271.466	91
271.698	85
271.93	83
272.162	78
272.394	71
272.626	71
272.858	92
273.09	78
273.322	105
273.553	87
273.785	98
274.017	80
274.249	96
274.481	86
274.713	77
274.945	73
275.176	80
275.408	98
275.64	93
275.872	79
276.104	102
276.335	80
276.567	87
276.799	79
277.031	85
277.262	92
277.494	86
277.726	84
277.957	74
278.189	84
278.421	94
278.652	73
278.884	68
279.115	91
279.347	92
279.579	98
279.81	98
280.042	96
280.273	70
280.505	89
280.736	87
280.968	81
281.199	103
281.431	79
281.662	86
281.894	76
282.125	73
282.356	93
282.588	85
282.819	89
283.051	87
283.282	86
283.513	95
283.745	89
283.976	80
284.207	79
284.439	82
284.67	87
284.901	84
285.132	79
285.364	86
285.595	96
285.826	83
286.057	98
286.288	84
286.52	94
286.751	93
286.982	87
287.213	95
287.444	80
287.675	87
287.906	89
288.138	88
288.369	93
288.6	80
288.831	93
289.062	78
289.293	97
289.524	84
289.755	76
289.986	101
290.217	94
290.448	75
290.679	88
290.91	91
291.141	83
291.371	88
291.602	83
291.833	77
292.064	91
292.295	95
292.526	91
292.757	102
292.987	80
293.218	80
293.449	90
293.68	91
293.91	87
294.141	99
294.372	91
294.603	86
294.833	79
295.064	85
295.295	82
295.525	92
295.756	90
295.987	79
296.217	73
296.448	93
296.679	85
296.909	80
297.14	91
297.37	92
297.601	97
297.831	97
298.062	88
298.292	89
298.523	76
298.753	88
298.984	105
299.214	88
299.445	86
299.675	106
299.905	93
300.136	79
300.366	93
300.597	91
300.827	87
301.057	84
301.288	102
301.518	93
301.748	87
301.979	97
302.209	84
302.439	95
302.669	90
302.9	94
303.13	96
303.36	87
303.59	89
303.82	97
304.051	89
304.281	98
304.511	91
304.741	99
304.971	79
305.201	77
305.431	82
305.661	84
305.891	88
306.121	103
306.352	82
306.582	94
306.812	80
307.042	91
307.272	90
307.502	91
307.731	85
307.961	94
308.191	89
308.421	97
308.651	96
308.881	91
309.111	86
309.341	89
309.571	92
309.8	94
310.03	93
310.26	74
310.49	85
310.72	85
310.949	98
311.179	100
311.409	76
311.639	89
311.868	84
312.098	95
312.328	77
312.557	85
312.787	83
313.017	75
313.246	96
313.476	83
313.706	87
313.935	90
314.165	82
314.394	110
314.624	93
314.853	99
315.083	101
315.312	81
315.542	90
315.771	87
316.001	94
316.23	86
316.46	90
316.689	80
316.919	79
317.148	109
317.377	77
317.607	102
317.836	93
318.065	78
318.295	94
318.524	81
318.753	99
318.983	91
319.212	106
319.441	79
319.67	74
319.9	92
320.129	86
320.358	85
320.587	85
320.816	85
321.046	93
321.275	92
321.504	82
321.733	89
321.962	87
322.191	86
322.42	93
322.649	80
322.878	90
323.108	96
323.337	84
323.566	86
323.795	94
324.024	88
324.253	86
324.482	92
324.71	99
324.939	94
325.168	92
325.397	89
325.626	98
325.855	96
326.084	78
326.313	100
326.542	93
326.77	100
326.999	99
327.228	100
327.457	75
327.686	81
327.914	68
328.143	91
328.372	76
328.6	91
328.829	86
329.058	78
329.287	82
329.515	99
329.744	74
329.972	87
330.201	92
330.43	63
330.658	95
330.887	108
331.115	87
331.344	95
331.572	85
331.801	66
332.03	73
332.258	87
332.486	78
332.715	87
332.943	95
333.172	88
333.4	87
333.629	99
333.857	91
334.085	101
334.314	81
334.542	104
334.771	83
334.999	100
335.227	86
335.455	100
335.684	102
335.912	89
336.14	111
336.369	77
336.597	73
336.825	88
337.053	67
337.281	86
337.51	72
337.738	92
337.966	85
338.194	98
338.422	90
338.65	81
338.878	88
339.106	90
339.334	103
339.562	85
339.79	90
340.018	100
340.246	90
340.474	90
340.702	82
340.93	87
341.158	96
341.386	96
341.614	68
341.842	88
342.07	95
342.298	83
342.526	103
342.754	84
342.981	88
343.209	90
343.437	90
343.665	85
343.893	91
344.12	86
344.348	97
344.576	85
344.804	96
345.031	87
345.259	102
345.487	90
345.714	85
345.942	87
346.17	99
346.397	91
346.625	87
346.853	84
347.08	102
347.308	83
347.535	74
347.763	83
347.99	85
348.218	86
348.445	97
348.673	88
348.9	94
349.128	99
349.355	87
349.583	86
349.81	87
350.037	85
350.265	93
350.492	100
350.72	85
350.947	82
351.174	83
351.402	93
351.629	101
351.856	87
352.083	71
352.311	92
352.538	78
352.765	90
352.992	101
353.22	88
353.447	96
353.674	78
353.901	83
354.128	90
354.355	84
354.583	94
354.81	83
355.037	72
355.264	85
355.491	77
355.718	73
355.945	93
356.172	89
356.399	94
356.626	80
356.853	75
357.08	90
357.307	93
357.534	97
357.761	84
357.988	88
358.215	87
358.441	78
358.668	90
358.895	81
359.122	100
359.349	85
359.576	86
359.802	92
360.029	75
360.256	94
360.483	93
360.709	97
360.936	86
361.163	94
361.39	75
361.616	93
361.843	82
362.07	91
362.296	82
362.523	85
362.749	75
362.976	97
363.203	98
363.429	78
363.656	93
363.882	95
364.109	79
364.335	89
364.562	93
364.788	86
365.015	96
365.241	82
365.468	91
365.694	76
365.92	92
366.147	89
366.373	81
366.599	86
366.826	83
367.052	80
367.278	86
367.505	91
367.731	78
367.957	76
368.184	83
368.41	90
368.636	78
368.862	83
369.089	77
369.315	88
369.541	86
369.767	96
369.993	86
370.219	98
370.445	75
370.672	74
370.898	87
371.124	85
371.35	87
371.576	93
371.802	88
372.028	93
372.254	93
372.48	88
372.706	94
372.932	83
373.158	92
373.384	95
373.61	82
373.835	86
374.061	94
374.287	84
374.513	90
374.739	80
374.965	90
375.191	85
375.416	82
375.642	88
375.868	94
376.094	93
376.319	95
376.545	89
376.771	84
376.997	91
377.222	93
377.448	82
377.674	89
377.899	85
378.125	85
378.35	105
378.576	99
378.802	100
379.027	85
379.253	84
379.478	82
379.704	87
379.929	83
380.155	88
380.38	97
380.606	96
380.831	95
381.057	99
381.282	94
381.507	97
381.733	78
381.958	93
382.184	80
382.409	101
382.634	102
382.86	95
383.085	99
383.31	94
383.535	86
383.761	92
383.986	104
384.211	96
384.436	95
384.662	90
384.887	85
385.112	86
385.337	92
385.562	83
385.787	88
386.013	74
386.238	86
386.463	86
386.688	83
386.913	95
387.138	83
387.363	82
387.588	98
387.813	90
388.038	104
388.263	95
388.488	89
388.713	91
388.938	91
389.163	91
389.387	91
389.612	84
389.837	79
390.062	93
390.287	91
390.512	81
390.736	87
390.961	96
391.186	92
391.411	99
391.636	106
391.86	102
392.085	89
392.31	92
392.534	92
392.759	84
392.984	92
393.208	93
393.433	101
393.658	87
393.882	96
394.107	98
394.331	98
394.556	84
394.78	99
395.005	98
395.229	103
395.454	93
395.678	86
395.903	87
396.127	86
396.352	89
396.576	94
396.801	86
397.025	98
397.249	97
397.474	92
397.698	96
397.922	115
398.147	82
398.371	104
398.595	109
398.82	93
399.044	90
399.268	78
399.492	88
399.717	93
399.941	84
400.165	83
400.389	87
400.613	98
400.837	101
401.062	85
401.286	92
401.51	94
401.734	94
401.958	104
402.182	97
402.406	99
402.63	89
402.854	86
403.078	85
403.302	90
403.526	87
403.75	104
403.974	103
404.198	103
404.422	99
404.645	91
404.869	91
405.093	91
405.317	78
405.541	99
405.765	86
405.988	76
406.212	81
406.436	91
406.66	107
406.883	91
407.107	81
407.331	103
407.555	79
407.778	101
408.002	92
408.226	94
408.449	101
408.673	94
408.896	92
409.12	89
409.344	85
409.567	93
409.791	92
410.014	95
410.238	98
410.461	85
410.685	96
410.908	96
411.132	112
411.355	92
411.578	111
411.802	95
412.025	90
412.249	92
412.472	88
412.695	97
412.919	98
413.142	110
413.365	96
413.589	91
413.812	95
414.035	94
414.258	102
414.482	91
414.705	102
414.928	105
415.151	99
415.374	90
415.597	92
415.821	109
416.044	94
416.267	106
416.49	93
416.713	95
416.936	94
417.159	96
417.382	95
417.605	100
417.828	101
418.051	88
418.274	92
418.497	99
418.72	98
418.943	105
419.166	108
419.389	100
419.611	87
419.834	101
420.057	81
420.28	80
420.503	102
420.726	103
420.948	98
421.171	90
421.394	93
421.617	95
421.839	87
422.062	93
422.285	89
422.507	90
422.73	92
422.953	92
423.175	103
423.398	90
423.621	88
423.843	91
424.066	95
424.288	96
424.511	101
424.733	104
424.956	104
425.178	105
425.401	96
425.623	116
425.846	105
426.068	92
426.291	106
426.513	86
426.735	99
426.958	92
427.18	105
427.402	98
427.625	88
427.847	95
428.069	116
428.292	102
428.514	92
428.736	111
428.958	106
429.181	92
429.403	91
429.625	92
429.847	91
430.069	101
430.292	86
430.514	86
430.736	104
430.958	92
431.18	104
431.402	95
431.624	101
431.846	91
432.068	84
432.29	94
432.512	104
432.734	91
432.956	100
433.178	108
433.4	104
433.622	97
433.844	99
434.066	94
434.287	91
434.509	84
434.731	79
434.953	100
435.175	94
435.397	98
435.618	107
435.84	96
436.062	87
436.284	98
436.505	107
436.727	108
436.949	105
437.17	94
437.392	74
437.614	96
437.835	88
438.057	91
438.278	87
438.5	91
438.721	98
438.943	93
439.165	91
439.386	117
439.608	98
439.829	80
440.05	107
440.272	95
440.493	83
440.715	114
440.936	93
441.158	96
441.379	99
441.6	96
441.822	105
442.043	108
442.264	106
442.486	88
442.707	98
442.928	98
443.149	106
443.371	104
443.592	92
443.813	96
444.034	115
444.255	101
444.476	104
444.698	107
444.919	104
445.14	202
445.361	142
445.582	119
445.803	98
446.024	98
446.245	112
446.466	111
446.687	117
446.908	103
447.129	107
447.35	108
447.571	88
447.792	104
448.013	114
448.234	101
448.455	97
448.675	117
448.896	94
449.117	111
449.338	91
449.559	107
449.779	97
450	102
450.221	98
450.442	99
450.662	96
450.883	98
451.104	103
451.324	98
451.545	95
451.766	95
451.986	98
452.207	109
452.428	108
452.648	81
452.869	105
453.089	98
453.31	96
453.53	97
453.751	94
453.971	92
454.192	100
454.412	104
454.633	90
454.853	93
455.073	112
455.294	99
455.514	114
455.734	106
455.955	99
456.175	91
456.395	99
456.616	91
456.836	84
457.056	80
457.276	94
457.497	99
457.717	89
457.937	100
458.157	85
458.377	99
458.598	102
458.818	88
459.038	80
459.258	94
459.478	82
459.698	93
459.918	86
460.138	78
460.358	96
460.578	103
460.798	95
461.018	104
461.238	101
461.458	99
461.678	106
461.898	92
462.118	96
462.338	101
462.558	99
462.777	83
462.997	101
463.217	98
463.437	106
463.657	92
463.876	94
464.096	86
464.316	102
464.536	101
464.755	101
464.975	94
465.195	84
465.414	80
465.634	96
465.854	98
466.073	99
466.293	88
466.512	100
466.732	103
466.951	89
467.171	87
467.391	90
467.61	82
467.829	100
468.049	108
468.268	105
468.488	85
468.707	104
468.927	120
469.146	108
469.365	90
469.585	104
469.804	116
470.023	99
470.243	97
470.462	95
470.681	98
470.901	107
471.12	105
471.339	100
471.558	103
471.777	92
471.997	85
472.216	99
472.435	114
472.654	89
472.873	101
473.092	86
473.311	101
473.53	90
473.749	102
473.968	95
474.187	99
474.406	99
474.625	106
474.844	101
475.063	100
475.282	90
475.501	99
475.72	106
475.939	91
476.158	116
476.377	114
476.596	107
476.814	115
477.033	94
477.252	97
477.471	99
477.69	89
477.908	92
478.127	99
478.346	112
478.564	113
478.783	99
479.002	93
479.22	102
479.439	99
479.658	101
479.876	94
480.095	100
480.313	90
480.532	95
480.751	95
480.969	94
481.188	87
481.406	91
481.624	83
481.843	83
482.061	79
482.28	82
482.498	104
482.717	102
482.935	97
483.153	82
483.372	103
483.59	114
483.808	107
484.027	97
484.245	92
484.463	108
484.681	132
484.9	120
485.118	107
485.336	90
485.554	102
485.772	95
485.99	98
486.209	80
486.427	99
486.645	79
486.863	109
487.081	117
487.299	92
487.517	100
487.735	104
487.953	122
488.171	122
488.389	107
488.607	104
488.825	94
489.043	87
489.261	92
489.479	98
489.696	103
489.914	103
490.132	102
490.35	100
490.568	110
490.786	104
491.003	119
491.221	114
491.439	107
491.657	115
491.874	120
492.092	124
492.31	124
492.527	128
492.745	120
492.963	125
493.18	123
493.398	116
493.615	107
493.833	109
494.05	100
494.268	118
494.485	119
494.703	124
494.92	116
495.138	115
495.355	100
495.573	125
495.79	115
496.008	115
496.225	107
496.442	115
496.66	128
496.877	119
497.094	110
497.312	111
497.529	111
497.746	90
497.963	109
498.181	97
498.398	93
498.615	99
498.832	86
499.049	104
499.267	98
499.484	100
499.701	96
499.918	90
500.135	96
500.352	98
500.569	95
500.786	93
501.003	111
501.22	109
501.437	103
501.654	101
501.871	101
502.088	97
502.305	108
502.522	91
502.739	111
502.956	102
503.172	106
503.389	88
503.606	101
503.823	101
504.04	87
504.256	99
504.473	104
504.69	103
504.907	104
505.123	118
505.34	104
505.557	97
505.773	99
505.99	98
506.207	103
506.423	84
506.64	96
506.856	91
507.073	102
507.289	96
507.506	110
507.722	86
507.939	82
508.155	84
508.372	92
508.588	103
508.805	100
509.021	92
509.238	104
509.454	96
509.67	85
509.887	87
510.103	99
510.319	93
510.536	87
510.752	85
510.968	102
511.184	81
511.401	72
511.617	83
511.833	87
512.049	87
512.265	92
512.481	97
512.698	86
512.914	91
513.13	86
513.346	84
513.562	86
513.778	78
513.994	82
514.21	89
514.426	102
514.642	84
514.858	83
515.074	94
515.29	90
515.506	92
515.721	99
515.937	88
516.153	91
516.369	93
516.585	74
516.801	60
517.016	83
517.232	91
517.448	88
517.664	90
517.879	91
518.095	94
518.311	88
518.527	90
518.742	88
518.958	95
519.173	85
519.389	94
519.605	87
519.82	104
520.036	93
520.251	96
520.467	85
520.682	89
520.898	96
521.113	86
521.329	75
521.544	83
521.76	106
521.975	81
522.19	98
522.406	93
522.621	90
522.836	81
523.052	98
523.267	98
523.482	94
523.698	98
523.913	94
524.128	91
524.343	85
524.559	91
524.774	98
524.989	107
525.204	104
525.419	102
525.634	108
525.849	94
526.064	94
526.28	90
526.495	98
526.71	99
526.925	88
527.14	79
527.355	86
527.57	93
527.785	101
527.999	92
528.214	87
528.429	84
528.644	96
528.859	92
529.074	116
529.289	108
529.503	106
529.718	115
529.933	94
530.148	94
530.363	87
530.577	81
530.792	86
531.007	83
531.221	99
531.436	87
531.651	95
531.865	94
532.08	86
532.295	92
532.509	80
532.724	81
532.938	87
533.153	90
533.367	94
533.582	110
533.796	96
534.011	99
534.225	84
534.44	91
534.654	95
534.868	85
535.083	86
535.297	83
535.511	102
535.726	103
535.94	92
536.154	86
536.369	91
536.583	88
536.797	99
537.011	89
537.225	93
537.44	87
537.654	88
537.868	89
538.082	92
538.296	95
538.51	91
538.724	95
538.938	101
539.153	94
539.367	114
539.581	88
539.795	93
540.009	93
540.222	86
540.436	91
540.65	106
540.864	101
541.078	114
541.292	108
541.506	105
541.72	122
541.934	130
542.147	119
542.361	110
542.575	136
542.789	106
543.002	107
543.216	94
543.43	104
543.644	92
543.857	118
544.071	121
544.285	117
544.498	111
544.712	112
544.925	113
545.139	113
545.352	111
545.566	117
545.779	111
545.993	118
546.206	116
546.42	101
546.633	110
546.847	121
547.06	114
547.274	123
547.487	119
547.7	114
547.914	116
548.127	106
548.34	116
548.554	122
548.767	109
548.98	111
549.193	105
549.407	113
549.62	104
549.833	111
550.046	109
550.259	112
550.473	111
550.686	111
550.899	100
551.112	110
551.325	108
551.538	114
551.751	102
551.964	96
552.177	104
552.39	98
552.603	105
552.816	117
553.029	120
553.242	100
553.455	108
553.667	126
553.88	106
554.093	108
554.306	110
554.519	115
554.732	93
554.944	108
555.157	98
555.37	114
555.583	114
555.795	110
556.008	107
556.221	106
556.433	115
556.646	105
556.859	104
557.071	94
557.284	98
557.496	111
557.709	120
557.921	112
558.134	108
558.346	99
558.559	122
558.771	103
558.984	106
559.196	105
559.409	100
559.621	114
559.833	96
560.046	100
560.258	105
560.47	93
560.683	94
560.895	106
561.107	103
561.32	86
561.532	115
561.744	112
561.956	102
562.168	111
562.381	91
562.593	97
562.805	98
563.017	97
563.229	103
563.441	107
563.653	103
563.865	94
564.077	87
564.289	95
564.501	99
564.713	93
564.925	101
565.137	104
565.349	92
565.561	92
565.773	102
565.985	89
566.197	101
566.408	116
566.62	105
566.832	95
567.044	89
567.255	102
567.467	96
567.679	93
567.891	102
568.102	114
568.314	96
568.526	98
568.737	92
568.949	85
569.161	92
569.372	79
569.584	80
569.795	95
570.007	82
570.218	84
570.43	82
570.641	105
570.853	88
571.064	95
571.276	92
571.487	91
571.698	93
571.91	101
572.121	105
572.333	90
572.544	85
572.755	88
572.966	87
573.178	83
573.389	102
573.6	99
573.811	86
574.023	82
574.234	87
574.445	96
574.656	86
574.867	95
575.078	87
575.289	94
575.501	102
575.712	103
575.923	101
576.134	88
576.345	95
576.556	99
576.767	87
576.978	98
577.188	100
577.399	96
577.61	99
577.821	95
578.032	94
578.243	100
578.454	93
578.665	98
578.875	95
579.086	91
579.297	91
579.508	84
579.718	76
579.929	88
580.14	89
580.35	111
580.561	84
580.772	90
580.982	80
581.193	68
581.403	90
581.614	100
581.825	94
582.035	91
582.246	87
582.456	76
582.667	88
582.877	86
583.087	93
583.298	95
583.508	102
583.719	102
583.929	94
584.139	87
584.35	82
584.56	101
584.77	85
584.981	92
585.191	89
585.401	96
585.611	73
585.821	100
586.032	103
586.242	92
586.452	95
586.662	81
586.872	85
587.082	90
587.292	102
587.502	95
587.713	96
587.923	89
588.133	95
588.343	93
588.553	86
588.762	84
588.972	88
589.182	84
589.392	100
589.602	92
589.812	78
590.022	89
590.232	102
590.441	93
590.651	93
590.861	87
591.071	98
591.281	98
591.49	96
591.7	101
591.91	94
592.119	90
592.329	109
592.539	81
592.748	92
592.958	80
593.167	88
593.377	91
593.587	98
593.796	95
594.006	97
594.215	103
594.424	83
594.634	84
594.843	101
595.053	92
595.262	90
595.472	93
595.681	92
595.89	81
596.1	98
596.309	95
596.518	88
596.727	100
596.937	92
597.146	96
597.355	88
597.564	106
597.774	85
597.983	81
598.192	75
598.401	87
598.61	104
598.819	98
599.028	101
599.237	98
599.446	91
599.655	96
599.864	75
600.073	91
600.282	90
600.491	87
600.7	87
600.909	87
601.118	89
601.327	105
601.536	106
601.745	89
601.953	103
602.162	104
602.371	93
602.58	91
602.789	92
602.997	94
603.206	91
603.415	87
603.623	84
603.832	111
604.041	104
604.249	86
604.458	86
604.666	99
604.875	105
605.084	100
605.292	100
605.501	98
605.709	99
605.918	91
606.126	102
606.334	97
606.543	92
606.751	109
606.96	92
607.168	109
607.376	96
607.585	92
607.793	90
608.001	96
608.21	107
608.418	100
608.626	87
608.834	95
609.043	93
609.251	94
609.459	87
609.667	100
609.875	105
610.083	115
610.291	89
610.499	100
610.707	100
610.916	90
611.124	106
611.332	86
611.54	110
611.748	105
611.955	94
612.163	85
612.371	107
612.579	90
612.787	98
612.995	107
613.203	86
613.411	85
613.618	95
613.826	100
614.034	93
614.242	94
614.449	94
614.657	90
614.865	99
615.072	87
615.28	83
615.488	99
615.695	104
615.903	99
616.111	96
616.318	114
616.526	102
616.733	111
616.941	91
617.148	89
617.356	87
617.563	94
617.771	90
617.978	85
618.185	85
618.393	84
618.6	98
618.807	81
619.015	104
619.222	98
619.429	87
619.637	77
619.844	83
620.051	105
620.258	96
620.466	105
620.673	87
620.88	71
621.087	102
621.294	97
621.501	85
621.708	101
621.915	93
622.122	92
622.329	98
622.536	95
622.743	79
622.95	103
623.157	103
623.364	85
623.571	95
623.778	97
623.985	98
624.192	92
624.399	95
624.606	96
624.812	118
625.019	95
625.226	86
625.433	99
625.639	100
625.846	79
626.053	80
626.259	93
626.466	88
626.673	96
626.879	81
627.086	80
627.293	94
627.499	89
627.706	89
627.912	94
628.119	92
628.325	91
628.532	89
628.738	86
628.945	93
629.151	97
629.357	90
629.564	94
629.77	100
629.976	91
630.183	86
630.389	104
630.595	95
630.802	86
631.008	91
631.214	94
631.42	101
631.627	102
631.833	90
632.039	93
632.245	95
632.451	95
632.657	102
632.863	92
633.069	95
633.275	87
633.481	94
633.688	91
633.893	88
634.099	91
634.305	95
634.511	79
634.717	94
634.923	86
635.129	93
635.335	93
635.541	109
635.747	106
635.952	106
636.158	83
636.364	94
636.57	92
636.775	104
636.981	89
637.187	94
637.392	98
637.598	93
637.804	85
638.009	84
638.215	89
638.421	96
638.626	95
638.832	96
639.037	101
639.243	99
639.448	81
639.654	92
639.859	94
640.065	80
640.27	95
640.475	103
640.681	100
640.886	98
641.091	103
641.297	108
641.502	103
641.707	102
641.913	98
642.118	83
642.323	91
642.528	92
642.733	87
642.939	102
643.144	101
643.349	87
643.554	99
643.759	100
643.964	99
644.169	87
644.374	93
644.579	79
644.784	86
644.989	84
645.194	92
645.399	99
645.604	86
645.809	101
646.014	93
646.219	87
646.423	84
646.628	103
646.833	88
647.038	101
647.243	90
647.447	78
647.652	77
647.857	96
648.062	81
648.266	96
648.471	93
648.676	93
648.88	100
649.085	94
649.289	94
649.494	93
649.698	113
649.903	105
650.107	82
650.312	83
650.516	94
650.721	99
650.925	90
651.13	94
651.334	85
651.539	104
651.743	93
651.947	90
652.152	91
652.356	90
652.56	91
652.764	82
652.969	91
653.173	86
653.377	106
653.581	93
653.785	70
653.99	89
654.194	100
654.398	88
654.602	94
654.806	101
655.01	112
655.214	88
655.418	80
655.622	94
655.826	96
656.03	85
656.234	78
656.438	92
656.642	82
656.846	76
657.049	83
657.253	85
657.457	84
657.661	79
657.865	84
658.068	99
658.272	92
658.476	87
658.68	108
658.883	77
659.087	94
659.291	92
659.494	98
659.698	80
659.901	96
660.105	77
660.309	89
660.512	95
660.716	70
660.919	72
661.123	95
661.326	87
661.53	98
661.733	92
661.936	92
662.14	88
662.343	99
662.546	88
662.75	95
662.953	88
663.156	70
663.36	95
663.563	74
663.766	90
663.969	69
664.173	85
664.376	76
664.579	75
664.782	69
664.985	90
665.188	91
665.391	106
665.594	92
665.797	96
666	83
666.203	90
666.406	108
666.609	82
666.812	93
667.015	103
667.218	71
667.421	83
667.624	85
667.827	83
668.03	85
668.232	88
668.435	85
668.638	83
668.841	85
669.043	67
669.246	91
669.449	97
669.651	95
669.854	80
670.057	78
670.259	90
670.462	92
670.665	83
670.867	86
671.07	84
671.272	87
671.475	80
671.677	98
671.88	75
672.082	88
672.284	88
672.487	98
672.689	86
672.892	78
