Data from Location3.07152019.Energy5.Lamp.07192019.3%Agarose_HRD10591_15-19-02-270.txt Node
Date: Fri Jul 19 15:19:02 EDT 2019
User: cochatt
Spectrometer: HR+D1059
Trigger mode: 1
Integration Time (sec): 1.000000E-1
Scans to average: 1
Electric dark correction enabled: true
Nonlinearity correction enabled: false
Boxcar width: 0
XAxis mode: Wavelengths
Number of Pixels in Spectrum: 2048
>>>>>Begin Spectral Data<<<<<
223.165	-18
223.4	-18
223.635	-18
223.869	-33
224.104	-15
224.338	-18
224.573	-23
224.808	0
225.042	-18
225.277	9
225.511	-1
225.746	-4
225.98	10
226.215	3
226.449	25
226.683	24
226.918	21
227.152	38
227.387	36
227.621	28
227.856	45
228.09	49
228.324	56
228.559	71
228.793	69
229.027	63
229.262	63
229.496	65
229.73	66
229.964	73
230.199	68
230.433	74
230.667	73
230.901	77
231.136	63
231.37	89
231.604	93
231.838	78
232.072	86
232.306	79
232.541	91
232.775	82
233.009	88
233.243	82
233.477	88
233.711	66
233.945	84
234.179	75
234.413	86
234.647	77
234.881	69
235.115	70
235.349	80
235.583	75
235.817	78
236.051	71
236.285	78
236.519	73
236.753	74
236.987	72
237.221	67
237.455	78
237.689	65
237.922	68
238.156	82
238.39	74
238.624	79
238.858	71
239.091	86
239.325	73
239.559	65
239.793	88
240.027	80
240.26	96
240.494	71
240.728	80
240.961	80
241.195	68
241.429	91
241.662	59
241.896	85
242.13	80
242.363	67
242.597	72
242.83	67
243.064	73
243.298	85
243.531	87
243.765	78
243.998	82
244.232	69
244.465	71
244.699	92
244.932	88
245.166	78
245.399	79
245.633	73
245.866	84
246.099	76
246.333	85
246.566	78
246.8	73
247.033	83
247.266	84
247.5	92
247.733	87
247.966	85
248.2	83
248.433	79
248.666	79
248.899	72
249.133	72
249.366	77
249.599	86
249.832	78
250.066	74
250.299	77
250.532	76
250.765	82
250.998	87
251.231	71
251.465	87
251.698	72
251.931	64
252.164	73
252.397	81
252.63	81
252.863	82
253.096	73
253.329	90
253.562	75
253.795	81
254.028	69
254.261	72
254.494	74
254.727	75
254.96	89
255.193	71
255.426	81
255.659	78
255.892	81
256.124	74
256.357	74
256.59	74
256.823	90
257.056	77
257.289	85
257.521	73
257.754	80
257.987	80
258.22	89
258.452	67
258.685	76
258.918	82
259.151	84
259.383	81
259.616	73
259.849	67
260.081	83
260.314	81
260.547	86
260.779	88
261.012	70
261.244	89
261.477	72
261.71	71
261.942	79
262.175	86
262.407	80
262.64	69
262.872	83
263.105	91
263.337	73
263.57	78
263.802	86
264.035	79
264.267	88
264.499	83
264.732	87
264.964	76
265.197	85
265.429	72
265.661	77
265.894	87
266.126	82
266.358	81
266.591	70
266.823	87
267.055	76
267.287	91
267.52	84
267.752	58
267.984	70
268.216	82
268.448	80
268.681	85
268.913	80
269.145	78
269.377	100
269.609	95
269.841	82
270.073	85
270.306	89
270.538	81
270.77	71
271.002	77
271.234	77
271.466	82
271.698	69
271.93	78
272.162	91
272.394	91
272.626	88
272.858	85
273.09	83
273.322	87
273.553	77
273.785	95
274.017	90
274.249	77
274.481	80
274.713	79
274.945	83
275.176	79
275.408	87
275.64	93
275.872	85
276.104	75
276.335	78
276.567	83
276.799	95
277.031	79
277.262	75
277.494	74
277.726	71
277.957	88
278.189	82
278.421	81
278.652	70
278.884	84
279.115	67
279.347	80
279.579	82
279.81	84
280.042	75
280.273	79
280.505	82
280.736	95
280.968	98
281.199	82
281.431	91
281.662	73
281.894	78
282.125	86
282.356	83
282.588	84
282.819	83
283.051	85
283.282	71
283.513	84
283.745	81
283.976	85
284.207	79
284.439	84
284.67	78
284.901	101
285.132	86
285.364	74
285.595	93
285.826	84
286.057	87
286.288	98
286.52	85
286.751	81
286.982	90
287.213	78
287.444	85
287.675	72
287.906	100
288.138	84
288.369	77
288.6	86
288.831	80
289.062	87
289.293	88
289.524	72
289.755	64
289.986	87
290.217	73
290.448	88
290.679	96
290.91	79
291.141	82
291.371	82
291.602	74
291.833	83
292.064	87
292.295	79
292.526	86
292.757	82
292.987	79
293.218	87
293.449	93
293.68	90
293.91	85
294.141	83
294.372	85
294.603	87
294.833	78
295.064	67
295.295	88
295.525	77
295.756	81
295.987	83
296.217	83
296.448	87
296.679	87
296.909	78
297.14	93
297.37	80
297.601	97
297.831	88
298.062	85
298.292	94
298.523	78
298.753	79
298.984	88
299.214	70
299.445	87
299.675	65
299.905	79
300.136	80
300.366	81
300.597	85
300.827	83
301.057	75
301.288	84
301.518	85
301.748	82
301.979	84
302.209	74
302.439	81
302.669	93
302.9	100
303.13	86
303.36	78
303.59	91
303.82	86
304.051	89
304.281	80
304.511	81
304.741	93
304.971	90
305.201	75
305.431	86
305.661	86
305.891	83
306.121	85
306.352	97
306.582	68
306.812	77
307.042	86
307.272	88
307.502	97
307.731	81
307.961	83
308.191	91
308.421	86
308.651	78
308.881	66
309.111	101
309.341	88
309.571	83
309.8	87
310.03	90
310.26	87
310.49	89
310.72	82
310.949	80
311.179	79
311.409	79
311.639	91
311.868	76
312.098	91
312.328	80
312.557	92
312.787	81
313.017	78
313.246	89
313.476	80
313.706	92
313.935	70
314.165	85
314.394	94
314.624	84
314.853	90
315.083	86
315.312	87
315.542	82
315.771	78
316.001	78
316.23	93
316.46	82
316.689	84
316.919	82
317.148	74
317.377	95
317.607	81
317.836	95
318.065	86
318.295	84
318.524	82
318.753	86
318.983	83
319.212	105
319.441	77
319.67	75
319.9	86
320.129	91
320.358	81
320.587	94
320.816	82
321.046	103
321.275	93
321.504	79
321.733	83
321.962	89
322.191	92
322.42	90
322.649	80
322.878	79
323.108	87
323.337	87
323.566	83
323.795	87
324.024	66
324.253	89
324.482	73
324.71	91
324.939	98
325.168	84
325.397	98
325.626	87
325.855	82
326.084	100
326.313	83
326.542	80
326.77	83
326.999	95
327.228	83
327.457	82
327.686	92
327.914	83
328.143	87
328.372	95
328.6	58
328.829	79
329.058	70
329.287	77
329.515	73
329.744	83
329.972	85
330.201	96
330.43	95
330.658	96
330.887	77
331.115	79
331.344	82
331.572	100
331.801	82
332.03	86
332.258	89
332.486	87
332.715	90
332.943	75
333.172	91
333.4	82
333.629	88
333.857	78
334.085	76
334.314	83
334.542	75
334.771	79
334.999	76
335.227	86
335.455	94
335.684	79
335.912	78
336.14	81
336.369	81
336.597	73
336.825	75
337.053	81
337.281	85
337.51	92
337.738	85
337.966	89
338.194	83
338.422	82
338.65	86
338.878	78
339.106	75
339.334	88
339.562	81
339.79	73
340.018	83
340.246	69
340.474	85
340.702	91
340.93	84
341.158	89
341.386	73
341.614	78
341.842	91
342.07	87
342.298	76
342.526	83
342.754	79
342.981	89
343.209	78
343.437	86
343.665	85
343.893	90
344.12	79
344.348	94
344.576	78
344.804	81
345.031	86
345.259	78
345.487	84
345.714	83
345.942	73
346.17	88
346.397	88
346.625	81
346.853	75
347.08	90
347.308	88
347.535	80
347.763	78
347.99	86
348.218	96
348.445	95
348.673	87
348.9	83
349.128	91
349.355	67
349.583	73
349.81	74
350.037	76
350.265	76
350.492	83
350.72	98
350.947	86
351.174	95
351.402	86
351.629	86
351.856	84
352.083	78
352.311	94
352.538	75
352.765	88
352.992	77
353.22	94
353.447	84
353.674	84
353.901	100
354.128	84
354.355	89
354.583	88
354.81	82
355.037	93
355.264	81
355.491	84
355.718	88
355.945	90
356.172	73
356.399	98
356.626	81
356.853	88
357.08	85
357.307	66
357.534	83
357.761	87
357.988	91
358.215	80
358.441	106
358.668	73
358.895	79
359.122	77
359.349	83
359.576	75
359.802	86
360.029	90
360.256	79
360.483	74
360.709	82
360.936	71
361.163	79
361.39	81
361.616	96
361.843	80
362.07	90
362.296	87
362.523	70
362.749	64
362.976	87
363.203	82
363.429	87
363.656	75
363.882	69
364.109	87
364.335	78
364.562	82
364.788	89
365.015	73
365.241	74
365.468	79
365.694	86
365.92	94
366.147	90
366.373	84
366.599	81
366.826	84
367.052	85
367.278	82
367.505	95
367.731	75
367.957	83
368.184	80
368.41	81
368.636	78
368.862	78
369.089	93
369.315	94
369.541	98
369.767	73
369.993	82
370.219	88
370.445	73
370.672	86
370.898	74
371.124	75
371.35	73
371.576	84
371.802	96
372.028	103
372.254	72
372.48	79
372.706	77
372.932	91
373.158	85
373.384	86
373.61	84
373.835	82
374.061	87
374.287	85
374.513	91
374.739	96
374.965	73
375.191	83
375.416	83
375.642	82
375.868	78
376.094	74
376.319	77
376.545	86
376.771	84
376.997	82
377.222	68
377.448	90
377.674	87
377.899	86
378.125	67
378.35	85
378.576	97
378.802	70
379.027	77
379.253	78
379.478	73
379.704	84
379.929	88
380.155	94
380.38	90
380.606	87
380.831	103
381.057	79
381.282	81
381.507	90
381.733	81
381.958	80
382.184	76
382.409	89
382.634	97
382.86	85
383.085	74
383.31	58
383.535	83
383.761	66
383.986	87
384.211	93
384.436	90
384.662	88
384.887	79
385.112	71
385.337	88
385.562	86
385.787	88
386.013	80
386.238	94
386.463	81
386.688	85
386.913	90
387.138	74
387.363	82
387.588	87
387.813	86
388.038	86
388.263	79
388.488	75
388.713	99
388.938	94
389.163	78
389.387	91
389.612	87
389.837	96
390.062	87
390.287	77
390.512	78
390.736	83
390.961	85
391.186	93
391.411	89
391.636	83
391.86	74
392.085	91
392.31	74
392.534	89
392.759	73
392.984	97
393.208	88
393.433	82
393.658	98
393.882	90
394.107	79
394.331	86
394.556	83
394.78	95
395.005	98
395.229	84
395.454	94
395.678	77
395.903	86
396.127	86
396.352	96
396.576	75
396.801	69
397.025	87
397.249	88
397.474	74
397.698	86
397.922	102
398.147	86
398.371	79
398.595	88
398.82	79
399.044	85
399.268	79
399.492	91
399.717	103
399.941	99
400.165	90
400.389	93
400.613	98
400.837	83
401.062	97
401.286	89
401.51	74
401.734	80
401.958	99
402.182	86
402.406	85
402.63	89
402.854	83
403.078	85
403.302	92
403.526	88
403.75	87
403.974	86
404.198	86
404.422	91
404.645	102
404.869	91
405.093	106
405.317	99
405.541	90
405.765	82
405.988	91
406.212	71
406.436	86
406.66	82
406.883	78
407.107	84
407.331	93
407.555	90
407.778	74
408.002	95
408.226	85
408.449	89
408.673	86
408.896	83
409.12	89
409.344	99
409.567	84
409.791	77
410.014	96
410.238	93
410.461	87
410.685	99
410.908	82
411.132	89
411.355	97
411.578	97
411.802	96
412.025	91
412.249	85
412.472	82
412.695	86
412.919	86
413.142	91
413.365	91
413.589	86
413.812	90
414.035	81
414.258	84
414.482	93
414.705	89
414.928	91
415.151	94
415.374	78
415.597	87
415.821	107
416.044	95
416.267	102
416.49	83
416.713	94
416.936	95
417.159	88
417.382	94
417.605	84
417.828	82
418.051	83
418.274	103
418.497	95
418.72	102
418.943	96
419.166	87
419.389	90
419.611	86
419.834	89
420.057	91
420.28	105
420.503	75
420.726	85
420.948	95
421.171	87
421.394	86
421.617	113
421.839	91
422.062	81
422.285	95
422.507	90
422.73	84
422.953	103
423.175	91
423.398	96
423.621	91
423.843	98
424.066	94
424.288	88
424.511	86
424.733	102
424.956	99
425.178	92
425.401	90
425.623	86
425.846	91
426.068	97
426.291	79
426.513	95
426.735	86
426.958	97
427.18	99
427.402	91
427.625	81
427.847	93
428.069	82
428.292	83
428.514	101
428.736	92
428.958	87
429.181	86
429.403	91
429.625	87
429.847	82
430.069	95
430.292	80
430.514	92
430.736	83
430.958	94
431.18	97
431.402	93
431.624	90
431.846	94
432.068	85
432.29	69
432.512	92
432.734	101
432.956	86
433.178	96
433.4	88
433.622	102
433.844	86
434.066	98
434.287	99
434.509	80
434.731	81
434.953	83
435.175	97
435.397	94
435.618	88
435.84	92
436.062	90
436.284	86
436.505	102
436.727	106
436.949	95
437.17	96
437.392	88
437.614	93
437.835	76
438.057	86
438.278	84
438.5	105
438.721	82
438.943	94
439.165	86
439.386	91
439.608	93
439.829	109
440.05	97
440.272	90
440.493	103
440.715	105
440.936	98
441.158	82
441.379	91
441.6	89
441.822	102
442.043	104
442.264	98
442.486	117
442.707	100
442.928	90
443.149	96
443.371	79
443.592	102
443.813	91
444.034	93
444.255	96
444.476	103
444.698	93
444.919	94
445.14	222
445.361	150
445.582	92
445.803	90
446.024	106
446.245	113
446.466	108
446.687	91
446.908	93
447.129	86
447.35	97
447.571	95
447.792	86
448.013	96
448.234	92
448.455	97
448.675	84
448.896	92
449.117	110
449.338	89
449.559	84
449.779	86
450	112
450.221	83
450.442	86
450.662	98
450.883	86
451.104	113
451.324	91
451.545	95
451.766	93
451.986	79
452.207	87
452.428	103
452.648	103
452.869	87
453.089	98
453.31	99
453.53	94
453.751	98
453.971	81
454.192	90
454.412	110
454.633	90
454.853	84
455.073	93
455.294	93
455.514	92
455.734	96
455.955	89
456.175	89
456.395	94
456.616	69
456.836	100
457.056	92
457.276	85
457.497	85
457.717	83
457.937	99
458.157	78
458.377	82
458.598	86
458.818	99
459.038	83
459.258	99
459.478	81
459.698	71
459.918	74
460.138	99
460.358	107
460.578	83
460.798	84
461.018	78
461.238	98
461.458	96
461.678	105
461.898	90
462.118	93
462.338	82
462.558	84
462.777	86
462.997	84
463.217	86
463.437	92
463.657	97
463.876	97
464.096	88
464.316	71
464.536	80
464.755	97
464.975	75
465.195	85
465.414	93
465.634	95
465.854	90
466.073	106
466.293	89
466.512	98
466.732	87
466.951	94
467.171	106
467.391	98
467.61	104
467.829	109
468.049	95
468.268	99
468.488	102
468.707	90
468.927	102
469.146	102
469.365	102
469.585	98
469.804	104
470.023	82
470.243	85
470.462	100
470.681	84
470.901	100
471.12	94
471.339	113
471.558	103
471.777	93
471.997	101
472.216	106
472.435	86
472.654	102
472.873	92
473.092	103
473.311	95
473.53	85
473.749	93
473.968	81
474.187	88
474.406	103
474.625	103
474.844	96
475.063	95
475.282	98
475.501	92
475.72	102
475.939	90
476.158	84
476.377	96
476.596	73
476.814	91
477.033	89
477.252	83
477.471	94
477.69	103
477.908	95
478.127	97
478.346	104
478.564	78
478.783	114
479.002	98
479.22	101
479.439	107
479.658	97
479.876	105
480.095	77
480.313	103
480.532	101
480.751	94
480.969	99
481.188	84
481.406	88
481.624	72
481.843	82
482.061	90
482.28	90
482.498	99
482.717	84
482.935	98
483.153	107
483.372	103
483.59	105
483.808	117
484.027	93
484.245	98
484.463	108
484.681	103
484.9	98
485.118	110
485.336	91
485.554	73
485.772	90
485.99	84
486.209	102
486.427	82
486.645	92
486.863	101
487.081	97
487.299	89
487.517	106
487.735	109
487.953	107
488.171	100
488.389	109
488.607	93
488.825	90
489.043	101
489.261	89
489.479	111
489.696	95
489.914	105
490.132	94
490.35	112
490.568	105
490.786	121
491.003	105
491.221	102
491.439	108
491.657	98
491.874	122
492.092	122
492.31	125
492.527	104
492.745	116
492.963	107
493.18	104
493.398	110
493.615	108
493.833	104
494.05	98
494.268	96
494.485	106
494.703	98
494.92	110
495.138	105
495.355	103
495.573	128
495.79	109
496.008	111
496.225	104
496.442	115
496.66	121
496.877	91
497.094	105
497.312	115
497.529	113
497.746	98
497.963	87
498.181	102
498.398	101
498.615	105
498.832	99
499.049	97
499.267	94
499.484	87
499.701	83
499.918	101
500.135	97
500.352	86
500.569	105
500.786	106
501.003	113
501.22	98
501.437	101
501.654	98
501.871	101
502.088	101
502.305	97
502.522	102
502.739	88
502.956	111
503.172	101
503.389	94
503.606	103
503.823	94
504.04	97
504.256	93
504.473	99
504.69	100
504.907	93
505.123	95
505.34	91
505.557	95
505.773	97
505.99	95
506.207	101
506.423	86
506.64	100
506.856	106
507.073	98
507.289	102
507.506	97
507.722	97
507.939	92
508.155	99
508.372	101
508.588	100
508.805	94
509.021	75
509.238	79
509.454	89
509.67	93
509.887	84
510.103	72
510.319	83
510.536	93
510.752	86
510.968	94
511.184	92
511.401	73
511.617	79
511.833	80
512.049	80
512.265	87
512.481	79
512.698	79
512.914	79
513.13	87
513.346	79
513.562	81
513.778	80
513.994	79
514.21	78
514.426	94
514.642	88
514.858	80
515.074	85
515.29	87
515.506	86
515.721	86
515.937	102
516.153	88
516.369	85
516.585	82
516.801	69
517.016	88
517.232	84
517.448	71
517.664	75
517.879	75
518.095	81
518.311	79
518.527	81
518.742	85
518.958	92
519.173	88
519.389	100
519.605	88
519.82	94
520.036	86
520.251	98
520.467	82
520.682	87
520.898	81
521.113	85
521.329	78
521.544	91
521.76	94
521.975	96
522.19	93
522.406	87
522.621	77
522.836	89
523.052	90
523.267	84
523.482	91
523.698	83
523.913	75
524.128	70
524.343	109
524.559	97
524.774	81
524.989	97
525.204	100
525.419	97
525.634	90
525.849	83
526.064	96
526.28	94
526.495	83
526.71	86
526.925	85
527.14	70
527.355	69
527.57	83
527.785	93
527.999	93
528.214	90
528.429	87
528.644	101
528.859	110
529.074	107
529.289	109
529.503	102
529.718	102
529.933	99
530.148	98
530.363	82
530.577	83
530.792	101
531.007	99
531.221	82
531.436	78
531.651	75
531.865	92
532.08	81
532.295	80
532.509	85
532.724	91
532.938	82
533.153	103
533.367	98
533.582	81
533.796	85
534.011	89
534.225	83
534.44	89
534.654	82
534.868	94
535.083	84
535.297	98
535.511	87
535.726	91
535.94	100
536.154	88
536.369	77
536.583	75
536.797	83
537.011	99
537.225	102
537.44	82
537.654	95
537.868	86
538.082	97
538.296	91
538.51	100
538.724	90
538.938	93
539.153	99
539.367	97
539.581	100
539.795	82
540.009	85
540.222	89
540.436	93
540.65	82
540.864	96
541.078	101
541.292	116
541.506	111
541.72	97
541.934	124
542.147	120
542.361	121
542.575	109
542.789	101
543.002	92
543.216	103
543.43	98
543.644	89
543.857	101
544.071	104
544.285	103
544.498	110
544.712	122
544.925	113
545.139	126
545.352	115
545.566	119
545.779	111
545.993	115
546.206	103
546.42	110
546.633	115
546.847	120
547.06	104
547.274	107
547.487	114
547.7	119
547.914	117
548.127	109
548.34	104
548.554	115
548.767	105
548.98	103
549.193	111
549.407	125
549.62	111
549.833	98
550.046	111
550.259	102
550.473	100
550.686	102
550.899	110
551.112	115
551.325	106
551.538	106
551.751	111
551.964	108
552.177	98
552.39	108
552.603	115
552.816	109
553.029	117
553.242	111
553.455	109
553.667	113
553.88	100
554.093	117
554.306	107
554.519	109
554.732	97
554.944	113
555.157	98
555.37	114
555.583	96
555.795	113
556.008	102
556.221	98
556.433	102
556.646	119
556.859	86
557.071	94
557.284	111
557.496	89
557.709	109
557.921	102
558.134	91
558.346	115
558.559	89
558.771	91
558.984	110
559.196	105
559.409	95
559.621	98
559.833	93
560.046	95
560.258	104
560.47	98
560.683	93
560.895	97
561.107	101
561.32	103
561.532	95
561.744	90
561.956	98
562.168	115
562.381	103
562.593	93
562.805	95
563.017	94
563.229	93
563.441	91
563.653	97
563.865	97
564.077	85
564.289	96
564.501	111
564.713	96
564.925	101
565.137	90
565.349	93
565.561	93
565.773	97
565.985	99
566.197	93
566.408	89
566.62	87
566.832	98
567.044	97
567.255	99
567.467	86
567.679	93
567.891	87
568.102	89
568.314	108
568.526	95
568.737	90
568.949	82
569.161	90
569.372	89
569.584	82
569.795	84
570.007	111
570.218	69
570.43	87
570.641	87
570.853	86
571.064	86
571.276	84
571.487	98
571.698	92
571.91	72
572.121	102
572.333	81
572.544	103
572.755	90
572.966	89
573.178	89
573.389	82
573.6	100
573.811	92
574.023	76
574.234	73
574.445	74
574.656	80
574.867	85
575.078	95
575.289	82
575.501	96
575.712	101
575.923	89
576.134	98
576.345	82
576.556	95
576.767	97
576.978	90
577.188	84
577.399	79
577.61	91
577.821	102
578.032	87
578.243	91
578.454	95
578.665	85
578.875	80
579.086	87
579.297	74
579.508	75
579.718	82
579.929	67
580.14	84
580.35	81
580.561	85
580.772	86
580.982	76
581.193	83
581.403	93
581.614	99
581.825	84
582.035	82
582.246	90
582.456	75
582.667	86
582.877	94
583.087	91
583.298	98
583.508	93
583.719	72
583.929	81
584.139	66
584.35	71
584.56	90
584.77	91
584.981	77
585.191	81
585.401	94
585.611	83
585.821	73
586.032	89
586.242	85
586.452	90
586.662	83
586.872	93
587.082	89
587.292	84
587.502	83
587.713	82
587.923	80
588.133	85
588.343	85
588.553	102
588.762	82
588.972	81
589.182	84
589.392	83
589.602	79
589.812	74
590.022	85
590.232	82
590.441	92
590.651	88
590.861	82
591.071	88
591.281	88
591.49	88
591.7	102
591.91	82
592.119	82
592.329	89
592.539	72
592.748	90
592.958	82
593.167	61
593.377	71
593.587	91
593.796	86
594.006	82
594.215	89
594.424	82
594.634	78
594.843	93
595.053	79
595.262	83
595.472	89
595.681	73
595.89	94
596.1	96
596.309	83
596.518	99
596.727	81
596.937	80
597.146	86
597.355	86
597.564	88
597.774	99
597.983	83
598.192	85
598.401	91
598.61	83
598.819	86
599.028	90
599.237	80
599.446	85
599.655	87
599.864	104
600.073	100
600.282	95
600.491	87
600.7	80
600.909	97
601.118	86
601.327	90
601.536	85
601.745	85
601.953	102
602.162	95
602.371	84
602.58	98
602.789	75
602.997	99
603.206	102
603.415	92
603.623	96
603.832	93
604.041	98
604.249	83
604.458	90
604.666	94
604.875	97
605.084	77
605.292	85
605.501	95
605.709	95
605.918	87
606.126	98
606.334	95
606.543	97
606.751	103
606.96	86
607.168	95
607.376	102
607.585	104
607.793	89
608.001	84
608.21	94
608.418	101
608.626	101
608.834	85
609.043	111
609.251	108
609.459	87
609.667	107
609.875	89
610.083	96
610.291	92
610.499	93
610.707	92
610.916	97
611.124	97
611.332	103
611.54	97
611.748	98
611.955	93
612.163	83
612.371	86
612.579	97
612.787	93
612.995	82
613.203	90
613.411	92
613.618	102
613.826	107
614.034	100
614.242	97
614.449	99
614.657	90
614.865	92
615.072	97
615.28	86
615.488	87
615.695	88
615.903	87
616.111	85
616.318	89
616.526	94
616.733	82
616.941	88
617.148	86
617.356	98
617.563	88
617.771	88
617.978	94
618.185	93
618.393	91
618.6	95
618.807	82
619.015	89
619.222	101
619.429	91
619.637	92
619.844	91
620.051	89
620.258	103
620.466	83
620.673	92
620.88	91
621.087	95
621.294	87
621.501	90
621.708	96
621.915	98
622.122	95
622.329	88
622.536	75
622.743	94
622.95	79
623.157	95
623.364	93
623.571	90
623.778	96
623.985	98
624.192	99
624.399	92
624.606	111
624.812	95
625.019	85
625.226	95
625.433	84
625.639	95
625.846	90
626.053	86
626.259	96
626.466	94
626.673	90
626.879	93
627.086	91
627.293	93
627.499	101
627.706	81
627.912	82
628.119	90
628.325	94
628.532	98
628.738	83
628.945	95
629.151	85
629.357	89
629.564	75
629.77	99
629.976	99
630.183	91
630.389	93
630.595	97
630.802	94
631.008	99
631.214	85
631.42	92
631.627	82
631.833	97
632.039	83
632.245	96
632.451	88
632.657	93
632.863	81
633.069	87
633.275	103
633.481	84
633.688	78
633.893	79
634.099	101
634.305	84
634.511	91
634.717	90
634.923	68
635.129	91
635.335	94
635.541	101
635.747	92
635.952	84
636.158	78
636.364	109
636.57	85
636.775	95
636.981	102
637.187	79
637.392	80
637.598	89
637.804	73
638.009	88
638.215	92
638.421	91
638.626	74
638.832	82
639.037	86
639.243	75
639.448	97
639.654	77
639.859	96
640.065	98
640.27	100
640.475	93
640.681	83
640.886	82
641.091	97
641.297	95
641.502	88
641.707	91
641.913	93
642.118	97
642.323	78
642.528	75
642.733	83
642.939	86
643.144	81
643.349	90
643.554	95
643.759	88
643.964	70
644.169	85
644.374	97
644.579	95
644.784	76
644.989	93
645.194	100
645.399	83
645.604	73
645.809	81
646.014	76
646.219	104
646.423	88
646.628	81
646.833	59
647.038	93
647.243	91
647.447	88
647.652	91
647.857	79
648.062	93
648.266	83
648.471	90
648.676	94
648.88	83
649.085	83
649.289	85
649.494	85
649.698	85
649.903	92
650.107	79
650.312	78
650.516	96
650.721	98
650.925	81
651.13	83
651.334	69
651.539	91
651.743	87
651.947	85
652.152	86
652.356	103
652.56	81
652.764	72
652.969	72
653.173	95
653.377	85
653.581	82
653.785	87
653.99	90
654.194	81
654.398	83
654.602	83
654.806	80
655.01	89
655.214	83
655.418	91
655.622	73
655.826	83
656.03	80
656.234	87
656.438	96
656.642	81
656.846	96
657.049	81
657.253	86
657.457	84
657.661	77
657.865	82
658.068	92
658.272	88
658.476	95
658.68	71
658.883	87
659.087	82
659.291	78
659.494	91
659.698	71
659.901	78
660.105	87
660.309	88
660.512	86
660.716	86
660.919	78
661.123	77
661.326	88
661.53	85
661.733	93
661.936	79
662.14	84
662.343	90
662.546	90
662.75	75
662.953	72
663.156	90
663.36	86
663.563	82
663.766	83
663.969	95
664.173	59
664.376	72
664.579	71
664.782	78
664.985	82
665.188	80
665.391	89
665.594	94
665.797	73
666	86
666.203	73
666.406	66
666.609	81
666.812	75
667.015	76
667.218	76
667.421	74
667.624	74
667.827	81
668.03	79
668.232	75
668.435	70
668.638	80
668.841	85
669.043	69
669.246	86
669.449	78
669.651	80
669.854	78
670.057	83
670.259	78
670.462	72
670.665	90
670.867	86
671.07	81
671.272	83
671.475	84
671.677	99
671.88	80
672.082	79
672.284	90
672.487	88
672.689	81
672.892	85
