Data from Location3.07152019.Energy5.Lamp.07192019.3%Agarose_HRD10591_15-17-36-269.txt Node
Date: Fri Jul 19 15:17:36 EDT 2019
User: cochatt
Spectrometer: HR+D1059
Trigger mode: 1
Integration Time (sec): 1.000000E-1
Scans to average: 1
Electric dark correction enabled: true
Nonlinearity correction enabled: false
Boxcar width: 0
XAxis mode: Wavelengths
Number of Pixels in Spectrum: 2048
>>>>>Begin Spectral Data<<<<<
223.165	-10
223.4	-10
223.635	-10
223.869	-14
224.104	-3
224.338	-16
224.573	-24
224.808	-26
225.042	-5
225.277	-10
225.511	-15
225.746	6
225.98	-1
226.215	11
226.449	19
226.683	17
226.918	34
227.152	37
227.387	40
227.621	37
227.856	40
228.09	54
228.324	54
228.559	60
228.793	62
229.027	56
229.262	52
229.496	68
229.73	59
229.964	64
230.199	67
230.433	68
230.667	76
230.901	78
231.136	70
231.37	75
231.604	76
231.838	72
232.072	73
232.306	91
232.541	81
232.775	75
233.009	87
233.243	87
233.477	77
233.711	89
233.945	82
234.179	93
234.413	98
234.647	86
234.881	76
235.115	85
235.349	76
235.583	79
235.817	68
236.051	84
236.285	76
236.519	79
236.753	89
236.987	69
237.221	84
237.455	65
237.689	75
237.922	93
238.156	91
238.39	75
238.624	67
238.858	72
239.091	77
239.325	71
239.559	84
239.793	79
240.027	80
240.26	73
240.494	80
240.728	82
240.961	70
241.195	65
241.429	66
241.662	89
241.896	73
242.13	79
242.363	73
242.597	82
242.83	69
243.064	73
243.298	74
243.531	76
243.765	76
243.998	63
244.232	82
244.465	80
244.699	79
244.932	85
245.166	80
245.399	77
245.633	84
245.866	80
246.099	78
246.333	82
246.566	86
246.8	76
247.033	77
247.266	82
247.5	77
247.733	79
247.966	69
248.2	75
248.433	71
248.666	67
248.899	88
249.133	75
249.366	66
249.599	74
249.832	80
250.066	80
250.299	88
250.532	81
250.765	87
250.998	64
251.231	75
251.465	77
251.698	77
251.931	77
252.164	88
252.397	69
252.63	81
252.863	77
253.096	77
253.329	85
253.562	80
253.795	82
254.028	87
254.261	73
254.494	82
254.727	97
254.96	79
255.193	72
255.426	72
255.659	68
255.892	83
256.124	83
256.357	88
256.59	82
256.823	83
257.056	85
257.289	60
257.521	73
257.754	80
257.987	90
258.22	77
258.452	80
258.685	88
258.918	81
259.151	80
259.383	74
259.616	93
259.849	81
260.081	84
260.314	92
260.547	75
260.779	84
261.012	85
261.244	74
261.477	80
261.71	73
261.942	72
262.175	73
262.407	89
262.64	67
262.872	91
263.105	71
263.337	93
263.57	85
263.802	90
264.035	71
264.267	76
264.499	90
264.732	93
264.964	78
265.197	91
265.429	81
265.661	86
265.894	73
266.126	80
266.358	83
266.591	81
266.823	72
267.055	92
267.287	80
267.52	87
267.752	89
267.984	86
268.216	95
268.448	88
268.681	84
268.913	82
269.145	84
269.377	93
269.609	78
269.841	80
270.073	86
270.306	84
270.538	87
270.77	83
271.002	76
271.234	85
271.466	84
271.698	91
271.93	68
272.162	99
272.394	93
272.626	71
272.858	90
273.09	76
273.322	64
273.553	92
273.785	76
274.017	84
274.249	76
274.481	79
274.713	81
274.945	98
275.176	88
275.408	81
275.64	74
275.872	82
276.104	80
276.335	79
276.567	97
276.799	98
277.031	85
277.262	73
277.494	81
277.726	89
277.957	86
278.189	84
278.421	83
278.652	81
278.884	82
279.115	90
279.347	98
279.579	90
279.81	71
280.042	83
280.273	89
280.505	89
280.736	85
280.968	80
281.199	91
281.431	86
281.662	92
281.894	81
282.125	77
282.356	81
282.588	88
282.819	85
283.051	92
283.282	88
283.513	87
283.745	82
283.976	86
284.207	97
284.439	100
284.67	84
284.901	88
285.132	79
285.364	87
285.595	79
285.826	101
286.057	90
286.288	91
286.52	86
286.751	73
286.982	85
287.213	79
287.444	95
287.675	94
287.906	91
288.138	97
288.369	90
288.6	87
288.831	72
289.062	88
289.293	70
289.524	84
289.755	79
289.986	81
290.217	86
290.448	93
290.679	81
290.91	79
291.141	77
291.371	76
291.602	86
291.833	86
292.064	76
292.295	86
292.526	88
292.757	89
292.987	102
293.218	80
293.449	89
293.68	89
293.91	91
294.141	83
294.372	79
294.603	87
294.833	81
295.064	76
295.295	97
295.525	81
295.756	101
295.987	88
296.217	102
296.448	87
296.679	86
296.909	95
297.14	94
297.37	84
297.601	99
297.831	77
298.062	86
298.292	80
298.523	89
298.753	82
298.984	81
299.214	89
299.445	86
299.675	89
299.905	88
300.136	90
300.366	90
300.597	74
300.827	94
301.057	81
301.288	74
301.518	74
301.748	88
301.979	94
302.209	76
302.439	88
302.669	75
302.9	96
303.13	70
303.36	92
303.59	85
303.82	76
304.051	91
304.281	95
304.511	78
304.741	89
304.971	80
305.201	69
305.431	85
305.661	94
305.891	89
306.121	80
306.352	89
306.582	95
306.812	89
307.042	81
307.272	73
307.502	87
307.731	77
307.961	92
308.191	80
308.421	84
308.651	91
308.881	84
309.111	89
309.341	84
309.571	73
309.8	79
310.03	74
310.26	92
310.49	90
310.72	103
310.949	96
311.179	103
311.409	79
311.639	70
311.868	84
312.098	91
312.328	95
312.557	85
312.787	83
313.017	93
313.246	88
313.476	92
313.706	69
313.935	95
314.165	78
314.394	91
314.624	82
314.853	99
315.083	86
315.312	98
315.542	91
315.771	104
316.001	90
316.23	87
316.46	78
316.689	93
316.919	87
317.148	73
317.377	90
317.607	88
317.836	82
318.065	95
318.295	78
318.524	91
318.753	92
318.983	89
319.212	82
319.441	94
319.67	80
319.9	86
320.129	82
320.358	84
320.587	85
320.816	81
321.046	92
321.275	100
321.504	82
321.733	92
321.962	71
322.191	87
322.42	84
322.649	95
322.878	87
323.108	74
323.337	81
323.566	81
323.795	77
324.024	90
324.253	87
324.482	95
324.71	94
324.939	80
325.168	92
325.397	83
325.626	81
325.855	82
326.084	79
326.313	86
326.542	74
326.77	92
326.999	94
327.228	75
327.457	85
327.686	71
327.914	77
328.143	98
328.372	87
328.6	77
328.829	90
329.058	100
329.287	87
329.515	83
329.744	95
329.972	88
330.201	79
330.43	79
330.658	88
330.887	91
331.115	91
331.344	78
331.572	91
331.801	77
332.03	82
332.258	79
332.486	87
332.715	95
332.943	91
333.172	79
333.4	80
333.629	93
333.857	82
334.085	80
334.314	84
334.542	94
334.771	75
334.999	84
335.227	96
335.455	84
335.684	93
335.912	83
336.14	89
336.369	87
336.597	87
336.825	92
337.053	74
337.281	81
337.51	85
337.738	92
337.966	80
338.194	79
338.422	93
338.65	84
338.878	92
339.106	88
339.334	82
339.562	88
339.79	81
340.018	78
340.246	85
340.474	94
340.702	81
340.93	84
341.158	85
341.386	88
341.614	89
341.842	81
342.07	95
342.298	90
342.526	89
342.754	78
342.981	94
343.209	77
343.437	93
343.665	83
343.893	75
344.12	80
344.348	83
344.576	90
344.804	75
345.031	85
345.259	95
345.487	100
345.714	79
345.942	69
346.17	70
346.397	85
346.625	83
346.853	74
347.08	84
347.308	81
347.535	80
347.763	85
347.99	86
348.218	80
348.445	92
348.673	81
348.9	77
349.128	99
349.355	91
349.583	90
349.81	85
350.037	85
350.265	85
350.492	88
350.72	86
350.947	82
351.174	85
351.402	81
351.629	80
351.856	78
352.083	68
352.311	81
352.538	83
352.765	91
352.992	82
353.22	91
353.447	72
353.674	86
353.901	88
354.128	100
354.355	85
354.583	80
354.81	89
355.037	79
355.264	85
355.491	72
355.718	72
355.945	89
356.172	81
356.399	72
356.626	88
356.853	98
357.08	87
357.307	88
357.534	75
357.761	88
357.988	92
358.215	99
358.441	85
358.668	83
358.895	82
359.122	82
359.349	96
359.576	81
359.802	92
360.029	86
360.256	79
360.483	88
360.709	93
360.936	95
361.163	98
361.39	91
361.616	96
361.843	88
362.07	76
362.296	81
362.523	85
362.749	79
362.976	75
363.203	91
363.429	75
363.656	72
363.882	85
364.109	85
364.335	96
364.562	82
364.788	89
365.015	85
365.241	80
365.468	80
365.694	73
365.92	81
366.147	100
366.373	79
366.599	87
366.826	80
367.052	76
367.278	87
367.505	83
367.731	86
367.957	86
368.184	91
368.41	89
368.636	88
368.862	90
369.089	89
369.315	81
369.541	89
369.767	88
369.993	85
370.219	91
370.445	80
370.672	79
370.898	73
371.124	86
371.35	85
371.576	92
371.802	84
372.028	87
372.254	98
372.48	91
372.706	85
372.932	85
373.158	95
373.384	101
373.61	106
373.835	88
374.061	82
374.287	77
374.513	81
374.739	86
374.965	84
375.191	83
375.416	86
375.642	88
375.868	83
376.094	81
376.319	90
376.545	95
376.771	82
376.997	76
377.222	94
377.448	96
377.674	87
377.899	88
378.125	89
378.35	83
378.576	84
378.802	79
379.027	92
379.253	87
379.478	78
379.704	94
379.929	85
380.155	87
380.38	100
380.606	95
380.831	83
381.057	90
381.282	96
381.507	100
381.733	79
381.958	96
382.184	82
382.409	78
382.634	85
382.86	89
383.085	92
383.31	88
383.535	93
383.761	93
383.986	85
384.211	93
384.436	83
384.662	84
384.887	84
385.112	96
385.337	105
385.562	96
385.787	80
386.013	85
386.238	77
386.463	76
386.688	93
386.913	94
387.138	74
387.363	91
387.588	83
387.813	95
388.038	89
388.263	88
388.488	97
388.713	85
388.938	86
389.163	84
389.387	90
389.612	92
389.837	87
390.062	103
390.287	86
390.512	88
390.736	69
390.961	85
391.186	96
391.411	94
391.636	86
391.86	83
392.085	86
392.31	87
392.534	82
392.759	96
392.984	85
393.208	85
393.433	88
393.658	97
393.882	79
394.107	82
394.331	76
394.556	86
394.78	96
395.005	95
395.229	101
395.454	89
395.678	91
395.903	101
396.127	93
396.352	74
396.576	91
396.801	85
397.025	88
397.249	88
397.474	87
397.698	91
397.922	90
398.147	89
398.371	92
398.595	102
398.82	100
399.044	79
399.268	68
399.492	91
399.717	90
399.941	98
400.165	81
400.389	86
400.613	77
400.837	105
401.062	85
401.286	89
401.51	84
401.734	72
401.958	92
402.182	73
402.406	99
402.63	80
402.854	95
403.078	92
403.302	97
403.526	95
403.75	93
403.974	83
404.198	95
404.422	90
404.645	97
404.869	98
405.093	86
405.317	82
405.541	92
405.765	75
405.988	79
406.212	103
406.436	88
406.66	84
406.883	92
407.107	95
407.331	91
407.555	112
407.778	92
408.002	91
408.226	80
408.449	98
408.673	92
408.896	106
409.12	97
409.344	84
409.567	88
409.791	96
410.014	86
410.238	88
410.461	86
410.685	90
410.908	90
411.132	100
411.355	97
411.578	105
411.802	101
412.025	90
412.249	95
412.472	94
412.695	83
412.919	98
413.142	89
413.365	94
413.589	80
413.812	88
414.035	88
414.258	100
414.482	95
414.705	92
414.928	96
415.151	90
415.374	88
415.597	98
415.821	95
416.044	91
416.267	92
416.49	92
416.713	108
416.936	88
417.159	73
417.382	96
417.605	91
417.828	87
418.051	97
418.274	108
418.497	87
418.72	111
418.943	109
419.166	73
419.389	91
419.611	99
419.834	92
420.057	92
420.28	96
420.503	91
420.726	95
420.948	86
421.171	111
421.394	101
421.617	95
421.839	91
422.062	95
422.285	90
422.507	84
422.73	90
422.953	97
423.175	100
423.398	86
423.621	105
423.843	103
424.066	75
424.288	98
424.511	99
424.733	105
424.956	98
425.178	108
425.401	99
425.623	88
425.846	89
426.068	93
426.291	75
426.513	96
426.735	97
426.958	117
427.18	114
427.402	98
427.625	77
427.847	87
428.069	106
428.292	100
428.514	99
428.736	86
428.958	97
429.181	99
429.403	104
429.625	95
429.847	91
430.069	80
430.292	106
430.514	90
430.736	92
430.958	94
431.18	89
431.402	91
431.624	92
431.846	78
432.068	90
432.29	104
432.512	79
432.734	92
432.956	87
433.178	110
433.4	90
433.622	100
433.844	80
434.066	103
434.287	91
434.509	84
434.731	75
434.953	88
435.175	79
435.397	98
435.618	91
435.84	94
436.062	96
436.284	84
436.505	101
436.727	83
436.949	96
437.17	106
437.392	81
437.614	87
437.835	75
438.057	81
438.278	97
438.5	76
438.721	91
438.943	98
439.165	95
439.386	90
439.608	115
439.829	89
440.05	95
440.272	93
440.493	97
440.715	89
440.936	91
441.158	109
441.379	96
441.6	100
441.822	105
442.043	109
442.264	101
442.486	106
442.707	104
442.928	100
443.149	105
443.371	87
443.592	81
443.813	95
444.034	83
444.255	104
444.476	98
444.698	94
444.919	100
445.14	217
445.361	139
445.582	98
445.803	88
446.024	106
446.245	101
446.466	93
446.687	114
446.908	102
447.129	115
447.35	106
447.571	97
447.792	99
448.013	91
448.234	89
448.455	104
448.675	91
448.896	101
449.117	96
449.338	107
449.559	92
449.779	91
450	80
450.221	93
450.442	90
450.662	91
450.883	95
451.104	100
451.324	103
451.545	76
451.766	89
451.986	109
452.207	99
452.428	96
452.648	111
452.869	92
453.089	92
453.31	85
453.53	88
453.751	84
453.971	77
454.192	85
454.412	91
454.633	86
454.853	89
455.073	95
455.294	91
455.514	92
455.734	88
455.955	103
456.175	96
456.395	90
456.616	83
456.836	95
457.056	97
457.276	95
457.497	86
457.717	91
457.937	89
458.157	92
458.377	88
458.598	68
458.818	83
459.038	85
459.258	85
459.478	87
459.698	85
459.918	77
460.138	82
460.358	84
460.578	92
460.798	96
461.018	87
461.238	92
461.458	84
461.678	93
461.898	106
462.118	88
462.338	94
462.558	92
462.777	83
462.997	95
463.217	81
463.437	95
463.657	85
463.876	90
464.096	79
464.316	92
464.536	87
464.755	103
464.975	93
465.195	89
465.414	94
465.634	95
465.854	92
466.073	91
466.293	96
466.512	99
466.732	90
466.951	99
467.171	94
467.391	86
467.61	104
467.829	96
468.049	93
468.268	102
468.488	90
468.707	89
468.927	94
469.146	85
469.365	100
469.585	88
469.804	90
470.023	99
470.243	91
470.462	95
470.681	101
470.901	112
471.12	91
471.339	104
471.558	99
471.777	92
471.997	88
472.216	98
472.435	104
472.654	95
472.873	99
473.092	84
473.311	99
473.53	91
473.749	82
473.968	99
474.187	92
474.406	101
474.625	89
474.844	99
475.063	80
475.282	100
475.501	100
475.72	105
475.939	98
476.158	99
476.377	106
476.596	99
476.814	93
477.033	102
477.252	82
477.471	103
477.69	101
477.908	99
478.127	111
478.346	90
478.564	96
478.783	99
479.002	101
479.22	94
479.439	93
479.658	93
479.876	100
480.095	99
480.313	100
480.532	90
480.751	86
480.969	85
481.188	84
481.406	86
481.624	82
481.843	73
482.061	73
482.28	104
482.498	102
482.717	90
482.935	91
483.153	97
483.372	117
483.59	117
483.808	102
484.027	105
484.245	93
484.463	98
484.681	102
484.9	82
485.118	93
485.336	101
485.554	95
485.772	81
485.99	84
486.209	89
486.427	89
486.645	99
486.863	95
487.081	110
487.299	111
487.517	100
487.735	105
487.953	125
488.171	109
488.389	105
488.607	99
488.825	96
489.043	100
489.261	101
489.479	90
489.696	84
489.914	97
490.132	103
490.35	108
490.568	88
490.786	105
491.003	111
491.221	102
491.439	113
491.657	104
491.874	103
492.092	114
492.31	124
492.527	126
492.745	125
492.963	114
493.18	103
493.398	112
493.615	119
493.833	104
494.05	111
494.268	97
494.485	121
494.703	123
494.92	110
495.138	128
495.355	112
495.573	100
495.79	97
496.008	115
496.225	111
496.442	114
496.66	108
496.877	95
497.094	112
497.312	113
497.529	98
497.746	93
497.963	107
498.181	84
498.398	98
498.615	95
498.832	98
499.049	106
499.267	98
499.484	95
499.701	93
499.918	101
500.135	102
500.352	101
500.569	103
500.786	89
501.003	96
501.22	112
501.437	101
501.654	112
501.871	113
502.088	85
502.305	102
502.522	96
502.739	111
502.956	100
503.172	90
503.389	89
503.606	93
503.823	107
504.04	87
504.256	103
504.473	91
504.69	105
504.907	104
505.123	103
505.34	115
505.557	82
505.773	107
505.99	100
506.207	83
506.423	102
506.64	101
506.856	90
507.073	101
507.289	84
507.506	108
507.722	98
507.939	91
508.155	91
508.372	101
508.588	96
508.805	103
509.021	99
509.238	90
509.454	88
509.67	92
509.887	85
510.103	89
510.319	87
510.536	84
510.752	76
510.968	76
511.184	91
511.401	83
511.617	81
511.833	92
512.049	99
512.265	80
512.481	95
512.698	88
512.914	80
513.13	77
513.346	87
513.562	91
513.778	86
513.994	74
514.21	78
514.426	91
514.642	95
514.858	92
515.074	86
515.29	93
515.506	81
515.721	79
515.937	82
516.153	98
516.369	101
516.585	91
516.801	55
517.016	86
517.232	84
517.448	78
517.664	79
517.879	79
518.095	88
518.311	87
518.527	89
518.742	102
518.958	107
519.173	103
519.389	96
519.605	100
519.82	90
520.036	95
520.251	91
520.467	90
520.682	92
520.898	83
521.113	95
521.329	82
521.544	86
521.76	87
521.975	85
522.19	98
522.406	89
522.621	95
522.836	83
523.052	93
523.267	87
523.482	87
523.698	86
523.913	87
524.128	86
524.343	94
524.559	96
524.774	97
524.989	108
525.204	91
525.419	96
525.634	87
525.849	95
526.064	105
526.28	97
526.495	88
526.71	102
526.925	93
527.14	75
527.355	83
527.57	89
527.785	103
527.999	83
528.214	97
528.429	92
528.644	96
528.859	100
529.074	99
529.289	104
529.503	96
529.718	100
529.933	98
530.148	103
530.363	99
530.577	89
530.792	86
531.007	84
531.221	84
531.436	95
531.651	84
531.865	88
532.08	77
532.295	100
532.509	84
532.724	76
532.938	86
533.153	88
533.367	102
533.582	89
533.796	97
534.011	92
534.225	95
534.44	87
534.654	95
534.868	102
535.083	101
535.297	97
535.511	96
535.726	77
535.94	89
536.154	88
536.369	72
536.583	86
536.797	88
537.011	91
537.225	96
537.44	88
537.654	79
537.868	96
538.082	87
538.296	87
538.51	92
538.724	83
538.938	93
539.153	92
539.367	96
539.581	87
539.795	91
540.009	94
540.222	71
540.436	93
540.65	97
540.864	96
541.078	101
541.292	108
541.506	121
541.72	108
541.934	113
542.147	127
542.361	118
542.575	124
542.789	105
543.002	109
543.216	108
543.43	103
543.644	91
543.857	99
544.071	99
544.285	108
544.498	105
544.712	102
544.925	112
545.139	114
545.352	100
545.566	115
545.779	113
545.993	111
546.206	105
546.42	95
546.633	125
546.847	111
547.06	104
547.274	98
547.487	117
547.7	109
547.914	111
548.127	103
548.34	113
548.554	109
548.767	120
548.98	101
549.193	104
549.407	96
549.62	99
549.833	113
550.046	111
550.259	100
550.473	95
550.686	106
550.899	104
551.112	109
551.325	97
551.538	96
551.751	105
551.964	110
552.177	92
552.39	101
552.603	92
552.816	106
553.029	111
553.242	119
553.455	117
553.667	103
553.88	109
554.093	107
554.306	121
554.519	89
554.732	107
554.944	103
555.157	107
555.37	107
555.583	105
555.795	101
556.008	106
556.221	99
556.433	99
556.646	102
556.859	95
557.071	90
557.284	116
557.496	99
557.709	98
557.921	109
558.134	97
558.346	112
558.559	102
558.771	103
558.984	102
559.196	100
559.409	96
559.621	107
559.833	92
560.046	117
560.258	96
560.47	101
560.683	106
560.895	96
561.107	103
561.32	100
561.532	82
561.744	103
561.956	98
562.168	112
562.381	113
562.593	110
562.805	99
563.017	102
563.229	105
563.441	84
563.653	98
563.865	105
564.077	98
564.289	96
564.501	79
564.713	99
564.925	102
565.137	92
565.349	93
565.561	104
565.773	92
565.985	103
566.197	105
566.408	106
566.62	95
566.832	101
567.044	88
567.255	91
567.467	98
567.679	94
567.891	85
568.102	90
568.314	86
568.526	91
568.737	99
568.949	70
569.161	89
569.372	94
569.584	90
569.795	86
570.007	85
570.218	97
570.43	99
570.641	108
570.853	91
571.064	88
571.276	90
571.487	85
571.698	90
571.91	103
572.121	94
572.333	99
572.544	83
572.755	81
572.966	98
573.178	84
573.389	85
573.6	88
573.811	88
574.023	88
574.234	83
574.445	90
574.656	86
574.867	73
575.078	84
575.289	101
575.501	85
575.712	97
575.923	92
576.134	88
576.345	91
576.556	107
576.767	101
576.978	86
577.188	87
577.399	95
577.61	83
577.821	92
578.032	77
578.243	93
578.454	87
578.665	102
578.875	97
579.086	86
579.297	73
579.508	85
579.718	87
579.929	81
580.14	87
580.35	89
580.561	104
580.772	97
580.982	80
581.193	93
581.403	90
581.614	90
581.825	90
582.035	88
582.246	97
582.456	89
582.667	87
582.877	89
583.087	83
583.298	95
583.508	73
583.719	83
583.929	92
584.139	83
584.35	92
584.56	69
584.77	92
584.981	87
585.191	82
585.401	84
585.611	93
585.821	88
586.032	78
586.242	76
586.452	88
586.662	92
586.872	88
587.082	87
587.292	75
587.502	81
587.713	80
587.923	87
588.133	82
588.343	82
588.553	91
588.762	86
588.972	69
589.182	89
589.392	99
589.602	101
589.812	91
590.022	89
590.232	98
590.441	67
590.651	70
590.861	93
591.071	71
591.281	78
591.49	92
591.7	97
591.91	104
592.119	99
592.329	89
592.539	104
592.748	97
592.958	91
593.167	67
593.377	83
593.587	98
593.796	92
594.006	94
594.215	92
594.424	98
594.634	89
594.843	92
595.053	80
595.262	102
595.472	100
595.681	88
595.89	88
596.1	97
596.309	81
596.518	84
596.727	87
596.937	78
597.146	92
597.355	114
597.564	90
597.774	88
597.983	94
598.192	90
598.401	93
598.61	87
598.819	83
599.028	93
599.237	81
599.446	90
599.655	93
599.864	76
600.073	99
600.282	72
600.491	101
600.7	110
600.909	83
601.118	90
601.327	89
601.536	82
601.745	108
601.953	89
602.162	88
602.371	100
602.58	96
602.789	103
602.997	84
603.206	90
603.415	100
603.623	96
603.832	103
604.041	83
604.249	87
604.458	85
604.666	83
604.875	103
605.084	91
605.292	97
605.501	101
605.709	87
605.918	99
606.126	101
606.334	81
606.543	83
606.751	84
606.96	92
607.168	89
607.376	100
607.585	100
607.793	94
608.001	99
608.21	93
608.418	100
608.626	113
608.834	90
609.043	92
609.251	111
609.459	87
609.667	116
609.875	89
610.083	104
610.291	91
610.499	94
610.707	89
610.916	98
611.124	89
611.332	91
611.54	100
611.748	76
611.955	106
612.163	99
612.371	100
612.579	100
612.787	100
612.995	94
613.203	99
613.411	79
613.618	99
613.826	96
614.034	102
614.242	101
614.449	103
614.657	101
614.865	99
615.072	73
615.28	86
615.488	97
615.695	95
615.903	104
616.111	96
616.318	96
616.526	96
616.733	111
616.941	99
617.148	89
617.356	92
617.563	76
617.771	77
617.978	99
618.185	73
618.393	89
618.6	97
618.807	87
619.015	103
619.222	97
619.429	98
619.637	96
619.844	84
620.051	88
620.258	90
620.466	85
620.673	94
620.88	97
621.087	101
621.294	91
621.501	85
621.708	89
621.915	97
622.122	99
622.329	95
622.536	94
622.743	90
622.95	86
623.157	84
623.364	100
623.571	73
623.778	100
623.985	96
624.192	105
624.399	108
624.606	103
624.812	92
625.019	83
625.226	76
625.433	85
625.639	96
625.846	76
626.053	83
626.259	87
626.466	77
626.673	87
626.879	89
627.086	91
627.293	94
627.499	100
627.706	82
627.912	82
628.119	88
628.325	95
628.532	82
628.738	90
628.945	90
629.151	83
629.357	89
629.564	88
629.77	81
629.976	89
630.183	80
630.389	87
630.595	105
630.802	107
631.008	89
631.214	83
631.42	82
631.627	91
631.833	77
632.039	91
632.245	89
632.451	100
632.657	91
632.863	111
633.069	98
633.275	90
633.481	83
633.688	83
633.893	97
634.099	86
634.305	88
634.511	81
634.717	92
634.923	77
635.129	79
635.335	80
635.541	97
635.747	96
635.952	93
636.158	97
636.364	92
636.57	89
636.775	96
636.981	82
637.187	104
637.392	95
637.598	92
637.804	96
638.009	92
638.215	90
638.421	93
638.626	89
638.832	88
639.037	87
639.243	90
639.448	87
639.654	75
639.859	74
640.065	89
640.27	82
640.475	83
640.681	89
640.886	89
641.091	100
641.297	93
641.502	87
641.707	95
641.913	78
642.118	92
642.323	84
642.528	92
642.733	88
642.939	96
643.144	104
643.349	78
643.554	91
643.759	93
643.964	85
644.169	89
644.374	86
644.579	88
644.784	91
644.989	67
645.194	85
645.399	82
645.604	84
645.809	90
646.014	101
646.219	85
646.423	84
646.628	81
646.833	93
647.038	99
647.243	80
647.447	84
647.652	86
647.857	78
648.062	81
648.266	89
648.471	75
648.676	86
648.88	88
649.085	97
649.289	94
649.494	93
649.698	81
649.903	88
650.107	99
650.312	88
650.516	87
650.721	84
650.925	87
651.13	81
651.334	94
651.539	88
651.743	104
651.947	95
652.152	87
652.356	93
652.56	86
652.764	80
652.969	77
653.173	92
653.377	90
653.581	89
653.785	74
653.99	83
654.194	84
654.398	86
654.602	94
654.806	88
655.01	100
655.214	75
655.418	91
655.622	63
655.826	91
656.03	80
656.234	90
656.438	84
656.642	84
656.846	88
657.049	98
657.253	87
657.457	74
657.661	84
657.865	50
658.068	85
658.272	79
658.476	63
658.68	76
658.883	74
659.087	76
659.291	87
659.494	75
659.698	77
659.901	95
660.105	90
660.309	84
660.512	81
660.716	86
660.919	89
661.123	81
661.326	88
661.53	82
661.733	96
661.936	78
662.14	95
662.343	88
662.546	71
662.75	75
662.953	81
663.156	77
663.36	80
663.563	77
663.766	83
663.969	84
664.173	81
664.376	94
664.579	84
664.782	72
664.985	86
665.188	84
665.391	83
665.594	98
665.797	91
666	68
666.203	86
666.406	86
666.609	96
666.812	89
667.015	82
667.218	83
667.421	89
667.624	82
667.827	89
668.03	76
668.232	83
668.435	86
668.638	98
668.841	81
669.043	99
669.246	93
669.449	78
669.651	75
669.854	77
670.057	84
670.259	76
670.462	87
670.665	83
670.867	102
671.07	85
671.272	89
671.475	87
671.677	79
671.88	64
672.082	85
672.284	83
672.487	90
672.689	82
672.892	68
