Data from Location3.07152019.Energy5.Lamp.07192019.3%Agarose_HRD10591_15-18-05-269.txt Node
Date: Fri Jul 19 15:18:05 EDT 2019
User: cochatt
Spectrometer: HR+D1059
Trigger mode: 1
Integration Time (sec): 1.000000E-1
Scans to average: 1
Electric dark correction enabled: true
Nonlinearity correction enabled: false
Boxcar width: 0
XAxis mode: Wavelengths
Number of Pixels in Spectrum: 2048
>>>>>Begin Spectral Data<<<<<
223.165	-11
223.4	-11
223.635	-11
223.869	-19
224.104	-25
224.338	-24
224.573	-15
224.808	-10
225.042	-14
225.277	-23
225.511	10
225.746	10
225.98	9
226.215	13
226.449	12
226.683	26
226.918	22
227.152	39
227.387	29
227.621	29
227.856	51
228.09	53
228.324	57
228.559	51
228.793	59
229.027	56
229.262	51
229.496	70
229.73	63
229.964	77
230.199	80
230.433	64
230.667	71
230.901	81
231.136	78
231.37	79
231.604	91
231.838	85
232.072	75
232.306	66
232.541	85
232.775	82
233.009	90
233.243	89
233.477	85
233.711	79
233.945	89
234.179	77
234.413	72
234.647	91
234.881	82
235.115	78
235.349	85
235.583	82
235.817	75
236.051	63
236.285	77
236.519	78
236.753	86
236.987	70
237.221	87
237.455	86
237.689	82
237.922	89
238.156	74
238.39	81
238.624	77
238.858	68
239.091	71
239.325	74
239.559	79
239.793	93
240.027	84
240.26	81
240.494	78
240.728	75
240.961	74
241.195	82
241.429	90
241.662	83
241.896	85
242.13	88
242.363	91
242.597	73
242.83	74
243.064	98
243.298	71
243.531	86
243.765	76
243.998	72
244.232	72
244.465	72
244.699	77
244.932	83
245.166	84
245.399	77
245.633	90
245.866	85
246.099	73
246.333	68
246.566	91
246.8	85
247.033	95
247.266	79
247.5	85
247.733	82
247.966	71
248.2	83
248.433	78
248.666	90
248.899	82
249.133	78
249.366	79
249.599	87
249.832	80
250.066	73
250.299	96
250.532	77
250.765	85
250.998	73
251.231	86
251.465	82
251.698	74
251.931	99
252.164	79
252.397	80
252.63	75
252.863	77
253.096	99
253.329	84
253.562	80
253.795	87
254.028	79
254.261	83
254.494	76
254.727	105
254.96	89
255.193	81
255.426	78
255.659	78
255.892	92
256.124	66
256.357	91
256.59	91
256.823	71
257.056	73
257.289	77
257.521	90
257.754	69
257.987	74
258.22	92
258.452	87
258.685	85
258.918	81
259.151	90
259.383	86
259.616	82
259.849	96
260.081	95
260.314	85
260.547	88
260.779	86
261.012	77
261.244	81
261.477	96
261.71	97
261.942	79
262.175	96
262.407	81
262.64	70
262.872	85
263.105	85
263.337	81
263.57	79
263.802	83
264.035	94
264.267	104
264.499	79
264.732	83
264.964	90
265.197	78
265.429	71
265.661	90
265.894	89
266.126	86
266.358	87
266.591	77
266.823	75
267.055	80
267.287	91
267.52	81
267.752	86
267.984	83
268.216	79
268.448	97
268.681	87
268.913	82
269.145	87
269.377	88
269.609	101
269.841	85
270.073	85
270.306	82
270.538	97
270.77	72
271.002	94
271.234	94
271.466	92
271.698	89
271.93	84
272.162	86
272.394	87
272.626	96
272.858	101
273.09	86
273.322	75
273.553	81
273.785	106
274.017	84
274.249	75
274.481	88
274.713	90
274.945	91
275.176	98
275.408	81
275.64	87
275.872	91
276.104	74
276.335	91
276.567	93
276.799	94
277.031	91
277.262	90
277.494	100
277.726	93
277.957	91
278.189	81
278.421	76
278.652	79
278.884	74
279.115	89
279.347	95
279.579	90
279.81	86
280.042	82
280.273	92
280.505	94
280.736	91
280.968	105
281.199	80
281.431	92
281.662	85
281.894	84
282.125	94
282.356	79
282.588	97
282.819	91
283.051	87
283.282	107
283.513	98
283.745	85
283.976	90
284.207	82
284.439	79
284.67	85
284.901	86
285.132	85
285.364	92
285.595	76
285.826	90
286.057	77
286.288	106
286.52	90
286.751	84
286.982	75
287.213	89
287.444	79
287.675	83
287.906	91
288.138	75
288.369	91
288.6	100
288.831	88
289.062	84
289.293	77
289.524	87
289.755	75
289.986	81
290.217	96
290.448	99
290.679	84
290.91	66
291.141	82
291.371	86
291.602	92
291.833	89
292.064	82
292.295	82
292.526	91
292.757	94
292.987	97
293.218	85
293.449	78
293.68	87
293.91	85
294.141	88
294.372	82
294.603	87
294.833	90
295.064	81
295.295	93
295.525	96
295.756	85
295.987	78
296.217	98
296.448	90
296.679	95
296.909	100
297.14	97
297.37	85
297.601	81
297.831	100
298.062	83
298.292	93
298.523	98
298.753	89
298.984	85
299.214	92
299.445	88
299.675	71
299.905	84
300.136	99
300.366	86
300.597	85
300.827	90
301.057	92
301.288	96
301.518	81
301.748	97
301.979	81
302.209	79
302.439	94
302.669	89
302.9	103
303.13	80
303.36	74
303.59	89
303.82	94
304.051	88
304.281	90
304.511	86
304.741	92
304.971	84
305.201	102
305.431	94
305.661	95
305.891	72
306.121	94
306.352	84
306.582	99
306.812	79
307.042	72
307.272	83
307.502	78
307.731	102
307.961	86
308.191	93
308.421	82
308.651	96
308.881	96
309.111	90
309.341	91
309.571	88
309.8	91
310.03	87
310.26	88
310.49	83
310.72	92
310.949	89
311.179	90
311.409	80
311.639	76
311.868	79
312.098	91
312.328	85
312.557	78
312.787	85
313.017	81
313.246	84
313.476	91
313.706	95
313.935	82
314.165	83
314.394	93
314.624	90
314.853	99
315.083	92
315.312	98
315.542	85
315.771	77
316.001	77
316.23	78
316.46	78
316.689	81
316.919	101
317.148	86
317.377	92
317.607	83
317.836	92
318.065	98
318.295	111
318.524	88
318.753	100
318.983	79
319.212	78
319.441	82
319.67	97
319.9	93
320.129	90
320.358	88
320.587	99
320.816	84
321.046	84
321.275	94
321.504	99
321.733	105
321.962	76
322.191	100
322.42	84
322.649	95
322.878	99
323.108	90
323.337	87
323.566	77
323.795	91
324.024	96
324.253	94
324.482	76
324.71	91
324.939	91
325.168	101
325.397	85
325.626	105
325.855	91
326.084	92
326.313	89
326.542	91
326.77	102
326.999	97
327.228	94
327.457	89
327.686	83
327.914	92
328.143	91
328.372	77
328.6	85
328.829	72
329.058	90
329.287	83
329.515	91
329.744	86
329.972	80
330.201	84
330.43	80
330.658	118
330.887	94
331.115	88
331.344	87
331.572	98
331.801	94
332.03	87
332.258	94
332.486	94
332.715	86
332.943	92
333.172	87
333.4	86
333.629	85
333.857	78
334.085	85
334.314	90
334.542	86
334.771	82
334.999	84
335.227	82
335.455	78
335.684	85
335.912	91
336.14	78
336.369	79
336.597	101
336.825	95
337.053	91
337.281	82
337.51	87
337.738	90
337.966	86
338.194	98
338.422	71
338.65	93
338.878	90
339.106	89
339.334	90
339.562	80
339.79	92
340.018	86
340.246	82
340.474	89
340.702	69
340.93	84
341.158	91
341.386	90
341.614	74
341.842	88
342.07	94
342.298	90
342.526	83
342.754	85
342.981	80
343.209	85
343.437	92
343.665	89
343.893	95
344.12	93
344.348	78
344.576	81
344.804	75
345.031	78
345.259	88
345.487	87
345.714	91
345.942	92
346.17	81
346.397	98
346.625	108
346.853	89
347.08	89
347.308	93
347.535	91
347.763	93
347.99	89
348.218	91
348.445	97
348.673	83
348.9	88
349.128	86
349.355	78
349.583	68
349.81	95
350.037	91
350.265	93
350.492	93
350.72	84
350.947	85
351.174	86
351.402	82
351.629	85
351.856	92
352.083	90
352.311	87
352.538	92
352.765	98
352.992	91
353.22	86
353.447	99
353.674	92
353.901	79
354.128	79
354.355	92
354.583	72
354.81	82
355.037	77
355.264	93
355.491	95
355.718	94
355.945	90
356.172	83
356.399	92
356.626	88
356.853	85
357.08	79
357.307	77
357.534	82
357.761	81
357.988	101
358.215	82
358.441	92
358.668	78
358.895	87
359.122	82
359.349	88
359.576	76
359.802	73
360.029	88
360.256	96
360.483	67
360.709	84
360.936	90
361.163	98
361.39	96
361.616	82
361.843	78
362.07	85
362.296	78
362.523	86
362.749	81
362.976	84
363.203	92
363.429	79
363.656	76
363.882	69
364.109	74
364.335	76
364.562	86
364.788	86
365.015	82
365.241	96
365.468	82
365.694	82
365.92	71
366.147	90
366.373	93
366.599	94
366.826	98
367.052	88
367.278	80
367.505	81
367.731	90
367.957	89
368.184	90
368.41	90
368.636	83
368.862	77
369.089	87
369.315	92
369.541	83
369.767	94
369.993	86
370.219	92
370.445	84
370.672	84
370.898	86
371.124	81
371.35	97
371.576	85
371.802	92
372.028	85
372.254	81
372.48	88
372.706	87
372.932	91
373.158	97
373.384	85
373.61	87
373.835	84
374.061	86
374.287	89
374.513	83
374.739	84
374.965	81
375.191	79
375.416	92
375.642	91
375.868	95
376.094	98
376.319	80
376.545	77
376.771	82
376.997	87
377.222	71
377.448	105
377.674	83
377.899	87
378.125	76
378.35	85
378.576	86
378.802	87
379.027	92
379.253	85
379.478	69
379.704	89
379.929	90
380.155	85
380.38	91
380.606	91
380.831	93
381.057	99
381.282	79
381.507	83
381.733	89
381.958	96
382.184	85
382.409	85
382.634	87
382.86	100
383.085	86
383.31	75
383.535	92
383.761	82
383.986	84
384.211	103
384.436	85
384.662	85
384.887	90
385.112	84
385.337	91
385.562	98
385.787	97
386.013	98
386.238	81
386.463	85
386.688	90
386.913	80
387.138	80
387.363	88
387.588	82
387.813	98
388.038	83
388.263	107
388.488	83
388.713	78
388.938	83
389.163	87
389.387	86
389.612	92
389.837	86
390.062	91
390.287	81
390.512	85
390.736	89
390.961	87
391.186	87
391.411	87
391.636	93
391.86	95
392.085	88
392.31	91
392.534	91
392.759	87
392.984	84
393.208	91
393.433	96
393.658	100
393.882	101
394.107	70
394.331	86
394.556	76
394.78	91
395.005	94
395.229	83
395.454	91
395.678	99
395.903	95
396.127	93
396.352	75
396.576	88
396.801	93
397.025	96
397.249	94
397.474	96
397.698	87
397.922	90
398.147	72
398.371	85
398.595	90
398.82	95
399.044	100
399.268	101
399.492	89
399.717	86
399.941	90
400.165	94
400.389	90
400.613	89
400.837	98
401.062	92
401.286	82
401.51	93
401.734	82
401.958	87
402.182	86
402.406	88
402.63	109
402.854	105
403.078	90
403.302	83
403.526	93
403.75	86
403.974	83
404.198	81
404.422	89
404.645	82
404.869	96
405.093	97
405.317	99
405.541	93
405.765	85
405.988	102
406.212	106
406.436	98
406.66	86
406.883	87
407.107	93
407.331	94
407.555	83
407.778	103
408.002	92
408.226	93
408.449	93
408.673	85
408.896	84
409.12	95
409.344	93
409.567	90
409.791	93
410.014	99
410.238	85
410.461	87
410.685	90
410.908	91
411.132	88
411.355	83
411.578	93
411.802	98
412.025	72
412.249	93
412.472	95
412.695	94
412.919	95
413.142	91
413.365	81
413.589	99
413.812	84
414.035	95
414.258	101
414.482	106
414.705	95
414.928	90
415.151	102
415.374	95
415.597	94
415.821	98
416.044	114
416.267	85
416.49	96
416.713	88
416.936	100
417.159	85
417.382	98
417.605	84
417.828	77
418.051	103
418.274	95
418.497	92
418.72	100
418.943	97
419.166	110
419.389	105
419.611	88
419.834	88
420.057	106
420.28	102
420.503	109
420.726	113
420.948	100
421.171	89
421.394	93
421.617	98
421.839	121
422.062	95
422.285	90
422.507	85
422.73	100
422.953	107
423.175	99
423.398	94
423.621	74
423.843	107
424.066	101
424.288	114
424.511	93
424.733	108
424.956	98
425.178	85
425.401	105
425.623	92
425.846	100
426.068	82
426.291	87
426.513	88
426.735	91
426.958	91
427.18	108
427.402	93
427.625	94
427.847	101
428.069	100
428.292	89
428.514	78
428.736	101
428.958	93
429.181	94
429.403	86
429.625	100
429.847	86
430.069	98
430.292	107
430.514	95
430.736	89
430.958	86
431.18	89
431.402	90
431.624	96
431.846	93
432.068	77
432.29	88
432.512	88
432.734	87
432.956	87
433.178	94
433.4	104
433.622	103
433.844	93
434.066	97
434.287	85
434.509	86
434.731	88
434.953	102
435.175	93
435.397	92
435.618	97
435.84	86
436.062	89
436.284	95
436.505	104
436.727	97
436.949	99
437.17	103
437.392	90
437.614	90
437.835	100
438.057	97
438.278	97
438.5	98
438.721	95
438.943	86
439.165	98
439.386	100
439.608	104
439.829	99
440.05	106
440.272	91
440.493	101
440.715	99
440.936	111
441.158	102
441.379	109
441.6	121
441.822	97
442.043	105
442.264	100
442.486	94
442.707	90
442.928	91
443.149	85
443.371	107
443.592	92
443.813	92
444.034	97
444.255	105
444.476	111
444.698	93
444.919	115
445.14	189
445.361	127
445.582	105
445.803	108
446.024	110
446.245	93
446.466	91
446.687	85
446.908	80
447.129	101
447.35	103
447.571	107
447.792	80
448.013	94
448.234	98
448.455	98
448.675	109
448.896	94
449.117	81
449.338	84
449.559	107
449.779	96
450	99
450.221	101
450.442	98
450.662	96
450.883	92
451.104	91
451.324	100
451.545	94
451.766	94
451.986	92
452.207	102
452.428	92
452.648	98
452.869	93
453.089	99
453.31	91
453.53	77
453.751	85
453.971	91
454.192	88
454.412	87
454.633	81
454.853	92
455.073	92
455.294	90
455.514	101
455.734	90
455.955	73
456.175	89
456.395	103
456.616	104
456.836	84
457.056	97
457.276	86
457.497	81
457.717	99
457.937	91
458.157	103
458.377	87
458.598	84
458.818	91
459.038	97
459.258	87
459.478	85
459.698	85
459.918	84
460.138	90
460.358	95
460.578	87
460.798	106
461.018	79
461.238	101
461.458	97
461.678	100
461.898	98
462.118	98
462.338	90
462.558	92
462.777	91
462.997	91
463.217	92
463.437	79
463.657	90
463.876	92
464.096	74
464.316	93
464.536	93
464.755	101
464.975	96
465.195	99
465.414	90
465.634	98
465.854	87
466.073	79
466.293	99
466.512	100
466.732	91
466.951	95
467.171	101
467.391	102
467.61	104
467.829	100
468.049	89
468.268	112
468.488	93
468.707	99
468.927	98
469.146	100
469.365	90
469.585	101
469.804	92
470.023	92
470.243	107
470.462	103
470.681	81
470.901	92
471.12	99
471.339	113
471.558	106
471.777	103
471.997	99
472.216	99
472.435	99
472.654	85
472.873	84
473.092	83
473.311	105
473.53	100
473.749	103
473.968	94
474.187	93
474.406	86
474.625	90
474.844	114
475.063	100
475.282	102
475.501	87
475.72	105
475.939	92
476.158	102
476.377	91
476.596	99
476.814	89
477.033	98
477.252	99
477.471	98
477.69	95
477.908	92
478.127	104
478.346	105
478.564	97
478.783	92
479.002	101
479.22	96
479.439	105
479.658	90
479.876	88
480.095	95
480.313	96
480.532	85
480.751	84
480.969	88
481.188	84
481.406	95
481.624	87
481.843	88
482.061	81
482.28	85
482.498	88
482.717	94
482.935	94
483.153	105
483.372	111
483.59	114
483.808	108
484.027	109
484.245	90
484.463	107
484.681	109
484.9	99
485.118	106
485.336	103
485.554	99
485.772	101
485.99	95
486.209	90
486.427	101
486.645	96
486.863	96
487.081	100
487.299	99
487.517	99
487.735	108
487.953	118
488.171	122
488.389	129
488.607	108
488.825	96
489.043	92
489.261	108
489.479	101
489.696	91
489.914	103
490.132	98
490.35	116
490.568	99
490.786	118
491.003	124
491.221	113
491.439	117
491.657	133
491.874	132
492.092	142
492.31	126
492.527	131
492.745	127
492.963	119
493.18	103
493.398	125
493.615	123
493.833	115
494.05	93
494.268	107
494.485	109
494.703	124
494.92	115
495.138	123
495.355	119
495.573	105
495.79	110
496.008	98
496.225	99
496.442	107
496.66	102
496.877	97
497.094	128
497.312	105
497.529	115
497.746	118
497.963	100
498.181	99
498.398	92
498.615	101
498.832	95
499.049	95
499.267	96
499.484	89
499.701	102
499.918	95
500.135	113
500.352	103
500.569	98
500.786	102
501.003	99
501.22	91
501.437	104
501.654	94
501.871	95
502.088	103
502.305	89
502.522	103
502.739	91
502.956	97
503.172	100
503.389	108
503.606	91
503.823	99
504.04	102
504.256	94
504.473	87
504.69	95
504.907	100
505.123	99
505.34	100
505.557	98
505.773	99
505.99	95
506.207	89
506.423	101
506.64	90
506.856	89
507.073	94
507.289	82
507.506	91
507.722	99
507.939	85
508.155	102
508.372	80
508.588	100
508.805	105
509.021	100
509.238	89
509.454	81
509.67	85
509.887	90
510.103	97
510.319	82
510.536	83
510.752	92
510.968	82
511.184	80
511.401	99
511.617	87
511.833	94
512.049	95
512.265	100
512.481	99
512.698	84
512.914	93
513.13	82
513.346	99
513.562	90
513.778	76
513.994	94
514.21	87
514.426	84
514.642	88
514.858	87
515.074	81
515.29	107
515.506	91
515.721	90
515.937	92
516.153	100
516.369	92
516.585	79
516.801	82
517.016	81
517.232	83
517.448	87
517.664	89
517.879	88
518.095	94
518.311	95
518.527	103
518.742	84
518.958	96
519.173	77
519.389	90
519.605	79
519.82	95
520.036	87
520.251	82
520.467	106
520.682	93
520.898	94
521.113	87
521.329	78
521.544	85
521.76	84
521.975	99
522.19	98
522.406	82
522.621	97
522.836	86
523.052	92
523.267	103
523.482	92
523.698	99
523.913	104
524.128	99
524.343	78
524.559	79
524.774	91
524.989	94
525.204	91
525.419	97
525.634	106
525.849	99
526.064	95
526.28	91
526.495	92
526.71	86
526.925	88
527.14	87
527.355	89
527.57	84
527.785	95
527.999	95
528.214	99
528.429	100
528.644	101
528.859	102
529.074	98
529.289	103
529.503	107
529.718	90
529.933	87
530.148	102
530.363	101
530.577	93
530.792	90
531.007	89
531.221	88
531.436	96
531.651	84
531.865	93
532.08	85
532.295	98
532.509	101
532.724	83
532.938	84
533.153	73
533.367	99
533.582	96
533.796	103
534.011	90
534.225	86
534.44	90
534.654	83
534.868	84
535.083	90
535.297	90
535.511	88
535.726	87
535.94	95
536.154	104
536.369	88
536.583	86
536.797	90
537.011	100
537.225	78
537.44	75
537.654	95
537.868	84
538.082	88
538.296	98
538.51	98
538.724	92
538.938	87
539.153	105
539.367	99
539.581	85
539.795	89
540.009	87
540.222	79
540.436	84
540.65	102
540.864	96
541.078	98
541.292	105
541.506	97
541.72	103
541.934	123
542.147	117
542.361	131
542.575	111
542.789	92
543.002	104
543.216	108
543.43	97
543.644	100
543.857	100
544.071	111
544.285	109
544.498	121
544.712	116
544.925	104
545.139	105
545.352	124
545.566	110
545.779	125
545.993	122
546.206	105
546.42	109
546.633	121
546.847	118
547.06	104
547.274	102
547.487	109
547.7	113
547.914	120
548.127	117
548.34	110
548.554	104
548.767	99
548.98	109
549.193	103
549.407	116
549.62	109
549.833	103
550.046	108
550.259	108
550.473	113
550.686	105
550.899	105
551.112	102
551.325	92
551.538	103
551.751	97
551.964	100
552.177	108
552.39	98
552.603	108
552.816	112
553.029	113
553.242	107
553.455	102
553.667	114
553.88	114
554.093	116
554.306	107
554.519	102
554.732	114
554.944	99
555.157	91
555.37	98
555.583	102
555.795	98
556.008	98
556.221	98
556.433	102
556.646	102
556.859	103
557.071	103
557.284	98
557.496	89
557.709	98
557.921	105
558.134	119
558.346	100
558.559	90
558.771	106
558.984	107
559.196	107
559.409	94
559.621	96
559.833	111
560.046	101
560.258	90
560.47	110
560.683	98
560.895	111
561.107	102
561.32	104
561.532	98
561.744	99
561.956	122
562.168	103
562.381	99
562.593	99
562.805	101
563.017	95
563.229	105
563.441	102
563.653	106
563.865	81
564.077	97
564.289	105
564.501	101
564.713	93
564.925	104
565.137	96
565.349	89
565.561	111
565.773	93
565.985	90
566.197	91
566.408	95
566.62	82
566.832	106
567.044	100
567.255	97
567.467	105
567.679	96
567.891	109
568.102	84
568.314	85
568.526	86
568.737	93
568.949	92
569.161	86
569.372	76
569.584	88
569.795	93
570.007	86
570.218	86
570.43	104
570.641	82
570.853	91
571.064	83
571.276	104
571.487	95
571.698	82
571.91	91
572.121	111
572.333	82
572.544	103
572.755	109
572.966	75
573.178	97
573.389	101
573.6	91
573.811	92
574.023	101
574.234	58
574.445	83
574.656	81
574.867	85
575.078	93
575.289	87
575.501	71
575.712	95
575.923	86
576.134	74
576.345	89
576.556	77
576.767	82
576.978	96
577.188	97
577.399	79
577.61	86
577.821	88
578.032	91
578.243	98
578.454	95
578.665	94
578.875	80
579.086	96
579.297	78
579.508	76
579.718	88
579.929	90
580.14	85
580.35	73
580.561	70
580.772	90
580.982	90
581.193	91
581.403	85
581.614	98
581.825	99
582.035	82
582.246	88
582.456	85
582.667	91
582.877	87
583.087	94
583.298	91
583.508	85
583.719	86
583.929	94
584.139	84
584.35	86
584.56	82
584.77	87
584.981	81
585.191	92
585.401	86
585.611	76
585.821	78
586.032	89
586.242	97
586.452	78
586.662	75
586.872	86
587.082	84
587.292	95
587.502	82
587.713	90
587.923	89
588.133	98
588.343	85
588.553	76
588.762	84
588.972	78
589.182	83
589.392	86
589.602	97
589.812	90
590.022	102
590.232	90
590.441	107
590.651	81
590.861	84
591.071	89
591.281	93
591.49	82
591.7	87
591.91	83
592.119	89
592.329	88
592.539	78
592.748	90
592.958	86
593.167	83
593.377	90
593.587	82
593.796	93
594.006	82
594.215	91
594.424	101
594.634	92
594.843	79
595.053	85
595.262	94
595.472	89
595.681	95
595.89	92
596.1	90
596.309	97
596.518	92
596.727	86
596.937	88
597.146	84
597.355	85
597.564	83
597.774	88
597.983	90
598.192	85
598.401	88
598.61	102
598.819	82
599.028	98
599.237	100
599.446	83
599.655	91
599.864	88
600.073	88
600.282	92
600.491	100
600.7	98
600.909	84
601.118	96
601.327	88
601.536	113
601.745	107
601.953	93
602.162	102
602.371	104
602.58	97
602.789	89
602.997	91
603.206	90
603.415	79
603.623	98
603.832	94
604.041	97
604.249	102
604.458	91
604.666	97
604.875	90
605.084	87
605.292	82
605.501	88
605.709	96
605.918	102
606.126	98
606.334	101
606.543	92
606.751	86
606.96	95
607.168	94
607.376	91
607.585	96
607.793	92
608.001	106
608.21	97
608.418	101
608.626	90
608.834	107
609.043	106
609.251	81
609.459	90
609.667	101
609.875	100
610.083	105
610.291	101
610.499	99
610.707	97
610.916	103
611.124	94
611.332	90
611.54	84
611.748	90
611.955	96
612.163	82
612.371	101
612.579	106
612.787	83
612.995	85
613.203	109
613.411	98
613.618	96
613.826	108
614.034	97
614.242	105
614.449	98
614.657	89
614.865	102
615.072	84
615.28	84
615.488	78
615.695	87
615.903	105
616.111	110
616.318	96
616.526	93
616.733	101
616.941	95
617.148	100
617.356	94
617.563	97
617.771	91
617.978	95
618.185	110
618.393	101
618.6	88
618.807	76
619.015	97
619.222	93
619.429	90
619.637	94
619.844	82
620.051	89
620.258	99
620.466	97
620.673	91
620.88	96
621.087	94
621.294	96
621.501	93
621.708	76
621.915	87
622.122	95
622.329	85
622.536	83
622.743	87
622.95	88
623.157	83
623.364	92
623.571	70
623.778	101
623.985	104
624.192	78
624.399	113
624.606	105
624.812	96
625.019	88
625.226	90
625.433	91
625.639	98
625.846	106
626.053	89
626.259	99
626.466	86
626.673	95
626.879	79
627.086	89
627.293	97
627.499	92
627.706	94
627.912	106
628.119	94
628.325	96
628.532	89
628.738	81
628.945	92
629.151	96
629.357	86
629.564	94
629.77	90
629.976	84
630.183	84
630.389	74
630.595	88
630.802	85
631.008	76
631.214	88
631.42	89
631.627	98
631.833	98
632.039	100
632.245	79
632.451	103
632.657	98
632.863	99
633.069	95
633.275	91
633.481	87
633.688	89
633.893	79
634.099	68
634.305	81
634.511	97
634.717	96
634.923	96
635.129	78
635.335	94
635.541	81
635.747	72
635.952	76
636.158	89
636.364	90
636.57	100
636.775	98
636.981	89
637.187	85
637.392	91
637.598	87
637.804	95
638.009	88
638.215	91
638.421	88
638.626	99
638.832	87
639.037	98
639.243	88
639.448	95
639.654	104
639.859	103
640.065	86
640.27	103
640.475	88
640.681	86
640.886	94
641.091	83
641.297	97
641.502	100
641.707	99
641.913	73
642.118	91
642.323	85
642.528	87
642.733	77
642.939	80
643.144	98
643.349	94
643.554	98
643.759	96
643.964	86
644.169	100
644.374	86
644.579	95
644.784	94
644.989	91
645.194	98
645.399	89
645.604	97
645.809	88
646.014	72
646.219	95
646.423	96
646.628	89
646.833	94
647.038	97
647.243	78
647.447	100
647.652	94
647.857	93
648.062	94
648.266	81
648.471	99
648.676	90
648.88	77
649.085	103
649.289	95
649.494	92
649.698	87
649.903	103
650.107	94
650.312	88
650.516	99
650.721	84
650.925	108
651.13	88
651.334	74
651.539	74
651.743	98
651.947	103
652.152	106
652.356	92
652.56	82
652.764	76
652.969	108
653.173	100
653.377	82
653.581	91
653.785	89
653.99	91
654.194	71
654.398	86
654.602	97
654.806	100
655.01	82
655.214	71
655.418	89
655.622	85
655.826	85
656.03	91
656.234	85
656.438	79
656.642	92
656.846	89
657.049	90
657.253	89
657.457	98
657.661	97
657.865	74
658.068	79
658.272	87
658.476	94
658.68	88
658.883	93
659.087	91
659.291	93
659.494	90
659.698	97
659.901	79
660.105	84
660.309	80
660.512	89
660.716	88
660.919	84
661.123	77
661.326	93
661.53	81
661.733	81
661.936	96
662.14	87
662.343	78
662.546	79
662.75	81
662.953	91
663.156	90
663.36	88
663.563	72
663.766	86
663.969	86
664.173	72
664.376	75
664.579	83
664.782	91
664.985	72
665.188	83
665.391	84
665.594	87
665.797	79
666	92
666.203	71
666.406	97
666.609	90
666.812	88
667.015	76
667.218	77
667.421	82
667.624	100
667.827	86
668.03	75
668.232	78
668.435	89
668.638	78
668.841	87
669.043	80
669.246	74
669.449	69
669.651	91
669.854	80
670.057	89
670.259	91
670.462	89
670.665	93
670.867	67
671.07	76
671.272	84
671.475	100
671.677	94
671.88	85
672.082	79
672.284	83
672.487	83
672.689	93
672.892	73
