Data from Location3.07152019.Energy5.Lamp.07192019.3%Agarose_HRD10591_15-18-46-270.txt Node
Date: Fri Jul 19 15:18:46 EDT 2019
User: cochatt
Spectrometer: HR+D1059
Trigger mode: 1
Integration Time (sec): 1.000000E-1
Scans to average: 1
Electric dark correction enabled: true
Nonlinearity correction enabled: false
Boxcar width: 0
XAxis mode: Wavelengths
Number of Pixels in Spectrum: 2048
>>>>>Begin Spectral Data<<<<<
223.165	-6
223.4	-6
223.635	-6
223.869	-27
224.104	-12
224.338	-17
224.573	-9
224.808	-6
225.042	-12
225.277	-4
225.511	-5
225.746	15
225.98	-23
226.215	7
226.449	13
226.683	24
226.918	26
227.152	36
227.387	49
227.621	33
227.856	42
228.09	53
228.324	55
228.559	53
228.793	63
229.027	68
229.262	55
229.496	53
229.73	65
229.964	66
230.199	58
230.433	68
230.667	71
230.901	73
231.136	77
231.37	82
231.604	82
231.838	82
232.072	79
232.306	75
232.541	89
232.775	85
233.009	80
233.243	86
233.477	77
233.711	87
233.945	95
234.179	98
234.413	80
234.647	77
234.881	69
235.115	84
235.349	82
235.583	82
235.817	75
236.051	59
236.285	78
236.519	83
236.753	83
236.987	72
237.221	77
237.455	73
237.689	81
237.922	79
238.156	84
238.39	80
238.624	83
238.858	76
239.091	76
239.325	85
239.559	68
239.793	86
240.027	81
240.26	86
240.494	79
240.728	76
240.961	75
241.195	77
241.429	76
241.662	77
241.896	62
242.13	68
242.363	65
242.597	67
242.83	73
243.064	69
243.298	70
243.531	74
243.765	74
243.998	88
244.232	90
244.465	76
244.699	84
244.932	72
245.166	84
245.399	84
245.633	76
245.866	83
246.099	88
246.333	87
246.566	90
246.8	76
247.033	71
247.266	63
247.5	84
247.733	88
247.966	82
248.2	89
248.433	83
248.666	85
248.899	77
249.133	74
249.366	66
249.599	76
249.832	71
250.066	92
250.299	80
250.532	87
250.765	86
250.998	82
251.231	83
251.465	79
251.698	80
251.931	84
252.164	80
252.397	83
252.63	91
252.863	88
253.096	68
253.329	81
253.562	80
253.795	69
254.028	92
254.261	83
254.494	94
254.727	88
254.96	99
255.193	71
255.426	80
255.659	77
255.892	78
256.124	66
256.357	88
256.59	83
256.823	88
257.056	87
257.289	95
257.521	94
257.754	82
257.987	96
258.22	70
258.452	75
258.685	70
258.918	92
259.151	78
259.383	80
259.616	75
259.849	84
260.081	73
260.314	80
260.547	80
260.779	74
261.012	80
261.244	91
261.477	90
261.71	77
261.942	66
262.175	92
262.407	83
262.64	72
262.872	88
263.105	83
263.337	89
263.57	84
263.802	86
264.035	71
264.267	78
264.499	81
264.732	88
264.964	81
265.197	87
265.429	69
265.661	83
265.894	87
266.126	81
266.358	91
266.591	88
266.823	81
267.055	81
267.287	86
267.52	77
267.752	83
267.984	82
268.216	83
268.448	88
268.681	91
268.913	96
269.145	89
269.377	101
269.609	74
269.841	84
270.073	76
270.306	84
270.538	76
270.77	79
271.002	73
271.234	102
271.466	88
271.698	83
271.93	88
272.162	89
272.394	72
272.626	75
272.858	82
273.09	93
273.322	86
273.553	83
273.785	91
274.017	86
274.249	81
274.481	96
274.713	82
274.945	75
275.176	71
275.408	82
275.64	91
275.872	73
276.104	92
276.335	93
276.567	100
276.799	77
277.031	88
277.262	87
277.494	85
277.726	85
277.957	95
278.189	82
278.421	87
278.652	84
278.884	76
279.115	83
279.347	97
279.579	82
279.81	75
280.042	78
280.273	89
280.505	88
280.736	83
280.968	88
281.199	74
281.431	94
281.662	81
281.894	92
282.125	89
282.356	82
282.588	84
282.819	68
283.051	83
283.282	75
283.513	87
283.745	76
283.976	76
284.207	83
284.439	86
284.67	96
284.901	86
285.132	86
285.364	75
285.595	89
285.826	72
286.057	87
286.288	93
286.52	100
286.751	96
286.982	98
287.213	88
287.444	103
287.675	93
287.906	85
288.138	79
288.369	80
288.6	85
288.831	80
289.062	93
289.293	84
289.524	88
289.755	77
289.986	86
290.217	96
290.448	91
290.679	80
290.91	87
291.141	85
291.371	92
291.602	93
291.833	78
292.064	72
292.295	84
292.526	76
292.757	82
292.987	71
293.218	88
293.449	81
293.68	75
293.91	87
294.141	84
294.372	72
294.603	80
294.833	83
295.064	75
295.295	94
295.525	84
295.756	92
295.987	78
296.217	87
296.448	98
296.679	95
296.909	92
297.14	87
297.37	87
297.601	85
297.831	74
298.062	86
298.292	93
298.523	89
298.753	82
298.984	92
299.214	88
299.445	90
299.675	97
299.905	85
300.136	85
300.366	95
300.597	87
300.827	87
301.057	91
301.288	84
301.518	100
301.748	91
301.979	85
302.209	71
302.439	84
302.669	92
302.9	89
303.13	93
303.36	98
303.59	74
303.82	86
304.051	84
304.281	91
304.511	83
304.741	92
304.971	82
305.201	92
305.431	89
305.661	82
305.891	91
306.121	91
306.352	76
306.582	80
306.812	91
307.042	70
307.272	95
307.502	81
307.731	65
307.961	91
308.191	79
308.421	74
308.651	77
308.881	78
309.111	84
309.341	80
309.571	88
309.8	100
310.03	87
310.26	77
310.49	86
310.72	83
310.949	92
311.179	85
311.409	99
311.639	86
311.868	102
312.098	106
312.328	83
312.557	87
312.787	76
313.017	80
313.246	86
313.476	77
313.706	82
313.935	91
314.165	75
314.394	79
314.624	84
314.853	90
315.083	90
315.312	76
315.542	80
315.771	83
316.001	83
316.23	88
316.46	86
316.689	87
316.919	87
317.148	83
317.377	92
317.607	80
317.836	88
318.065	92
318.295	76
318.524	78
318.753	89
318.983	77
319.212	86
319.441	92
319.67	74
319.9	78
320.129	85
320.358	82
320.587	88
320.816	71
321.046	89
321.275	89
321.504	93
321.733	93
321.962	91
322.191	83
322.42	87
322.649	85
322.878	92
323.108	94
323.337	89
323.566	83
323.795	102
324.024	115
324.253	91
324.482	85
324.71	86
324.939	90
325.168	89
325.397	85
325.626	90
325.855	81
326.084	78
326.313	97
326.542	83
326.77	87
326.999	87
327.228	86
327.457	87
327.686	89
327.914	96
328.143	83
328.372	82
328.6	86
328.829	87
329.058	94
329.287	88
329.515	91
329.744	92
329.972	91
330.201	87
330.43	91
330.658	86
330.887	91
331.115	90
331.344	82
331.572	89
331.801	87
332.03	80
332.258	77
332.486	81
332.715	100
332.943	86
333.172	79
333.4	90
333.629	84
333.857	87
334.085	72
334.314	83
334.542	90
334.771	79
334.999	83
335.227	87
335.455	93
335.684	91
335.912	87
336.14	87
336.369	83
336.597	67
336.825	86
337.053	81
337.281	92
337.51	91
337.738	80
337.966	76
338.194	82
338.422	70
338.65	94
338.878	84
339.106	90
339.334	90
339.562	83
339.79	83
340.018	84
340.246	81
340.474	92
340.702	82
340.93	83
341.158	91
341.386	105
341.614	95
341.842	92
342.07	88
342.298	85
342.526	86
342.754	83
342.981	93
343.209	102
343.437	83
343.665	79
343.893	77
344.12	83
344.348	87
344.576	77
344.804	88
345.031	94
345.259	81
345.487	85
345.714	94
345.942	81
346.17	94
346.397	94
346.625	89
346.853	89
347.08	91
347.308	76
347.535	78
347.763	85
347.99	82
348.218	87
348.445	77
348.673	80
348.9	88
349.128	92
349.355	89
349.583	74
349.81	73
350.037	80
350.265	88
350.492	87
350.72	93
350.947	85
351.174	92
351.402	92
351.629	100
351.856	86
352.083	74
352.311	86
352.538	82
352.765	71
352.992	81
353.22	84
353.447	80
353.674	88
353.901	73
354.128	78
354.355	80
354.583	76
354.81	98
355.037	84
355.264	80
355.491	83
355.718	93
355.945	89
356.172	79
356.399	71
356.626	89
356.853	66
357.08	97
357.307	83
357.534	91
357.761	79
357.988	92
358.215	89
358.441	92
358.668	94
358.895	81
359.122	89
359.349	74
359.576	89
359.802	102
360.029	78
360.256	84
360.483	87
360.709	87
360.936	97
361.163	78
361.39	76
361.616	85
361.843	90
362.07	82
362.296	85
362.523	79
362.749	75
362.976	84
363.203	83
363.429	84
363.656	77
363.882	83
364.109	92
364.335	88
364.562	95
364.788	97
365.015	79
365.241	72
365.468	81
365.694	79
365.92	79
366.147	73
366.373	88
366.599	82
366.826	87
367.052	81
367.278	100
367.505	97
367.731	84
367.957	82
368.184	83
368.41	90
368.636	95
368.862	99
369.089	74
369.315	83
369.541	84
369.767	90
369.993	75
370.219	83
370.445	95
370.672	95
370.898	93
371.124	98
371.35	83
371.576	87
371.802	80
372.028	83
372.254	87
372.48	80
372.706	90
372.932	91
373.158	94
373.384	88
373.61	87
373.835	91
374.061	87
374.287	82
374.513	100
374.739	89
374.965	90
375.191	98
375.416	86
375.642	88
375.868	92
376.094	101
376.319	85
376.545	79
376.771	82
376.997	90
377.222	85
377.448	95
377.674	84
377.899	91
378.125	78
378.35	84
378.576	90
378.802	81
379.027	76
379.253	77
379.478	77
379.704	87
379.929	89
380.155	83
380.38	96
380.606	99
380.831	93
381.057	88
381.282	89
381.507	91
381.733	83
381.958	103
382.184	80
382.409	75
382.634	80
382.86	88
383.085	82
383.31	84
383.535	85
383.761	81
383.986	85
384.211	85
384.436	75
384.662	74
384.887	94
385.112	100
385.337	99
385.562	89
385.787	78
386.013	82
386.238	89
386.463	91
386.688	74
386.913	77
387.138	80
387.363	85
387.588	80
387.813	84
388.038	89
388.263	80
388.488	88
388.713	91
388.938	104
389.163	82
389.387	90
389.612	87
389.837	84
390.062	86
390.287	86
390.512	82
390.736	88
390.961	89
391.186	104
391.411	88
391.636	96
391.86	93
392.085	83
392.31	108
392.534	90
392.759	87
392.984	90
393.208	95
393.433	91
393.658	92
393.882	96
394.107	99
394.331	96
394.556	86
394.78	82
395.005	88
395.229	97
395.454	92
395.678	85
395.903	94
396.127	80
396.352	101
396.576	97
396.801	77
397.025	88
397.249	83
397.474	105
397.698	105
397.922	87
398.147	100
398.371	94
398.595	105
398.82	88
399.044	71
399.268	77
399.492	81
399.717	103
399.941	90
400.165	92
400.389	81
400.613	86
400.837	91
401.062	97
401.286	91
401.51	87
401.734	92
401.958	91
402.182	84
402.406	97
402.63	93
402.854	97
403.078	90
403.302	90
403.526	100
403.75	93
403.974	94
404.198	90
404.422	91
404.645	105
404.869	76
405.093	92
405.317	95
405.541	83
405.765	81
405.988	86
406.212	88
406.436	97
406.66	99
406.883	89
407.107	95
407.331	91
407.555	96
407.778	96
408.002	86
408.226	90
408.449	98
408.673	90
408.896	86
409.12	95
409.344	78
409.567	88
409.791	85
410.014	89
410.238	83
410.461	102
410.685	104
410.908	96
411.132	97
411.355	99
411.578	96
411.802	89
412.025	99
412.249	82
412.472	101
412.695	91
412.919	91
413.142	92
413.365	98
413.589	96
413.812	86
414.035	81
414.258	115
414.482	87
414.705	106
414.928	92
415.151	106
415.374	89
415.597	98
415.821	95
416.044	96
416.267	89
416.49	85
416.713	93
416.936	92
417.159	93
417.382	97
417.605	88
417.828	102
418.051	97
418.274	91
418.497	91
418.72	97
418.943	106
419.166	106
419.389	105
419.611	97
419.834	97
420.057	102
420.28	88
420.503	90
420.726	114
420.948	90
421.171	94
421.394	89
421.617	106
421.839	103
422.062	91
422.285	96
422.507	114
422.73	95
422.953	92
423.175	102
423.398	96
423.621	89
423.843	96
424.066	104
424.288	103
424.511	92
424.733	95
424.956	94
425.178	106
425.401	98
425.623	105
425.846	93
426.068	85
426.291	92
426.513	104
426.735	118
426.958	102
427.18	105
427.402	107
427.625	90
427.847	90
428.069	95
428.292	96
428.514	105
428.736	98
428.958	98
429.181	90
429.403	102
429.625	107
429.847	87
430.069	98
430.292	92
430.514	91
430.736	100
430.958	105
431.18	99
431.402	94
431.624	103
431.846	91
432.068	83
432.29	75
432.512	103
432.734	99
432.956	104
433.178	103
433.4	97
433.622	102
433.844	84
434.066	101
434.287	91
434.509	77
434.731	80
434.953	98
435.175	105
435.397	90
435.618	91
435.84	87
436.062	93
436.284	81
436.505	99
436.727	104
436.949	105
437.17	114
437.392	87
437.614	89
437.835	92
438.057	85
438.278	92
438.5	83
438.721	95
438.943	92
439.165	79
439.386	99
439.608	90
439.829	104
440.05	115
440.272	95
440.493	107
440.715	108
440.936	118
441.158	85
441.379	107
441.6	111
441.822	105
442.043	108
442.264	101
442.486	83
442.707	106
442.928	99
443.149	104
443.371	89
443.592	90
443.813	92
444.034	97
444.255	92
444.476	95
444.698	91
444.919	93
445.14	214
445.361	164
445.582	94
445.803	108
446.024	101
446.245	98
446.466	100
446.687	102
446.908	99
447.129	106
447.35	111
447.571	104
447.792	115
448.013	107
448.234	104
448.455	108
448.675	111
448.896	85
449.117	102
449.338	100
449.559	97
449.779	109
450	109
450.221	105
450.442	100
450.662	93
450.883	101
451.104	113
451.324	111
451.545	90
451.766	97
451.986	84
452.207	93
452.428	101
452.648	102
452.869	91
453.089	102
453.31	91
453.53	96
453.751	94
453.971	92
454.192	98
454.412	99
454.633	100
454.853	104
455.073	99
455.294	88
455.514	98
455.734	99
455.955	97
456.175	83
456.395	98
456.616	89
456.836	83
457.056	97
457.276	91
457.497	84
457.717	85
457.937	93
458.157	86
458.377	88
458.598	85
458.818	88
459.038	73
459.258	81
459.478	83
459.698	82
459.918	83
460.138	101
460.358	63
460.578	91
460.798	99
461.018	95
461.238	93
461.458	87
461.678	91
461.898	82
462.118	90
462.338	83
462.558	91
462.777	86
462.997	98
463.217	86
463.437	87
463.657	78
463.876	79
464.096	102
464.316	103
464.536	91
464.755	81
464.975	95
465.195	84
465.414	98
465.634	99
465.854	96
466.073	89
466.293	83
466.512	99
466.732	98
466.951	94
467.171	103
467.391	90
467.61	96
467.829	87
468.049	92
468.268	102
468.488	101
468.707	103
468.927	90
469.146	79
469.365	95
469.585	104
469.804	98
470.023	106
470.243	103
470.462	103
470.681	109
470.901	101
471.12	102
471.339	95
471.558	96
471.777	103
471.997	111
472.216	91
472.435	94
472.654	100
472.873	86
473.092	95
473.311	93
473.53	85
473.749	93
473.968	91
474.187	91
474.406	91
474.625	102
474.844	111
475.063	92
475.282	93
475.501	92
475.72	82
475.939	88
476.158	103
476.377	103
476.596	87
476.814	92
477.033	92
477.252	105
477.471	90
477.69	101
477.908	104
478.127	102
478.346	110
478.564	99
478.783	104
479.002	88
479.22	97
479.439	101
479.658	105
479.876	92
480.095	92
480.313	92
480.532	111
480.751	100
480.969	83
481.188	93
481.406	82
481.624	92
481.843	90
482.061	83
482.28	92
482.498	88
482.717	99
482.935	100
483.153	95
483.372	107
483.59	105
483.808	101
484.027	101
484.245	89
484.463	88
484.681	101
484.9	95
485.118	114
485.336	103
485.554	93
485.772	90
485.99	81
486.209	93
486.427	92
486.645	95
486.863	87
487.081	100
487.299	85
487.517	95
487.735	104
487.953	102
488.171	110
488.389	87
488.607	109
488.825	117
489.043	97
489.261	106
489.479	113
489.696	96
489.914	114
490.132	102
490.35	107
490.568	119
490.786	104
491.003	111
491.221	95
491.439	115
491.657	119
491.874	117
492.092	133
492.31	134
492.527	129
492.745	145
492.963	117
493.18	99
493.398	117
493.615	114
493.833	111
494.05	119
494.268	111
494.485	110
494.703	105
494.92	120
495.138	115
495.355	105
495.573	102
495.79	119
496.008	106
496.225	113
496.442	113
496.66	114
496.877	119
497.094	105
497.312	104
497.529	119
497.746	91
497.963	93
498.181	85
498.398	92
498.615	86
498.832	96
499.049	95
499.267	85
499.484	97
499.701	93
499.918	99
500.135	104
500.352	102
500.569	91
500.786	96
501.003	104
501.22	88
501.437	100
501.654	92
501.871	103
502.088	105
502.305	108
502.522	106
502.739	105
502.956	100
503.172	97
503.389	92
503.606	102
503.823	108
504.04	95
504.256	102
504.473	88
504.69	114
504.907	111
505.123	112
505.34	99
505.557	108
505.773	104
505.99	103
506.207	95
506.423	86
506.64	81
506.856	92
507.073	93
507.289	86
507.506	103
507.722	96
507.939	82
508.155	99
508.372	101
508.588	106
508.805	96
509.021	99
509.238	73
509.454	94
509.67	93
509.887	70
510.103	86
510.319	86
510.536	79
510.752	77
510.968	74
511.184	82
511.401	87
511.617	86
511.833	84
512.049	83
512.265	80
512.481	103
512.698	72
512.914	96
513.13	81
513.346	86
513.562	93
513.778	78
513.994	82
514.21	91
514.426	91
514.642	94
514.858	91
515.074	82
515.29	92
515.506	86
515.721	81
515.937	89
516.153	89
516.369	98
516.585	89
516.801	75
517.016	86
517.232	96
517.448	94
517.664	80
517.879	103
518.095	91
518.311	92
518.527	87
518.742	93
518.958	95
519.173	87
519.389	92
519.605	87
519.82	90
520.036	89
520.251	96
520.467	86
520.682	88
520.898	82
521.113	77
521.329	84
521.544	96
521.76	83
521.975	78
522.19	90
522.406	79
522.621	86
522.836	79
523.052	83
523.267	91
523.482	91
523.698	100
523.913	90
524.128	77
524.343	106
524.559	108
524.774	84
524.989	98
525.204	98
525.419	97
525.634	96
525.849	89
526.064	91
526.28	84
526.495	81
526.71	82
526.925	88
527.14	84
527.355	88
527.57	86
527.785	86
527.999	89
528.214	102
528.429	97
528.644	91
528.859	105
529.074	88
529.289	106
529.503	100
529.718	103
529.933	108
530.148	93
530.363	86
530.577	85
530.792	92
531.007	90
531.221	99
531.436	89
531.651	72
531.865	91
532.08	80
532.295	92
532.509	91
532.724	99
532.938	87
533.153	100
533.367	95
533.582	110
533.796	102
534.011	84
534.225	83
534.44	89
534.654	77
534.868	77
535.083	74
535.297	84
535.511	107
535.726	93
535.94	104
536.154	90
536.369	67
536.583	77
536.797	90
537.011	87
537.225	91
537.44	97
537.654	72
537.868	98
538.082	101
538.296	90
538.51	78
538.724	99
538.938	97
539.153	101
539.367	107
539.581	109
539.795	86
540.009	84
540.222	100
540.436	76
540.65	78
540.864	84
541.078	97
541.292	100
541.506	112
541.72	109
541.934	108
542.147	120
542.361	116
542.575	112
542.789	92
543.002	99
543.216	87
543.43	108
543.644	109
543.857	114
544.071	107
544.285	96
544.498	93
544.712	111
544.925	106
545.139	107
545.352	106
545.566	111
545.779	100
545.993	111
546.206	107
546.42	105
546.633	124
546.847	127
547.06	91
547.274	113
547.487	115
547.7	116
547.914	100
548.127	97
548.34	112
548.554	111
548.767	96
548.98	100
549.193	123
549.407	119
549.62	119
549.833	95
550.046	114
550.259	98
550.473	101
550.686	112
550.899	100
551.112	103
551.325	114
551.538	103
551.751	87
551.964	100
552.177	107
552.39	114
552.603	97
552.816	108
553.029	96
553.242	114
553.455	103
553.667	101
553.88	118
554.093	111
554.306	106
554.519	105
554.732	90
554.944	97
555.157	107
555.37	103
555.583	113
555.795	107
556.008	111
556.221	88
556.433	116
556.646	95
556.859	95
557.071	113
557.284	107
557.496	96
557.709	100
557.921	93
558.134	113
558.346	105
558.559	113
558.771	117
558.984	98
559.196	103
559.409	117
559.621	97
559.833	94
560.046	106
560.258	111
560.47	94
560.683	112
560.895	108
561.107	103
561.32	92
561.532	88
561.744	96
561.956	95
562.168	105
562.381	105
562.593	100
562.805	89
563.017	104
563.229	98
563.441	81
563.653	106
563.865	100
564.077	97
564.289	100
564.501	102
564.713	96
564.925	98
565.137	90
565.349	97
565.561	97
565.773	108
565.985	103
566.197	104
566.408	104
566.62	95
566.832	96
567.044	104
567.255	96
567.467	102
567.679	94
567.891	83
568.102	82
568.314	92
568.526	89
568.737	87
568.949	89
569.161	84
569.372	76
569.584	100
569.795	92
570.007	80
570.218	86
570.43	93
570.641	95
570.853	86
571.064	93
571.276	81
571.487	90
571.698	92
571.91	93
572.121	81
572.333	89
572.544	100
572.755	92
572.966	87
573.178	88
573.389	83
573.6	95
573.811	106
574.023	86
574.234	82
574.445	96
574.656	78
574.867	93
575.078	90
575.289	84
575.501	94
575.712	85
575.923	92
576.134	96
576.345	92
576.556	89
576.767	83
576.978	90
577.188	92
577.399	78
577.61	89
577.821	87
578.032	90
578.243	84
578.454	99
578.665	92
578.875	80
579.086	87
579.297	89
579.508	97
579.718	83
579.929	88
580.14	101
580.35	90
580.561	84
580.772	97
580.982	91
581.193	85
581.403	82
581.614	87
581.825	84
582.035	70
582.246	98
582.456	97
582.667	69
582.877	99
583.087	83
583.298	78
583.508	76
583.719	81
583.929	97
584.139	77
584.35	75
584.56	96
584.77	89
584.981	91
585.191	87
585.401	94
585.611	89
585.821	80
586.032	92
586.242	95
586.452	95
586.662	101
586.872	90
587.082	75
587.292	92
587.502	96
587.713	92
587.923	87
588.133	79
588.343	95
588.553	77
588.762	74
588.972	92
589.182	89
589.392	81
589.602	95
589.812	87
590.022	81
590.232	77
590.441	83
590.651	83
590.861	92
591.071	90
591.281	76
591.49	88
591.7	95
591.91	89
592.119	85
592.329	80
592.539	96
592.748	77
592.958	83
593.167	87
593.377	72
593.587	95
593.796	77
594.006	81
594.215	73
594.424	86
594.634	88
594.843	93
595.053	90
595.262	82
595.472	91
595.681	107
595.89	94
596.1	86
596.309	95
596.518	81
596.727	107
596.937	79
597.146	84
597.355	90
597.564	92
597.774	94
597.983	86
598.192	93
598.401	90
598.61	82
598.819	88
599.028	93
599.237	90
599.446	92
599.655	97
599.864	97
600.073	95
600.282	89
600.491	82
600.7	85
600.909	80
601.118	95
601.327	88
601.536	84
601.745	101
601.953	101
602.162	103
602.371	97
602.58	94
602.789	91
602.997	99
603.206	84
603.415	101
603.623	95
603.832	77
604.041	96
604.249	89
604.458	94
604.666	101
604.875	86
605.084	92
605.292	98
605.501	104
605.709	101
605.918	101
606.126	83
606.334	88
606.543	87
606.751	88
606.96	92
607.168	96
607.376	101
607.585	100
607.793	82
608.001	74
608.21	101
608.418	89
608.626	96
608.834	95
609.043	85
609.251	85
609.459	92
609.667	108
609.875	89
610.083	95
610.291	93
610.499	92
610.707	95
610.916	92
611.124	98
611.332	99
611.54	105
611.748	103
611.955	100
612.163	103
612.371	103
612.579	100
612.787	99
612.995	97
613.203	91
613.411	82
613.618	87
613.826	106
614.034	89
614.242	96
614.449	99
614.657	96
614.865	81
615.072	102
615.28	88
615.488	83
615.695	111
615.903	98
616.111	106
616.318	106
616.526	98
616.733	102
616.941	95
617.148	95
617.356	85
617.563	90
617.771	86
617.978	102
618.185	98
618.393	102
618.6	101
618.807	100
619.015	84
619.222	85
619.429	82
619.637	91
619.844	78
620.051	104
620.258	97
620.466	106
620.673	107
620.88	87
621.087	94
621.294	95
621.501	93
621.708	92
621.915	93
622.122	82
622.329	76
622.536	87
622.743	91
622.95	90
623.157	100
623.364	72
623.571	87
623.778	90
623.985	89
624.192	106
624.399	93
624.606	97
624.812	100
625.019	93
625.226	94
625.433	89
625.639	75
625.846	93
626.053	83
626.259	96
626.466	97
626.673	103
626.879	85
627.086	92
627.293	91
627.499	83
627.706	94
627.912	93
628.119	98
628.325	96
628.532	92
628.738	96
628.945	107
629.151	97
629.357	95
629.564	103
629.77	96
629.976	82
630.183	87
630.389	101
630.595	91
630.802	88
631.008	83
631.214	86
631.42	81
631.627	77
631.833	83
632.039	99
632.245	89
632.451	94
632.657	88
632.863	91
633.069	99
633.275	106
633.481	92
633.688	98
633.893	100
634.099	98
634.305	104
634.511	87
634.717	95
634.923	100
635.129	103
635.335	91
635.541	91
635.747	71
635.952	83
636.158	83
636.364	87
636.57	94
636.775	92
636.981	85
637.187	90
637.392	100
637.598	86
637.804	83
638.009	98
638.215	101
638.421	86
638.626	87
638.832	97
639.037	93
639.243	88
639.448	73
639.654	103
639.859	93
640.065	76
640.27	98
640.475	99
640.681	77
640.886	94
641.091	103
641.297	95
641.502	91
641.707	91
641.913	98
642.118	96
642.323	90
642.528	86
642.733	94
642.939	93
643.144	95
643.349	87
643.554	87
643.759	93
643.964	87
644.169	86
644.374	91
644.579	98
644.784	98
644.989	88
645.194	90
645.399	85
645.604	91
645.809	85
646.014	81
646.219	92
646.423	85
646.628	76
646.833	89
647.038	91
647.243	75
647.447	95
647.652	74
647.857	98
648.062	80
648.266	90
648.471	90
648.676	90
648.88	92
649.085	91
649.289	81
649.494	86
649.698	81
649.903	84
650.107	89
650.312	90
650.516	96
650.721	86
650.925	85
651.13	90
651.334	91
651.539	90
651.743	85
651.947	81
652.152	89
652.356	90
652.56	88
652.764	85
652.969	92
653.173	88
653.377	94
653.581	86
653.785	100
653.99	96
654.194	98
654.398	81
654.602	73
654.806	84
655.01	88
655.214	82
655.418	87
655.622	88
655.826	81
656.03	101
656.234	104
656.438	87
656.642	103
656.846	91
657.049	84
657.253	92
657.457	96
657.661	72
657.865	94
658.068	84
658.272	82
658.476	85
658.68	96
658.883	85
659.087	89
659.291	100
659.494	90
659.698	90
659.901	82
660.105	92
660.309	88
660.512	80
660.716	81
660.919	79
661.123	98
661.326	86
661.53	79
661.733	82
661.936	83
662.14	81
662.343	77
662.546	84
662.75	75
662.953	84
663.156	89
663.36	85
663.563	74
663.766	73
663.969	87
664.173	83
664.376	86
664.579	79
664.782	88
664.985	91
665.188	83
665.391	97
665.594	95
665.797	68
666	84
666.203	72
666.406	73
666.609	83
666.812	79
667.015	74
667.218	83
667.421	75
667.624	77
667.827	84
668.03	77
668.232	85
668.435	89
668.638	85
668.841	81
669.043	79
669.246	84
669.449	81
669.651	103
669.854	87
670.057	92
670.259	90
670.462	79
670.665	85
670.867	86
671.07	82
671.272	89
671.475	92
671.677	77
671.88	83
672.082	78
672.284	85
672.487	95
672.689	78
672.892	78
