Data from Location3.07152019.Energy5.Lamp.07192019.3%Agarose_HRD10591_15-19-06-270.txt Node
Date: Fri Jul 19 15:19:06 EDT 2019
User: cochatt
Spectrometer: HR+D1059
Trigger mode: 1
Integration Time (sec): 1.000000E-1
Scans to average: 1
Electric dark correction enabled: true
Nonlinearity correction enabled: false
Boxcar width: 0
XAxis mode: Wavelengths
Number of Pixels in Spectrum: 2048
>>>>>Begin Spectral Data<<<<<
223.165	-29
223.4	-29
223.635	-29
223.869	-18
224.104	-10
224.338	-16
224.573	-15
224.808	-11
225.042	-4
225.277	-4
225.511	1
225.746	11
225.98	2
226.215	7
226.449	22
226.683	17
226.918	21
227.152	26
227.387	36
227.621	43
227.856	49
228.09	39
228.324	51
228.559	57
228.793	52
229.027	51
229.262	72
229.496	85
229.73	82
229.964	70
230.199	85
230.433	79
230.667	81
230.901	83
231.136	77
231.37	77
231.604	97
231.838	77
232.072	91
232.306	82
232.541	72
232.775	76
233.009	87
233.243	69
233.477	83
233.711	96
233.945	82
234.179	79
234.413	70
234.647	70
234.881	91
235.115	75
235.349	82
235.583	79
235.817	79
236.051	89
236.285	94
236.519	79
236.753	81
236.987	75
237.221	72
237.455	81
237.689	76
237.922	73
238.156	83
238.39	84
238.624	67
238.858	67
239.091	72
239.325	74
239.559	94
239.793	86
240.027	87
240.26	70
240.494	83
240.728	68
240.961	94
241.195	76
241.429	65
241.662	71
241.896	57
242.13	77
242.363	87
242.597	90
242.83	85
243.064	60
243.298	89
243.531	81
243.765	77
243.998	78
244.232	100
244.465	93
244.699	81
244.932	76
245.166	88
245.399	90
245.633	76
245.866	79
246.099	84
246.333	94
246.566	74
246.8	75
247.033	85
247.266	79
247.5	90
247.733	84
247.966	81
248.2	74
248.433	89
248.666	85
248.899	83
249.133	74
249.366	79
249.599	85
249.832	85
250.066	77
250.299	90
250.532	85
250.765	85
250.998	88
251.231	84
251.465	80
251.698	87
251.931	78
252.164	96
252.397	78
252.63	86
252.863	85
253.096	74
253.329	90
253.562	83
253.795	81
254.028	76
254.261	84
254.494	71
254.727	86
254.96	86
255.193	87
255.426	89
255.659	85
255.892	92
256.124	70
256.357	92
256.59	82
256.823	87
257.056	87
257.289	92
257.521	83
257.754	82
257.987	88
258.22	76
258.452	90
258.685	79
258.918	80
259.151	83
259.383	96
259.616	87
259.849	83
260.081	85
260.314	78
260.547	76
260.779	83
261.012	77
261.244	76
261.477	75
261.71	80
261.942	88
262.175	97
262.407	97
262.64	80
262.872	79
263.105	93
263.337	81
263.57	79
263.802	91
264.035	81
264.267	78
264.499	87
264.732	87
264.964	74
265.197	83
265.429	78
265.661	77
265.894	74
266.126	103
266.358	86
266.591	82
266.823	77
267.055	92
267.287	84
267.52	78
267.752	86
267.984	88
268.216	96
268.448	91
268.681	91
268.913	86
269.145	84
269.377	70
269.609	85
269.841	94
270.073	76
270.306	78
270.538	89
270.77	79
271.002	95
271.234	88
271.466	94
271.698	89
271.93	78
272.162	77
272.394	74
272.626	84
272.858	85
273.09	103
273.322	95
273.553	83
273.785	81
274.017	85
274.249	76
274.481	93
274.713	77
274.945	83
275.176	83
275.408	90
275.64	86
275.872	86
276.104	90
276.335	73
276.567	85
276.799	82
277.031	88
277.262	89
277.494	85
277.726	83
277.957	81
278.189	95
278.421	90
278.652	86
278.884	86
279.115	92
279.347	81
279.579	98
279.81	81
280.042	87
280.273	91
280.505	79
280.736	85
280.968	106
281.199	104
281.431	77
281.662	86
281.894	74
282.125	90
282.356	94
282.588	91
282.819	88
283.051	90
283.282	83
283.513	79
283.745	74
283.976	88
284.207	90
284.439	93
284.67	87
284.901	85
285.132	99
285.364	76
285.595	77
285.826	87
286.057	79
286.288	103
286.52	92
286.751	74
286.982	77
287.213	86
287.444	90
287.675	83
287.906	89
288.138	98
288.369	99
288.6	96
288.831	91
289.062	91
289.293	86
289.524	98
289.755	90
289.986	94
290.217	98
290.448	96
290.679	74
290.91	80
291.141	94
291.371	80
291.602	71
291.833	84
292.064	94
292.295	79
292.526	80
292.757	89
292.987	83
293.218	89
293.449	91
293.68	91
293.91	90
294.141	90
294.372	108
294.603	94
294.833	100
295.064	91
295.295	87
295.525	91
295.756	96
295.987	86
296.217	84
296.448	91
296.679	93
296.909	88
297.14	97
297.37	85
297.601	80
297.831	76
298.062	91
298.292	85
298.523	77
298.753	71
298.984	79
299.214	94
299.445	95
299.675	77
299.905	74
300.136	78
300.366	78
300.597	79
300.827	87
301.057	79
301.288	90
301.518	93
301.748	86
301.979	92
302.209	84
302.439	69
302.669	89
302.9	83
303.13	87
303.36	94
303.59	90
303.82	94
304.051	98
304.281	99
304.511	95
304.741	89
304.971	87
305.201	99
305.431	84
305.661	75
305.891	70
306.121	106
306.352	97
306.582	84
306.812	78
307.042	75
307.272	93
307.502	78
307.731	93
307.961	97
308.191	85
308.421	78
308.651	82
308.881	73
309.111	79
309.341	85
309.571	89
309.8	93
310.03	88
310.26	72
310.49	77
310.72	67
310.949	90
311.179	85
311.409	91
311.639	78
311.868	94
312.098	91
312.328	83
312.557	94
312.787	93
313.017	82
313.246	83
313.476	93
313.706	84
313.935	89
314.165	93
314.394	76
314.624	78
314.853	89
315.083	94
315.312	95
315.542	103
315.771	88
316.001	92
316.23	92
316.46	94
316.689	86
316.919	87
317.148	75
317.377	92
317.607	70
317.836	79
318.065	89
318.295	88
318.524	79
318.753	91
318.983	90
319.212	97
319.441	89
319.67	95
319.9	85
320.129	91
320.358	88
320.587	85
320.816	87
321.046	89
321.275	98
321.504	85
321.733	94
321.962	91
322.191	90
322.42	83
322.649	82
322.878	87
323.108	93
323.337	82
323.566	88
323.795	82
324.024	92
324.253	96
324.482	81
324.71	83
324.939	88
325.168	98
325.397	83
325.626	79
325.855	107
326.084	84
326.313	85
326.542	90
326.77	88
326.999	94
327.228	68
327.457	89
327.686	90
327.914	89
328.143	90
328.372	79
328.6	90
328.829	99
329.058	93
329.287	87
329.515	87
329.744	77
329.972	90
330.201	78
330.43	87
330.658	84
330.887	98
331.115	85
331.344	88
331.572	86
331.801	77
332.03	75
332.258	101
332.486	90
332.715	95
332.943	94
333.172	106
333.4	81
333.629	87
333.857	101
334.085	87
334.314	101
334.542	83
334.771	104
334.999	84
335.227	89
335.455	87
335.684	85
335.912	95
336.14	76
336.369	80
336.597	86
336.825	91
337.053	82
337.281	87
337.51	78
337.738	83
337.966	84
338.194	90
338.422	104
338.65	79
338.878	100
339.106	94
339.334	84
339.562	77
339.79	79
340.018	82
340.246	90
340.474	86
340.702	97
340.93	71
341.158	92
341.386	87
341.614	82
341.842	98
342.07	84
342.298	89
342.526	83
342.754	89
342.981	84
343.209	78
343.437	96
343.665	81
343.893	77
344.12	90
344.348	93
344.576	98
344.804	82
345.031	97
345.259	93
345.487	89
345.714	98
345.942	100
346.17	101
346.397	82
346.625	91
346.853	79
347.08	74
347.308	76
347.535	86
347.763	89
347.99	92
348.218	89
348.445	86
348.673	72
348.9	87
349.128	79
349.355	83
349.583	95
349.81	76
350.037	75
350.265	88
350.492	82
350.72	87
350.947	79
351.174	79
351.402	96
351.629	83
351.856	78
352.083	93
352.311	90
352.538	85
352.765	85
352.992	83
353.22	83
353.447	86
353.674	71
353.901	87
354.128	93
354.355	81
354.583	89
354.81	87
355.037	101
355.264	92
355.491	83
355.718	81
355.945	100
356.172	94
356.399	88
356.626	79
356.853	85
357.08	84
357.307	96
357.534	82
357.761	82
357.988	89
358.215	101
358.441	90
358.668	83
358.895	71
359.122	81
359.349	79
359.576	84
359.802	91
360.029	91
360.256	73
360.483	86
360.709	81
360.936	85
361.163	81
361.39	94
361.616	81
361.843	83
362.07	84
362.296	85
362.523	90
362.749	89
362.976	84
363.203	84
363.429	90
363.656	75
363.882	89
364.109	71
364.335	75
364.562	102
364.788	93
365.015	81
365.241	86
365.468	77
365.694	83
365.92	81
366.147	85
366.373	84
366.599	82
366.826	78
367.052	91
367.278	97
367.505	73
367.731	91
367.957	76
368.184	85
368.41	89
368.636	91
368.862	92
369.089	92
369.315	75
369.541	106
369.767	85
369.993	99
370.219	88
370.445	85
370.672	86
370.898	87
371.124	90
371.35	83
371.576	82
371.802	69
372.028	92
372.254	83
372.48	77
372.706	95
372.932	106
373.158	100
373.384	88
373.61	76
373.835	95
374.061	89
374.287	96
374.513	74
374.739	83
374.965	79
375.191	104
375.416	85
375.642	88
375.868	89
376.094	92
376.319	87
376.545	90
376.771	84
376.997	83
377.222	90
377.448	92
377.674	88
377.899	106
378.125	87
378.35	81
378.576	82
378.802	79
379.027	82
379.253	101
379.478	87
379.704	86
379.929	94
380.155	93
380.38	98
380.606	99
380.831	96
381.057	84
381.282	81
381.507	78
381.733	88
381.958	101
382.184	91
382.409	78
382.634	94
382.86	82
383.085	84
383.31	87
383.535	88
383.761	85
383.986	81
384.211	76
384.436	95
384.662	87
384.887	91
385.112	84
385.337	88
385.562	88
385.787	91
386.013	98
386.238	79
386.463	89
386.688	94
386.913	87
387.138	75
387.363	84
387.588	84
387.813	91
388.038	82
388.263	75
388.488	97
388.713	93
388.938	86
389.163	88
389.387	96
389.612	93
389.837	85
390.062	70
390.287	81
390.512	97
390.736	88
390.961	79
391.186	95
391.411	94
391.636	86
391.86	83
392.085	94
392.31	97
392.534	98
392.759	104
392.984	97
393.208	86
393.433	91
393.658	87
393.882	83
394.107	93
394.331	96
394.556	86
394.78	104
395.005	93
395.229	83
395.454	102
395.678	101
395.903	103
396.127	87
396.352	103
396.576	75
396.801	89
397.025	86
397.249	105
397.474	86
397.698	89
397.922	79
398.147	102
398.371	106
398.595	92
398.82	105
399.044	77
399.268	82
399.492	97
399.717	99
399.941	100
400.165	86
400.389	90
400.613	89
400.837	97
401.062	84
401.286	87
401.51	91
401.734	85
401.958	99
402.182	97
402.406	90
402.63	84
402.854	90
403.078	93
403.302	89
403.526	102
403.75	87
403.974	98
404.198	104
404.422	92
404.645	98
404.869	104
405.093	98
405.317	87
405.541	86
405.765	103
405.988	89
406.212	101
406.436	89
406.66	94
406.883	68
407.107	90
407.331	93
407.555	105
407.778	80
408.002	83
408.226	84
408.449	98
408.673	93
408.896	97
409.12	99
409.344	93
409.567	89
409.791	76
410.014	88
410.238	94
410.461	98
410.685	99
410.908	96
411.132	97
411.355	81
411.578	105
411.802	96
412.025	94
412.249	89
412.472	89
412.695	84
412.919	82
413.142	84
413.365	102
413.589	102
413.812	86
414.035	84
414.258	99
414.482	100
414.705	106
414.928	98
415.151	91
415.374	96
415.597	106
415.821	98
416.044	91
416.267	94
416.49	106
416.713	91
416.936	82
417.159	88
417.382	94
417.605	92
417.828	83
418.051	88
418.274	107
418.497	100
418.72	104
418.943	92
419.166	105
419.389	84
419.611	86
419.834	92
420.057	110
420.28	90
420.503	97
420.726	100
420.948	117
421.171	105
421.394	86
421.617	94
421.839	97
422.062	105
422.285	91
422.507	109
422.73	86
422.953	85
423.175	97
423.398	91
423.621	101
423.843	85
424.066	101
424.288	86
424.511	103
424.733	98
424.956	101
425.178	99
425.401	97
425.623	94
425.846	85
426.068	98
426.291	115
426.513	89
426.735	93
426.958	88
427.18	84
427.402	90
427.625	89
427.847	101
428.069	90
428.292	93
428.514	86
428.736	91
428.958	106
429.181	101
429.403	93
429.625	91
429.847	93
430.069	113
430.292	106
430.514	112
430.736	84
430.958	90
431.18	97
431.402	97
431.624	91
431.846	98
432.068	95
432.29	97
432.512	85
432.734	91
432.956	107
433.178	119
433.4	107
433.622	87
433.844	108
434.066	90
434.287	100
434.509	94
434.731	100
434.953	94
435.175	88
435.397	102
435.618	96
435.84	89
436.062	79
436.284	91
436.505	92
436.727	100
436.949	105
437.17	105
437.392	117
437.614	100
437.835	99
438.057	95
438.278	89
438.5	96
438.721	99
438.943	95
439.165	116
439.386	95
439.608	98
439.829	103
440.05	90
440.272	92
440.493	103
440.715	108
440.936	106
441.158	99
441.379	108
441.6	114
441.822	105
442.043	108
442.264	107
442.486	109
442.707	92
442.928	102
443.149	91
443.371	112
443.592	91
443.813	95
444.034	91
444.255	100
444.476	113
444.698	89
444.919	101
445.14	229
445.361	148
445.582	106
445.803	105
446.024	103
446.245	106
446.466	103
446.687	100
446.908	103
447.129	106
447.35	94
447.571	97
447.792	96
448.013	104
448.234	115
448.455	101
448.675	108
448.896	100
449.117	113
449.338	101
449.559	101
449.779	88
450	100
450.221	92
450.442	101
450.662	103
450.883	91
451.104	99
451.324	74
451.545	92
451.766	87
451.986	106
452.207	111
452.428	90
452.648	101
452.869	87
453.089	90
453.31	104
453.53	71
453.751	83
453.971	87
454.192	87
454.412	91
454.633	90
454.853	93
455.073	97
455.294	97
455.514	98
455.734	91
455.955	105
456.175	104
456.395	91
456.616	80
456.836	85
457.056	89
457.276	101
457.497	87
457.717	87
457.937	94
458.157	86
458.377	79
458.598	94
458.818	84
459.038	86
459.258	94
459.478	85
459.698	88
459.918	82
460.138	85
460.358	92
460.578	81
460.798	89
461.018	92
461.238	104
461.458	97
461.678	90
461.898	103
462.118	87
462.338	84
462.558	93
462.777	95
462.997	90
463.217	85
463.437	94
463.657	96
463.876	96
464.096	99
464.316	101
464.536	100
464.755	101
464.975	97
465.195	93
465.414	79
465.634	107
465.854	102
466.073	117
466.293	102
466.512	104
466.732	93
466.951	105
467.171	100
467.391	101
467.61	100
467.829	93
468.049	105
468.268	96
468.488	104
468.707	107
468.927	101
469.146	96
469.365	106
469.585	94
469.804	104
470.023	111
470.243	105
470.462	95
470.681	113
470.901	107
471.12	97
471.339	118
471.558	106
471.777	88
471.997	102
472.216	105
472.435	88
472.654	86
472.873	99
473.092	91
473.311	82
473.53	98
473.749	103
473.968	106
474.187	96
474.406	104
474.625	83
474.844	108
475.063	109
475.282	94
475.501	96
475.72	90
475.939	90
476.158	80
476.377	94
476.596	98
476.814	104
477.033	88
477.252	91
477.471	107
477.69	95
477.908	103
478.127	107
478.346	95
478.564	93
478.783	100
479.002	91
479.22	95
479.439	109
479.658	96
479.876	86
480.095	74
480.313	96
480.532	89
480.751	97
480.969	99
481.188	100
481.406	107
481.624	79
481.843	84
482.061	83
482.28	103
482.498	89
482.717	102
482.935	93
483.153	98
483.372	104
483.59	94
483.808	98
484.027	93
484.245	97
484.463	93
484.681	112
484.9	91
485.118	99
485.336	87
485.554	106
485.772	102
485.99	81
486.209	88
486.427	83
486.645	94
486.863	106
487.081	81
487.299	116
487.517	106
487.735	107
487.953	123
488.171	112
488.389	110
488.607	118
488.825	108
489.043	108
489.261	104
489.479	104
489.696	107
489.914	107
490.132	99
490.35	105
490.568	110
490.786	98
491.003	110
491.221	117
491.439	121
491.657	110
491.874	125
492.092	135
492.31	136
492.527	123
492.745	119
492.963	93
493.18	105
493.398	99
493.615	114
493.833	106
494.05	119
494.268	120
494.485	108
494.703	123
494.92	113
495.138	117
495.355	118
495.573	109
495.79	124
496.008	105
496.225	123
496.442	111
496.66	108
496.877	120
497.094	119
497.312	107
497.529	105
497.746	103
497.963	109
498.181	105
498.398	79
498.615	94
498.832	99
499.049	88
499.267	94
499.484	97
499.701	91
499.918	100
500.135	109
500.352	116
500.569	99
500.786	107
501.003	111
501.22	97
501.437	103
501.654	118
501.871	108
502.088	102
502.305	86
502.522	102
502.739	97
502.956	110
503.172	98
503.389	95
503.606	93
503.823	107
504.04	105
504.256	98
504.473	108
504.69	95
504.907	106
505.123	104
505.34	93
505.557	95
505.773	105
505.99	99
506.207	91
506.423	108
506.64	93
506.856	95
507.073	94
507.289	97
507.506	98
507.722	94
507.939	98
508.155	86
508.372	83
508.588	79
508.805	88
509.021	84
509.238	98
509.454	91
509.67	87
509.887	70
510.103	84
510.319	89
510.536	88
510.752	74
510.968	92
511.184	92
511.401	80
511.617	68
511.833	89
512.049	99
512.265	84
512.481	75
512.698	85
512.914	93
513.13	89
513.346	94
513.562	97
513.778	92
513.994	100
514.21	82
514.426	89
514.642	99
514.858	86
515.074	81
515.29	77
515.506	68
515.721	92
515.937	90
516.153	86
516.369	83
516.585	61
516.801	74
517.016	87
517.232	93
517.448	86
517.664	85
517.879	90
518.095	110
518.311	93
518.527	96
518.742	105
518.958	88
519.173	75
519.389	96
519.605	108
519.82	102
520.036	86
520.251	87
520.467	94
520.682	92
520.898	79
521.113	84
521.329	88
521.544	87
521.76	98
521.975	78
522.19	89
522.406	87
522.621	93
522.836	90
523.052	88
523.267	83
523.482	93
523.698	100
523.913	84
524.128	95
524.343	91
524.559	100
524.774	107
524.989	98
525.204	107
525.419	95
525.634	100
525.849	95
526.064	88
526.28	101
526.495	75
526.71	87
526.925	89
527.14	89
527.355	97
527.57	91
527.785	84
527.999	97
528.214	90
528.429	95
528.644	104
528.859	102
529.074	109
529.289	106
529.503	115
529.718	110
529.933	97
530.148	95
530.363	86
530.577	102
530.792	85
531.007	95
531.221	83
531.436	79
531.651	96
531.865	81
532.08	88
532.295	95
532.509	76
532.724	93
532.938	87
533.153	83
533.367	90
533.582	109
533.796	92
534.011	92
534.225	93
534.44	90
534.654	80
534.868	94
535.083	99
535.297	93
535.511	91
535.726	90
535.94	94
536.154	90
536.369	94
536.583	91
536.797	85
537.011	99
537.225	85
537.44	82
537.654	88
537.868	97
538.082	98
538.296	88
538.51	89
538.724	95
538.938	98
539.153	102
539.367	114
539.581	96
539.795	99
540.009	87
540.222	89
540.436	90
540.65	90
540.864	108
541.078	95
541.292	106
541.506	109
541.72	138
541.934	123
542.147	137
542.361	130
542.575	115
542.789	121
543.002	100
543.216	101
543.43	100
543.644	93
543.857	126
544.071	117
544.285	117
544.498	108
544.712	118
544.925	120
545.139	103
545.352	106
545.566	97
545.779	114
545.993	104
546.206	96
546.42	114
546.633	119
546.847	105
547.06	126
547.274	111
547.487	109
547.7	110
547.914	115
548.127	111
548.34	118
548.554	108
548.767	108
548.98	106
549.193	111
549.407	120
549.62	98
549.833	93
550.046	113
550.259	101
550.473	113
550.686	120
550.899	107
551.112	113
551.325	117
551.538	117
551.751	102
551.964	96
552.177	100
552.39	116
552.603	102
552.816	102
553.029	112
553.242	107
553.455	110
553.667	109
553.88	122
554.093	101
554.306	101
554.519	105
554.732	91
554.944	97
555.157	101
555.37	101
555.583	112
555.795	105
556.008	100
556.221	101
556.433	115
556.646	105
556.859	103
557.071	106
557.284	104
557.496	119
557.709	95
557.921	113
558.134	96
558.346	102
558.559	102
558.771	118
558.984	113
559.196	102
559.409	93
559.621	98
559.833	114
560.046	96
560.258	104
560.47	101
560.683	93
560.895	101
561.107	105
561.32	98
561.532	109
561.744	105
561.956	110
562.168	95
562.381	97
562.593	114
562.805	105
563.017	100
563.229	88
563.441	97
563.653	97
563.865	103
564.077	98
564.289	95
564.501	91
564.713	96
564.925	97
565.137	90
565.349	100
565.561	94
565.773	100
565.985	85
566.197	92
566.408	103
566.62	98
566.832	84
567.044	77
567.255	102
567.467	92
567.679	95
567.891	95
568.102	86
568.314	90
568.526	95
568.737	93
568.949	90
569.161	78
569.372	84
569.584	89
569.795	102
570.007	86
570.218	75
570.43	99
570.641	91
570.853	95
571.064	111
571.276	100
571.487	106
571.698	88
571.91	92
572.121	78
572.333	97
572.544	84
572.755	99
572.966	88
573.178	90
573.389	92
573.6	86
573.811	89
574.023	89
574.234	92
574.445	96
574.656	106
574.867	100
575.078	93
575.289	91
575.501	89
575.712	92
575.923	96
576.134	88
576.345	93
576.556	100
576.767	109
576.978	99
577.188	93
577.399	94
577.61	102
577.821	66
578.032	97
578.243	82
578.454	88
578.665	79
578.875	88
579.086	89
579.297	92
579.508	94
579.718	83
579.929	91
580.14	89
580.35	92
580.561	94
580.772	95
580.982	83
581.193	99
581.403	88
581.614	91
581.825	86
582.035	100
582.246	89
582.456	80
582.667	92
582.877	104
583.087	93
583.298	94
583.508	97
583.719	91
583.929	86
584.139	76
584.35	75
584.56	81
584.77	90
584.981	93
585.191	90
585.401	82
585.611	97
585.821	95
586.032	100
586.242	73
586.452	71
586.662	83
586.872	73
587.082	94
587.292	85
587.502	83
587.713	99
587.923	89
588.133	79
588.343	97
588.553	82
588.762	107
588.972	88
589.182	83
589.392	79
589.602	101
589.812	81
590.022	94
590.232	82
590.441	102
590.651	77
590.861	91
591.071	84
591.281	83
591.49	94
591.7	91
591.91	101
592.119	99
592.329	84
592.539	78
592.748	86
592.958	93
593.167	95
593.377	82
593.587	82
593.796	98
594.006	92
594.215	83
594.424	90
594.634	96
594.843	87
595.053	94
595.262	91
595.472	81
595.681	82
595.89	82
596.1	93
596.309	86
596.518	80
596.727	90
596.937	100
597.146	80
597.355	108
597.564	85
597.774	87
597.983	93
598.192	90
598.401	97
598.61	93
598.819	81
599.028	101
599.237	102
599.446	82
599.655	91
599.864	96
600.073	97
600.282	88
600.491	99
600.7	82
600.909	82
601.118	97
601.327	101
601.536	102
601.745	95
601.953	92
602.162	113
602.371	99
602.58	97
602.789	92
602.997	101
603.206	98
603.415	91
603.623	93
603.832	98
604.041	85
604.249	78
604.458	86
604.666	109
604.875	96
605.084	88
605.292	98
605.501	89
605.709	101
605.918	118
606.126	108
606.334	105
606.543	89
606.751	81
606.96	93
607.168	109
607.376	95
607.585	98
607.793	90
608.001	96
608.21	106
608.418	90
608.626	108
608.834	84
609.043	95
609.251	99
609.459	106
609.667	93
609.875	102
610.083	102
610.291	94
610.499	78
610.707	90
610.916	92
611.124	109
611.332	100
611.54	89
611.748	89
611.955	105
612.163	105
612.371	98
612.579	98
612.787	92
612.995	106
613.203	97
613.411	95
613.618	99
613.826	99
614.034	93
614.242	95
614.449	103
614.657	93
614.865	103
615.072	96
615.28	96
615.488	86
615.695	93
615.903	100
616.111	91
616.318	94
616.526	85
616.733	104
616.941	90
617.148	97
617.356	108
617.563	93
617.771	93
617.978	101
618.185	95
618.393	102
618.6	101
618.807	99
619.015	105
619.222	101
619.429	102
619.637	102
619.844	91
620.051	90
620.258	96
620.466	114
620.673	99
620.88	100
621.087	100
621.294	97
621.501	94
621.708	94
621.915	101
622.122	102
622.329	97
622.536	97
622.743	98
622.95	94
623.157	97
623.364	93
623.571	95
623.778	83
623.985	94
624.192	106
624.399	88
624.606	93
624.812	105
625.019	92
625.226	88
625.433	102
625.639	89
625.846	86
626.053	95
626.259	81
626.466	93
626.673	101
626.879	85
627.086	84
627.293	94
627.499	84
627.706	84
627.912	95
628.119	86
628.325	83
628.532	101
628.738	85
628.945	86
629.151	114
629.357	89
629.564	105
629.77	88
629.976	83
630.183	87
630.389	81
630.595	97
630.802	83
631.008	93
631.214	81
631.42	88
631.627	110
631.833	85
632.039	87
632.245	97
632.451	94
632.657	94
632.863	82
633.069	94
633.275	93
633.481	99
633.688	88
633.893	96
634.099	89
634.305	100
634.511	94
634.717	85
634.923	86
635.129	83
635.335	86
635.541	87
635.747	85
635.952	79
636.158	99
636.364	99
636.57	106
636.775	83
636.981	91
637.187	94
637.392	90
637.598	79
637.804	93
638.009	88
638.215	105
638.421	83
638.626	99
638.832	93
639.037	91
639.243	97
639.448	93
639.654	89
639.859	95
640.065	90
640.27	100
640.475	97
640.681	87
640.886	89
641.091	74
641.297	93
641.502	97
641.707	97
641.913	104
642.118	100
642.323	78
642.528	99
642.733	92
642.939	94
643.144	94
643.349	92
643.554	101
643.759	92
643.964	87
644.169	82
644.374	88
644.579	91
644.784	93
644.989	101
645.194	90
645.399	99
645.604	87
645.809	93
646.014	99
646.219	79
646.423	81
646.628	87
646.833	105
647.038	99
647.243	85
647.447	89
647.652	94
647.857	101
648.062	97
648.266	77
648.471	91
648.676	86
648.88	97
649.085	85
649.289	91
649.494	94
649.698	92
649.903	98
650.107	91
650.312	93
650.516	85
650.721	95
650.925	95
651.13	100
651.334	93
651.539	83
651.743	77
651.947	89
652.152	76
652.356	95
652.56	92
652.764	91
652.969	94
653.173	91
653.377	91
653.581	95
653.785	92
653.99	77
654.194	89
654.398	96
654.602	98
654.806	84
655.01	90
655.214	102
655.418	84
655.622	76
655.826	92
656.03	87
656.234	97
656.438	89
656.642	95
656.846	95
657.049	83
657.253	97
657.457	87
657.661	88
657.865	84
658.068	83
658.272	86
658.476	80
658.68	88
658.883	86
659.087	84
659.291	102
659.494	99
659.698	85
659.901	82
660.105	72
660.309	89
660.512	80
660.716	96
660.919	80
661.123	97
661.326	78
661.53	92
661.733	87
661.936	80
662.14	82
662.343	85
662.546	90
662.75	99
662.953	86
663.156	93
663.36	80
663.563	100
663.766	92
663.969	74
664.173	84
664.376	86
664.579	89
664.782	86
664.985	97
665.188	93
665.391	98
665.594	89
665.797	87
666	78
666.203	89
666.406	83
666.609	90
666.812	86
667.015	94
667.218	78
667.421	83
667.624	73
667.827	83
668.03	77
668.232	67
668.435	83
668.638	78
668.841	81
669.043	85
669.246	81
669.449	83
669.651	79
669.854	81
670.057	94
670.259	74
670.462	85
670.665	87
670.867	91
671.07	101
671.272	85
671.475	92
671.677	88
671.88	84
672.082	90
672.284	93
672.487	99
672.689	93
672.892	78
