Data from Location3.07152019.Energy5.Lamp.07192019.3%Agarose_HRD10591_15-19-35-270.txt Node
Date: Fri Jul 19 15:19:35 EDT 2019
User: cochatt
Spectrometer: HR+D1059
Trigger mode: 1
Integration Time (sec): 1.000000E-1
Scans to average: 1
Electric dark correction enabled: true
Nonlinearity correction enabled: false
Boxcar width: 0
XAxis mode: Wavelengths
Number of Pixels in Spectrum: 2048
>>>>>Begin Spectral Data<<<<<
223.165	-15
223.4	-15
223.635	-15
223.869	-29
224.104	-28
224.338	-20
224.573	-6
224.808	-14
225.042	11
225.277	-9
225.511	-3
225.746	11
225.98	14
226.215	11
226.449	10
226.683	7
226.918	22
227.152	38
227.387	34
227.621	51
227.856	42
228.09	41
228.324	64
228.559	65
228.793	64
229.027	57
229.262	81
229.496	64
229.73	53
229.964	54
230.199	78
230.433	76
230.667	78
230.901	75
231.136	81
231.37	75
231.604	72
231.838	84
232.072	73
232.306	80
232.541	64
232.775	88
233.009	76
233.243	84
233.477	87
233.711	92
233.945	81
234.179	84
234.413	90
234.647	69
234.881	83
235.115	69
235.349	78
235.583	85
235.817	89
236.051	77
236.285	69
236.519	83
236.753	64
236.987	95
237.221	83
237.455	81
237.689	80
237.922	74
238.156	68
238.39	82
238.624	91
238.858	78
239.091	80
239.325	83
239.559	89
239.793	94
240.027	69
240.26	72
240.494	77
240.728	73
240.961	69
241.195	77
241.429	76
241.662	76
241.896	81
242.13	78
242.363	84
242.597	83
242.83	78
243.064	86
243.298	77
243.531	81
243.765	78
243.998	84
244.232	76
244.465	81
244.699	75
244.932	67
245.166	77
245.399	68
245.633	86
245.866	77
246.099	94
246.333	81
246.566	85
246.8	73
247.033	73
247.266	99
247.5	69
247.733	80
247.966	78
248.2	84
248.433	81
248.666	82
248.899	79
249.133	85
249.366	84
249.599	75
249.832	69
250.066	88
250.299	80
250.532	87
250.765	85
250.998	86
251.231	72
251.465	75
251.698	75
251.931	78
252.164	85
252.397	77
252.63	71
252.863	76
253.096	82
253.329	81
253.562	70
253.795	79
254.028	73
254.261	88
254.494	74
254.727	76
254.96	69
255.193	86
255.426	69
255.659	69
255.892	95
256.124	79
256.357	70
256.59	84
256.823	86
257.056	73
257.289	83
257.521	87
257.754	97
257.987	99
258.22	86
258.452	73
258.685	90
258.918	93
259.151	93
259.383	92
259.616	108
259.849	90
260.081	90
260.314	83
260.547	85
260.779	89
261.012	76
261.244	83
261.477	81
261.71	84
261.942	92
262.175	78
262.407	74
262.64	85
262.872	81
263.105	84
263.337	81
263.57	75
263.802	74
264.035	93
264.267	85
264.499	87
264.732	92
264.964	78
265.197	106
265.429	86
265.661	84
265.894	79
266.126	79
266.358	89
266.591	82
266.823	83
267.055	91
267.287	91
267.52	82
267.752	93
267.984	83
268.216	78
268.448	93
268.681	89
268.913	88
269.145	78
269.377	79
269.609	80
269.841	92
270.073	84
270.306	91
270.538	88
270.77	81
271.002	77
271.234	88
271.466	82
271.698	80
271.93	81
272.162	77
272.394	95
272.626	86
272.858	83
273.09	91
273.322	87
273.553	89
273.785	82
274.017	74
274.249	80
274.481	86
274.713	91
274.945	61
275.176	85
275.408	85
275.64	96
275.872	88
276.104	90
276.335	86
276.567	75
276.799	91
277.031	103
277.262	83
277.494	79
277.726	84
277.957	92
278.189	95
278.421	97
278.652	91
278.884	72
279.115	86
279.347	95
279.579	81
279.81	96
280.042	89
280.273	98
280.505	89
280.736	87
280.968	68
281.199	93
281.431	88
281.662	92
281.894	72
282.125	77
282.356	87
282.588	72
282.819	93
283.051	80
283.282	76
283.513	76
283.745	93
283.976	80
284.207	74
284.439	99
284.67	109
284.901	74
285.132	101
285.364	85
285.595	74
285.826	94
286.057	75
286.288	96
286.52	86
286.751	88
286.982	95
287.213	89
287.444	84
287.675	87
287.906	90
288.138	76
288.369	98
288.6	79
288.831	83
289.062	84
289.293	93
289.524	87
289.755	76
289.986	93
290.217	83
290.448	88
290.679	84
290.91	96
291.141	82
291.371	99
291.602	83
291.833	77
292.064	77
292.295	73
292.526	85
292.757	92
292.987	80
293.218	77
293.449	86
293.68	80
293.91	86
294.141	75
294.372	86
294.603	92
294.833	87
295.064	72
295.295	84
295.525	102
295.756	92
295.987	77
296.217	84
296.448	86
296.679	77
296.909	91
297.14	89
297.37	85
297.601	77
297.831	75
298.062	86
298.292	83
298.523	98
298.753	75
298.984	96
299.214	95
299.445	95
299.675	68
299.905	79
300.136	84
300.366	75
300.597	79
300.827	93
301.057	79
301.288	91
301.518	83
301.748	80
301.979	86
302.209	92
302.439	89
302.669	72
302.9	93
303.13	76
303.36	85
303.59	94
303.82	77
304.051	83
304.281	78
304.511	95
304.741	81
304.971	100
305.201	87
305.431	89
305.661	78
305.891	77
306.121	84
306.352	79
306.582	70
306.812	80
307.042	79
307.272	75
307.502	96
307.731	92
307.961	79
308.191	77
308.421	87
308.651	75
308.881	91
309.111	93
309.341	95
309.571	91
309.8	91
310.03	80
310.26	85
310.49	74
310.72	94
310.949	91
311.179	71
311.409	93
311.639	83
311.868	88
312.098	88
312.328	100
312.557	84
312.787	72
313.017	83
313.246	94
313.476	83
313.706	88
313.935	85
314.165	80
314.394	85
314.624	76
314.853	102
315.083	91
315.312	85
315.542	89
315.771	97
316.001	102
316.23	87
316.46	98
316.689	83
316.919	100
317.148	78
317.377	82
317.607	95
317.836	81
318.065	99
318.295	98
318.524	82
318.753	80
318.983	91
319.212	90
319.441	87
319.67	81
319.9	81
320.129	83
320.358	94
320.587	86
320.816	83
321.046	87
321.275	88
321.504	91
321.733	78
321.962	84
322.191	81
322.42	80
322.649	81
322.878	90
323.108	84
323.337	89
323.566	95
323.795	91
324.024	71
324.253	81
324.482	83
324.71	77
324.939	92
325.168	88
325.397	86
325.626	79
325.855	92
326.084	97
326.313	77
326.542	79
326.77	89
326.999	77
327.228	90
327.457	82
327.686	73
327.914	84
328.143	83
328.372	83
328.6	85
328.829	86
329.058	81
329.287	82
329.515	83
329.744	93
329.972	85
330.201	84
330.43	84
330.658	81
330.887	82
331.115	92
331.344	88
331.572	91
331.801	78
332.03	98
332.258	95
332.486	97
332.715	87
332.943	79
333.172	86
333.4	98
333.629	78
333.857	89
334.085	93
334.314	88
334.542	90
334.771	89
334.999	87
335.227	82
335.455	96
335.684	74
335.912	103
336.14	84
336.369	76
336.597	94
336.825	94
337.053	96
337.281	93
337.51	76
337.738	102
337.966	94
338.194	83
338.422	74
338.65	84
338.878	89
339.106	83
339.334	87
339.562	70
339.79	85
340.018	99
340.246	77
340.474	92
340.702	94
340.93	77
341.158	91
341.386	89
341.614	68
341.842	84
342.07	90
342.298	88
342.526	79
342.754	73
342.981	95
343.209	84
343.437	72
343.665	72
343.893	81
344.12	91
344.348	79
344.576	85
344.804	76
345.031	102
345.259	92
345.487	85
345.714	92
345.942	77
346.17	82
346.397	84
346.625	91
346.853	80
347.08	83
347.308	95
347.535	98
347.763	100
347.99	98
348.218	79
348.445	84
348.673	87
348.9	89
349.128	81
349.355	90
349.583	79
349.81	82
350.037	93
350.265	85
350.492	80
350.72	92
350.947	104
351.174	84
351.402	82
351.629	93
351.856	77
352.083	81
352.311	87
352.538	79
352.765	77
352.992	84
353.22	83
353.447	67
353.674	94
353.901	84
354.128	85
354.355	75
354.583	92
354.81	82
355.037	93
355.264	101
355.491	90
355.718	80
355.945	75
356.172	88
356.399	91
356.626	85
356.853	72
357.08	88
357.307	88
357.534	80
357.761	84
357.988	85
358.215	86
358.441	88
358.668	89
358.895	102
359.122	99
359.349	86
359.576	91
359.802	89
360.029	88
360.256	83
360.483	82
360.709	75
360.936	95
361.163	83
361.39	109
361.616	89
361.843	87
362.07	82
362.296	87
362.523	90
362.749	93
362.976	94
363.203	87
363.429	81
363.656	89
363.882	70
364.109	82
364.335	71
364.562	95
364.788	83
365.015	63
365.241	82
365.468	76
365.694	90
365.92	71
366.147	83
366.373	81
366.599	87
366.826	85
367.052	77
367.278	78
367.505	84
367.731	99
367.957	82
368.184	76
368.41	82
368.636	77
368.862	89
369.089	94
369.315	73
369.541	96
369.767	91
369.993	87
370.219	90
370.445	86
370.672	80
370.898	88
371.124	101
371.35	92
371.576	73
371.802	89
372.028	75
372.254	94
372.48	81
372.706	83
372.932	76
373.158	69
373.384	80
373.61	99
373.835	88
374.061	88
374.287	75
374.513	96
374.739	89
374.965	97
375.191	92
375.416	76
375.642	92
375.868	87
376.094	95
376.319	87
376.545	86
376.771	81
376.997	88
377.222	77
377.448	84
377.674	84
377.899	96
378.125	84
378.35	79
378.576	68
378.802	82
379.027	101
379.253	91
379.478	84
379.704	97
379.929	65
380.155	73
380.38	79
380.606	80
380.831	74
381.057	78
381.282	76
381.507	83
381.733	86
381.958	78
382.184	104
382.409	84
382.634	84
382.86	84
383.085	92
383.31	88
383.535	89
383.761	80
383.986	76
384.211	86
384.436	92
384.662	91
384.887	85
385.112	89
385.337	84
385.562	88
385.787	91
386.013	95
386.238	82
386.463	70
386.688	84
386.913	75
387.138	85
387.363	83
387.588	79
387.813	90
388.038	86
388.263	79
388.488	65
388.713	80
388.938	85
389.163	77
389.387	93
389.612	80
389.837	84
390.062	77
390.287	93
390.512	88
390.736	92
390.961	90
391.186	93
391.411	91
391.636	85
391.86	93
392.085	87
392.31	94
392.534	93
392.759	76
392.984	90
393.208	87
393.433	80
393.658	90
393.882	80
394.107	84
394.331	94
394.556	89
394.78	88
395.005	94
395.229	87
395.454	76
395.678	72
395.903	96
396.127	98
396.352	84
396.576	76
396.801	88
397.025	75
397.249	106
397.474	107
397.698	99
397.922	93
398.147	82
398.371	87
398.595	85
398.82	88
399.044	89
399.268	89
399.492	81
399.717	96
399.941	95
400.165	93
400.389	93
400.613	89
400.837	94
401.062	88
401.286	83
401.51	90
401.734	87
401.958	90
402.182	105
402.406	82
402.63	75
402.854	102
403.078	87
403.302	88
403.526	91
403.75	96
403.974	98
404.198	88
404.422	91
404.645	85
404.869	100
405.093	83
405.317	76
405.541	77
405.765	95
405.988	93
406.212	88
406.436	104
406.66	96
406.883	102
407.107	76
407.331	85
407.555	85
407.778	96
408.002	90
408.226	101
408.449	77
408.673	99
408.896	88
409.12	75
409.344	94
409.567	91
409.791	99
410.014	86
410.238	94
410.461	90
410.685	87
410.908	89
411.132	91
411.355	91
411.578	87
411.802	93
412.025	68
412.249	100
412.472	92
412.695	101
412.919	91
413.142	100
413.365	94
413.589	96
413.812	93
414.035	101
414.258	82
414.482	95
414.705	100
414.928	102
415.151	95
415.374	88
415.597	96
415.821	84
416.044	88
416.267	99
416.49	97
416.713	96
416.936	94
417.159	85
417.382	87
417.605	99
417.828	95
418.051	93
418.274	95
418.497	103
418.72	77
418.943	101
419.166	85
419.389	95
419.611	83
419.834	90
420.057	87
420.28	93
420.503	102
420.726	107
420.948	86
421.171	83
421.394	103
421.617	87
421.839	101
422.062	101
422.285	91
422.507	114
422.73	78
422.953	102
423.175	97
423.398	106
423.621	104
423.843	103
424.066	102
424.288	91
424.511	98
424.733	98
424.956	97
425.178	93
425.401	92
425.623	102
425.846	113
426.068	85
426.291	82
426.513	90
426.735	80
426.958	89
427.18	92
427.402	73
427.625	100
427.847	91
428.069	96
428.292	106
428.514	89
428.736	98
428.958	85
429.181	99
429.403	95
429.625	89
429.847	90
430.069	101
430.292	99
430.514	91
430.736	103
430.958	100
431.18	95
431.402	91
431.624	106
431.846	82
432.068	90
432.29	90
432.512	90
432.734	92
432.956	88
433.178	83
433.4	91
433.622	96
433.844	90
434.066	90
434.287	84
434.509	91
434.731	91
434.953	92
435.175	103
435.397	101
435.618	100
435.84	94
436.062	85
436.284	86
436.505	92
436.727	113
436.949	103
437.17	87
437.392	82
437.614	95
437.835	97
438.057	104
438.278	89
438.5	80
438.721	94
438.943	95
439.165	86
439.386	95
439.608	99
439.829	115
440.05	118
440.272	102
440.493	107
440.715	98
440.936	86
441.158	96
441.379	106
441.6	104
441.822	76
442.043	102
442.264	97
442.486	111
442.707	81
442.928	104
443.149	95
443.371	97
443.592	99
443.813	92
444.034	97
444.255	97
444.476	101
444.698	92
444.919	76
445.14	227
445.361	166
445.582	100
445.803	110
446.024	97
446.245	111
446.466	99
446.687	106
446.908	109
447.129	100
447.35	88
447.571	107
447.792	95
448.013	111
448.234	99
448.455	97
448.675	105
448.896	104
449.117	83
449.338	96
449.559	91
449.779	92
450	103
450.221	102
450.442	99
450.662	97
450.883	92
451.104	111
451.324	111
451.545	96
451.766	103
451.986	94
452.207	93
452.428	106
452.648	99
452.869	95
453.089	99
453.31	92
453.53	103
453.751	102
453.971	92
454.192	85
454.412	97
454.633	89
454.853	105
455.073	103
455.294	96
455.514	96
455.734	96
455.955	92
456.175	91
456.395	97
456.616	91
456.836	88
457.056	87
457.276	75
457.497	104
457.717	115
457.937	79
458.157	88
458.377	87
458.598	90
458.818	85
459.038	85
459.258	73
459.478	102
459.698	89
459.918	93
460.138	100
460.358	80
460.578	101
460.798	100
461.018	96
461.238	100
461.458	92
461.678	88
461.898	91
462.118	93
462.338	94
462.558	92
462.777	90
462.997	95
463.217	83
463.437	86
463.657	85
463.876	87
464.096	98
464.316	82
464.536	93
464.755	97
464.975	83
465.195	90
465.414	89
465.634	103
465.854	92
466.073	89
466.293	77
466.512	80
466.732	90
466.951	84
467.171	88
467.391	115
467.61	113
467.829	98
468.049	91
468.268	87
468.488	106
468.707	82
468.927	89
469.146	101
469.365	88
469.585	103
469.804	99
470.023	109
470.243	106
470.462	99
470.681	109
470.901	107
471.12	93
471.339	101
471.558	105
471.777	87
471.997	91
472.216	99
472.435	84
472.654	92
472.873	83
473.092	82
473.311	96
473.53	84
473.749	95
473.968	101
474.187	95
474.406	101
474.625	109
474.844	108
475.063	94
475.282	108
475.501	91
475.72	103
475.939	102
476.158	88
476.377	92
476.596	89
476.814	81
477.033	88
477.252	81
477.471	90
477.69	93
477.908	100
478.127	92
478.346	111
478.564	101
478.783	91
479.002	98
479.22	88
479.439	98
479.658	83
479.876	83
480.095	93
480.313	94
480.532	73
480.751	92
480.969	90
481.188	85
481.406	71
481.624	71
481.843	79
482.061	94
482.28	101
482.498	82
482.717	85
482.935	92
483.153	92
483.372	94
483.59	109
483.808	98
484.027	95
484.245	97
484.463	113
484.681	105
484.9	99
485.118	92
485.336	102
485.554	93
485.772	88
485.99	87
486.209	85
486.427	103
486.645	103
486.863	106
487.081	87
487.299	87
487.517	103
487.735	118
487.953	108
488.171	120
488.389	119
488.607	118
488.825	101
489.043	88
489.261	90
489.479	88
489.696	82
489.914	89
490.132	104
490.35	104
490.568	107
490.786	116
491.003	98
491.221	106
491.439	120
491.657	121
491.874	106
492.092	117
492.31	139
492.527	113
492.745	116
492.963	119
493.18	114
493.398	128
493.615	111
493.833	111
494.05	99
494.268	108
494.485	120
494.703	114
494.92	125
495.138	111
495.355	116
495.573	125
495.79	108
496.008	105
496.225	115
496.442	107
496.66	108
496.877	104
497.094	108
497.312	115
497.529	111
497.746	105
497.963	100
498.181	82
498.398	89
498.615	96
498.832	89
499.049	89
499.267	97
499.484	107
499.701	100
499.918	112
500.135	98
500.352	97
500.569	98
500.786	116
501.003	100
501.22	114
501.437	104
501.654	107
501.871	107
502.088	102
502.305	88
502.522	98
502.739	102
502.956	98
503.172	95
503.389	109
503.606	84
503.823	98
504.04	104
504.256	98
504.473	97
504.69	97
504.907	108
505.123	100
505.34	99
505.557	80
505.773	99
505.99	84
506.207	108
506.423	92
506.64	90
506.856	106
507.073	88
507.289	97
507.506	97
507.722	86
507.939	92
508.155	94
508.372	93
508.588	81
508.805	90
509.021	94
509.238	88
509.454	97
509.67	84
509.887	91
510.103	98
510.319	91
510.536	91
510.752	78
510.968	95
511.184	84
511.401	84
511.617	80
511.833	77
512.049	81
512.265	76
512.481	84
512.698	87
512.914	90
513.13	87
513.346	88
513.562	86
513.778	85
513.994	88
514.21	95
514.426	87
514.642	104
514.858	87
515.074	80
515.29	93
515.506	92
515.721	86
515.937	86
516.153	91
516.369	83
516.585	82
516.801	76
517.016	101
517.232	84
517.448	88
517.664	91
517.879	99
518.095	80
518.311	88
518.527	99
518.742	95
518.958	89
519.173	97
519.389	96
519.605	98
519.82	101
520.036	96
520.251	77
520.467	99
520.682	91
520.898	78
521.113	92
521.329	101
521.544	80
521.76	77
521.975	93
522.19	89
522.406	84
522.621	74
522.836	85
523.052	91
523.267	97
523.482	89
523.698	99
523.913	94
524.128	77
524.343	89
524.559	104
524.774	88
524.989	101
525.204	99
525.419	91
525.634	101
525.849	112
526.064	104
526.28	79
526.495	97
526.71	70
526.925	73
527.14	99
527.355	93
527.57	91
527.785	91
527.999	82
528.214	88
528.429	89
528.644	103
528.859	102
529.074	101
529.289	106
529.503	100
529.718	83
529.933	97
530.148	88
530.363	87
530.577	107
530.792	101
531.007	90
531.221	91
531.436	79
531.651	97
531.865	88
532.08	80
532.295	85
532.509	83
532.724	88
532.938	95
533.153	82
533.367	85
533.582	89
533.796	91
534.011	111
534.225	87
534.44	77
534.654	84
534.868	83
535.083	84
535.297	74
535.511	95
535.726	86
535.94	80
536.154	67
536.369	78
536.583	80
536.797	89
537.011	89
537.225	62
537.44	89
537.654	75
537.868	88
538.082	89
538.296	91
538.51	96
538.724	95
538.938	103
539.153	93
539.367	85
539.581	92
539.795	91
540.009	78
540.222	81
540.436	94
540.65	108
540.864	94
541.078	97
541.292	116
541.506	95
541.72	100
541.934	116
542.147	116
542.361	105
542.575	99
542.789	97
543.002	109
543.216	87
543.43	91
543.644	99
543.857	98
544.071	113
544.285	108
544.498	108
544.712	115
544.925	110
545.139	103
545.352	109
545.566	104
545.779	96
545.993	114
546.206	96
546.42	116
546.633	104
546.847	104
547.06	106
547.274	105
547.487	102
547.7	107
547.914	120
548.127	119
548.34	107
548.554	111
548.767	109
548.98	101
549.193	130
549.407	108
549.62	115
549.833	101
550.046	101
550.259	102
550.473	113
550.686	103
550.899	133
551.112	104
551.325	93
551.538	99
551.751	112
551.964	87
552.177	100
552.39	97
552.603	107
552.816	105
553.029	108
553.242	99
553.455	99
553.667	118
553.88	115
554.093	126
554.306	108
554.519	103
554.732	88
554.944	97
555.157	113
555.37	113
555.583	101
555.795	104
556.008	99
556.221	103
556.433	89
556.646	85
556.859	94
557.071	100
557.284	99
557.496	104
557.709	120
557.921	107
558.134	106
558.346	117
558.559	92
558.771	108
558.984	111
559.196	98
559.409	107
559.621	89
559.833	100
560.046	99
560.258	100
560.47	99
560.683	98
560.895	96
561.107	108
561.32	105
561.532	108
561.744	93
561.956	98
562.168	103
562.381	99
562.593	107
562.805	101
563.017	95
563.229	94
563.441	99
563.653	98
563.865	103
564.077	83
564.289	104
564.501	104
564.713	91
564.925	115
565.137	80
565.349	100
565.561	107
565.773	100
565.985	84
566.197	101
566.408	101
566.62	88
566.832	101
567.044	100
567.255	87
567.467	87
567.679	96
567.891	87
568.102	95
568.314	84
568.526	79
568.737	93
568.949	76
569.161	78
569.372	83
569.584	81
569.795	78
570.007	88
570.218	78
570.43	77
570.641	96
570.853	83
571.064	84
571.276	88
571.487	106
571.698	86
571.91	82
572.121	74
572.333	98
572.544	92
572.755	88
572.966	90
573.178	84
573.389	85
573.6	91
573.811	98
574.023	93
574.234	76
574.445	95
574.656	95
574.867	82
575.078	98
575.289	98
575.501	83
575.712	76
575.923	76
576.134	89
576.345	87
576.556	89
576.767	75
576.978	81
577.188	94
577.399	85
577.61	104
577.821	98
578.032	83
578.243	96
578.454	90
578.665	92
578.875	98
579.086	76
579.297	72
579.508	88
579.718	83
579.929	90
580.14	80
580.35	94
580.561	78
580.772	87
580.982	102
581.193	99
581.403	69
581.614	79
581.825	89
582.035	96
582.246	98
582.456	80
582.667	90
582.877	76
583.087	93
583.298	83
583.508	92
583.719	91
583.929	99
584.139	91
584.35	98
584.56	99
584.77	89
584.981	88
585.191	84
585.401	89
585.611	89
585.821	100
586.032	77
586.242	75
586.452	81
586.662	96
586.872	76
587.082	96
587.292	85
587.502	75
587.713	81
587.923	76
588.133	91
588.343	86
588.553	85
588.762	89
588.972	74
589.182	97
589.392	80
589.602	85
589.812	74
590.022	95
590.232	92
590.441	98
590.651	83
590.861	95
591.071	81
591.281	86
591.49	87
591.7	65
591.91	92
592.119	75
592.329	87
592.539	91
592.748	86
592.958	82
593.167	81
593.377	83
593.587	81
593.796	83
594.006	85
594.215	93
594.424	88
594.634	102
594.843	91
595.053	72
595.262	82
595.472	96
595.681	89
595.89	76
596.1	84
596.309	97
596.518	85
596.727	93
596.937	91
597.146	88
597.355	76
597.564	92
597.774	88
597.983	87
598.192	93
598.401	82
598.61	97
598.819	99
599.028	85
599.237	92
599.446	90
599.655	76
599.864	82
600.073	85
600.282	91
600.491	91
600.7	87
600.909	104
601.118	105
601.327	96
601.536	96
601.745	91
601.953	88
602.162	90
602.371	77
602.58	87
602.789	116
602.997	98
603.206	95
603.415	103
603.623	86
603.832	100
604.041	108
604.249	99
604.458	75
604.666	98
604.875	81
605.084	96
605.292	82
605.501	88
605.709	103
605.918	103
606.126	102
606.334	90
606.543	81
606.751	92
606.96	97
607.168	91
607.376	93
607.585	89
607.793	88
608.001	86
608.21	103
608.418	88
608.626	98
608.834	83
609.043	98
609.251	103
609.459	112
609.667	98
609.875	89
610.083	100
610.291	106
610.499	83
610.707	95
610.916	86
611.124	107
611.332	88
611.54	96
611.748	94
611.955	91
612.163	90
612.371	95
612.579	97
612.787	88
612.995	95
613.203	89
613.411	92
613.618	81
613.826	91
614.034	99
614.242	109
614.449	100
614.657	111
614.865	99
615.072	96
615.28	88
615.488	90
615.695	93
615.903	97
616.111	113
616.318	94
616.526	86
616.733	100
616.941	99
617.148	82
617.356	106
617.563	98
617.771	99
617.978	97
618.185	93
618.393	79
618.6	91
618.807	79
619.015	95
619.222	86
619.429	100
619.637	89
619.844	86
620.051	90
620.258	93
620.466	92
620.673	98
620.88	96
621.087	91
621.294	85
621.501	97
621.708	95
621.915	96
622.122	96
622.329	102
622.536	90
622.743	93
622.95	71
623.157	96
623.364	84
623.571	83
623.778	83
623.985	96
624.192	88
624.399	101
624.606	100
624.812	87
625.019	88
625.226	95
625.433	88
625.639	98
625.846	95
626.053	91
626.259	92
626.466	77
626.673	111
626.879	92
627.086	86
627.293	100
627.499	95
627.706	75
627.912	83
628.119	82
628.325	81
628.532	97
628.738	91
628.945	99
629.151	93
629.357	90
629.564	92
629.77	106
629.976	91
630.183	97
630.389	91
630.595	75
630.802	81
631.008	91
631.214	95
631.42	88
631.627	96
631.833	91
632.039	98
632.245	80
632.451	99
632.657	95
632.863	101
633.069	79
633.275	90
633.481	73
633.688	108
633.893	87
634.099	82
634.305	80
634.511	78
634.717	107
634.923	83
635.129	92
635.335	79
635.541	87
635.747	92
635.952	106
636.158	98
636.364	88
636.57	86
636.775	99
636.981	76
637.187	85
637.392	107
637.598	78
637.804	95
638.009	90
638.215	93
638.421	81
638.626	95
638.832	89
639.037	88
639.243	87
639.448	90
639.654	97
639.859	93
640.065	81
640.27	91
640.475	86
640.681	93
640.886	102
641.091	103
641.297	85
641.502	87
641.707	99
641.913	105
642.118	96
642.323	93
642.528	88
642.733	96
642.939	100
643.144	90
643.349	96
643.554	84
643.759	93
643.964	89
644.169	106
644.374	93
644.579	97
644.784	89
644.989	91
645.194	88
645.399	87
645.604	97
645.809	85
646.014	95
646.219	91
646.423	95
646.628	88
646.833	107
647.038	86
647.243	80
647.447	96
647.652	86
647.857	89
648.062	105
648.266	99
648.471	103
648.676	89
648.88	68
649.085	92
649.289	85
649.494	72
649.698	90
649.903	96
650.107	89
650.312	82
650.516	101
650.721	94
650.925	96
651.13	96
651.334	94
651.539	86
651.743	85
651.947	94
652.152	83
652.356	87
652.56	85
652.764	99
652.969	91
653.173	91
653.377	91
653.581	85
653.785	71
653.99	78
654.194	91
654.398	98
654.602	86
654.806	84
655.01	86
655.214	98
655.418	82
655.622	86
655.826	86
656.03	92
656.234	81
656.438	90
656.642	89
656.846	84
657.049	83
657.253	79
657.457	91
657.661	76
657.865	92
658.068	89
658.272	90
658.476	90
658.68	86
658.883	81
659.087	88
659.291	85
659.494	70
659.698	88
659.901	80
660.105	88
660.309	89
660.512	66
660.716	92
660.919	91
661.123	94
661.326	89
661.53	97
661.733	90
661.936	90
662.14	81
662.343	91
662.546	83
662.75	87
662.953	93
663.156	83
663.36	77
663.563	75
663.766	79
663.969	83
664.173	78
664.376	77
664.579	90
664.782	91
664.985	71
665.188	71
665.391	67
665.594	91
665.797	74
666	74
666.203	90
666.406	84
666.609	91
666.812	89
667.015	81
667.218	87
667.421	85
667.624	72
667.827	82
668.03	77
668.232	75
668.435	88
668.638	86
668.841	75
669.043	92
669.246	83
669.449	87
669.651	81
669.854	67
670.057	92
670.259	74
670.462	76
670.665	89
670.867	87
671.07	93
671.272	80
671.475	72
671.677	83
671.88	70
672.082	74
672.284	87
672.487	95
672.689	81
672.892	79
