Data from Location4.07152019.Energy5.Lamp.07192019.3%Agarose_HRD10591_16-18-33-925.txt Node
Date: Fri Jul 19 16:18:33 EDT 2019
User: cochatt
Spectrometer: HR+D1059
Trigger mode: 1
Integration Time (sec): 1.000000E-1
Scans to average: 1
Electric dark correction enabled: true
Nonlinearity correction enabled: false
Boxcar width: 0
XAxis mode: Wavelengths
Number of Pixels in Spectrum: 2048
>>>>>Begin Spectral Data<<<<<
223.165	-16
223.4	-16
223.635	-16
223.869	-26
224.104	-19
224.338	-13
224.573	-24
224.808	-9
225.042	2
225.277	-8
225.511	0
225.746	5
225.98	12
226.215	7
226.449	7
226.683	13
226.918	28
227.152	41
227.387	30
227.621	37
227.856	44
228.09	43
228.324	43
228.559	56
228.793	58
229.027	59
229.262	51
229.496	80
229.73	69
229.964	68
230.199	78
230.433	75
230.667	80
230.901	80
231.136	81
231.37	77
231.604	80
231.838	100
232.072	76
232.306	92
232.541	83
232.775	96
233.009	91
233.243	72
233.477	78
233.711	74
233.945	78
234.179	75
234.413	89
234.647	87
234.881	82
235.115	79
235.349	79
235.583	75
235.817	83
236.051	84
236.285	80
236.519	78
236.753	79
236.987	73
237.221	91
237.455	88
237.689	72
237.922	78
238.156	77
238.39	67
238.624	84
238.858	68
239.091	87
239.325	100
239.559	69
239.793	86
240.027	93
240.26	92
240.494	74
240.728	59
240.961	79
241.195	95
241.429	88
241.662	61
241.896	84
242.13	75
242.363	77
242.597	79
242.83	83
243.064	73
243.298	74
243.531	81
243.765	76
243.998	77
244.232	79
244.465	81
244.699	77
244.932	96
245.166	81
245.399	89
245.633	80
245.866	86
246.099	70
246.333	86
246.566	98
246.8	84
247.033	77
247.266	87
247.5	75
247.733	83
247.966	79
248.2	88
248.433	79
248.666	78
248.899	64
249.133	84
249.366	83
249.599	86
249.832	88
250.066	84
250.299	84
250.532	74
250.765	79
250.998	70
251.231	82
251.465	86
251.698	94
251.931	75
252.164	71
252.397	93
252.63	73
252.863	93
253.096	76
253.329	76
253.562	76
253.795	89
254.028	90
254.261	96
254.494	75
254.727	73
254.96	87
255.193	88
255.426	94
255.659	93
255.892	96
256.124	82
256.357	87
256.59	68
256.823	69
257.056	85
257.289	80
257.521	88
257.754	74
257.987	73
258.22	95
258.452	85
258.685	83
258.918	92
259.151	84
259.383	89
259.616	85
259.849	82
260.081	87
260.314	85
260.547	84
260.779	79
261.012	83
261.244	84
261.477	76
261.71	85
261.942	88
262.175	89
262.407	87
262.64	76
262.872	66
263.105	86
263.337	83
263.57	72
263.802	74
264.035	80
264.267	83
264.499	80
264.732	97
264.964	78
265.197	73
265.429	73
265.661	92
265.894	96
266.126	98
266.358	80
266.591	88
266.823	83
267.055	82
267.287	74
267.52	80
267.752	96
267.984	90
268.216	84
268.448	87
268.681	71
268.913	72
269.145	75
269.377	81
269.609	96
269.841	94
270.073	89
270.306	82
270.538	93
270.77	79
271.002	87
271.234	92
271.466	90
271.698	86
271.93	81
272.162	73
272.394	90
272.626	80
272.858	84
273.09	97
273.322	77
273.553	87
273.785	84
274.017	87
274.249	84
274.481	97
274.713	83
274.945	81
275.176	77
275.408	75
275.64	76
275.872	92
276.104	98
276.335	76
276.567	91
276.799	88
277.031	87
277.262	90
277.494	69
277.726	87
277.957	91
278.189	79
278.421	96
278.652	73
278.884	84
279.115	89
279.347	82
279.579	91
279.81	96
280.042	91
280.273	84
280.505	82
280.736	91
280.968	91
281.199	96
281.431	74
281.662	90
281.894	83
282.125	91
282.356	82
282.588	74
282.819	78
283.051	78
283.282	82
283.513	88
283.745	93
283.976	90
284.207	77
284.439	93
284.67	85
284.901	86
285.132	80
285.364	71
285.595	89
285.826	86
286.057	105
286.288	101
286.52	96
286.751	77
286.982	75
287.213	91
287.444	91
287.675	80
287.906	87
288.138	84
288.369	83
288.6	93
288.831	88
289.062	94
289.293	89
289.524	76
289.755	90
289.986	97
290.217	83
290.448	102
290.679	78
290.91	75
291.141	88
291.371	77
291.602	100
291.833	93
292.064	92
292.295	110
292.526	87
292.757	85
292.987	89
293.218	91
293.449	70
293.68	107
293.91	80
294.141	79
294.372	87
294.603	75
294.833	70
295.064	84
295.295	90
295.525	73
295.756	90
295.987	86
296.217	87
296.448	95
296.679	98
296.909	81
297.14	83
297.37	79
297.601	90
297.831	96
298.062	100
298.292	92
298.523	89
298.753	94
298.984	96
299.214	91
299.445	95
299.675	84
299.905	79
300.136	79
300.366	86
300.597	81
300.827	91
301.057	83
301.288	93
301.518	101
301.748	93
301.979	98
302.209	100
302.439	81
302.669	80
302.9	84
303.13	91
303.36	74
303.59	102
303.82	86
304.051	88
304.281	92
304.511	97
304.741	89
304.971	99
305.201	78
305.431	83
305.661	79
305.891	91
306.121	92
306.352	85
306.582	76
306.812	90
307.042	93
307.272	84
307.502	93
307.731	95
307.961	101
308.191	87
308.421	88
308.651	92
308.881	90
309.111	90
309.341	84
309.571	87
309.8	92
310.03	85
310.26	77
310.49	96
310.72	93
310.949	86
311.179	97
311.409	73
311.639	100
311.868	88
312.098	103
312.328	80
312.557	100
312.787	84
313.017	80
313.246	83
313.476	79
313.706	83
313.935	83
314.165	93
314.394	100
314.624	81
314.853	87
315.083	89
315.312	84
315.542	80
315.771	99
316.001	86
316.23	87
316.46	76
316.689	90
316.919	81
317.148	100
317.377	86
317.607	83
317.836	90
318.065	90
318.295	93
318.524	62
318.753	77
318.983	89
319.212	94
319.441	81
319.67	83
319.9	90
320.129	86
320.358	85
320.587	85
320.816	98
321.046	95
321.275	80
321.504	82
321.733	85
321.962	90
322.191	89
322.42	92
322.649	90
322.878	99
323.108	101
323.337	108
323.566	89
323.795	93
324.024	83
324.253	83
324.482	79
324.71	77
324.939	75
325.168	89
325.397	89
325.626	78
325.855	92
326.084	94
326.313	75
326.542	76
326.77	91
326.999	89
327.228	87
327.457	89
327.686	73
327.914	92
328.143	85
328.372	98
328.6	96
328.829	79
329.058	87
329.287	86
329.515	91
329.744	95
329.972	97
330.201	103
330.43	114
330.658	74
330.887	85
331.115	84
331.344	89
331.572	79
331.801	89
332.03	89
332.258	85
332.486	72
332.715	95
332.943	82
333.172	92
333.4	87
333.629	87
333.857	75
334.085	89
334.314	82
334.542	90
334.771	76
334.999	81
335.227	83
335.455	88
335.684	85
335.912	85
336.14	85
336.369	99
336.597	95
336.825	87
337.053	93
337.281	96
337.51	94
337.738	92
337.966	80
338.194	76
338.422	91
338.65	108
338.878	90
339.106	87
339.334	96
339.562	95
339.79	84
340.018	96
340.246	76
340.474	92
340.702	97
340.93	76
341.158	87
341.386	88
341.614	106
341.842	82
342.07	67
342.298	94
342.526	88
342.754	89
342.981	85
343.209	80
343.437	85
343.665	81
343.893	95
344.12	95
344.348	90
344.576	84
344.804	85
345.031	96
345.259	90
345.487	80
345.714	85
345.942	78
346.17	82
346.397	70
346.625	90
346.853	86
347.08	78
347.308	96
347.535	93
347.763	90
347.99	98
348.218	82
348.445	78
348.673	81
348.9	86
349.128	99
349.355	79
349.583	79
349.81	90
350.037	83
350.265	89
350.492	88
350.72	103
350.947	84
351.174	101
351.402	78
351.629	85
351.856	91
352.083	87
352.311	91
352.538	79
352.765	77
352.992	86
353.22	92
353.447	87
353.674	83
353.901	80
354.128	84
354.355	79
354.583	82
354.81	85
355.037	80
355.264	106
355.491	83
355.718	91
355.945	82
356.172	75
356.399	91
356.626	83
356.853	79
357.08	100
357.307	78
357.534	86
357.761	84
357.988	92
358.215	87
358.441	83
358.668	86
358.895	73
359.122	84
359.349	80
359.576	85
359.802	92
360.029	98
360.256	85
360.483	74
360.709	90
360.936	91
361.163	87
361.39	87
361.616	77
361.843	94
362.07	88
362.296	93
362.523	90
362.749	96
362.976	87
363.203	92
363.429	80
363.656	90
363.882	96
364.109	95
364.335	86
364.562	90
364.788	87
365.015	88
365.241	95
365.468	91
365.694	84
365.92	72
366.147	87
366.373	99
366.599	79
366.826	92
367.052	82
367.278	84
367.505	87
367.731	88
367.957	82
368.184	85
368.41	85
368.636	78
368.862	107
369.089	88
369.315	93
369.541	88
369.767	98
369.993	91
370.219	88
370.445	93
370.672	91
370.898	85
371.124	86
371.35	95
371.576	104
371.802	101
372.028	92
372.254	87
372.48	94
372.706	92
372.932	79
373.158	95
373.384	96
373.61	79
373.835	93
374.061	97
374.287	106
374.513	102
374.739	84
374.965	89
375.191	96
375.416	99
375.642	92
375.868	115
376.094	91
376.319	92
376.545	94
376.771	80
376.997	99
377.222	95
377.448	96
377.674	104
377.899	82
378.125	86
378.35	94
378.576	103
378.802	96
379.027	103
379.253	94
379.478	103
379.704	100
379.929	99
380.155	99
380.38	89
380.606	94
380.831	88
381.057	108
381.282	100
381.507	83
381.733	112
381.958	99
382.184	92
382.409	98
382.634	99
382.86	96
383.085	93
383.31	106
383.535	94
383.761	99
383.986	95
384.211	103
384.436	120
384.662	92
384.887	103
385.112	93
385.337	101
385.562	93
385.787	102
386.013	122
386.238	107
386.463	99
386.688	95
386.913	97
387.138	102
387.363	94
387.588	100
387.813	110
388.038	103
388.263	105
388.488	97
388.713	87
388.938	100
389.163	111
389.387	102
389.612	101
389.837	115
390.062	106
390.287	112
390.512	99
390.736	97
390.961	97
391.186	111
391.411	104
391.636	109
391.86	114
392.085	123
392.31	102
392.534	93
392.759	90
392.984	118
393.208	94
393.433	102
393.658	116
393.882	118
394.107	111
394.331	109
394.556	106
394.78	99
395.005	109
395.229	100
395.454	104
395.678	113
395.903	102
396.127	101
396.352	107
396.576	105
396.801	99
397.025	96
397.249	113
397.474	101
397.698	118
397.922	110
398.147	120
398.371	103
398.595	112
398.82	111
399.044	124
399.268	107
399.492	120
399.717	113
399.941	112
400.165	110
400.389	109
400.613	121
400.837	117
401.062	126
401.286	104
401.51	109
401.734	116
401.958	105
402.182	108
402.406	103
402.63	119
402.854	119
403.078	125
403.302	130
403.526	114
403.75	118
403.974	115
404.198	114
404.422	107
404.645	105
404.869	101
405.093	121
405.317	128
405.541	122
405.765	115
405.988	107
406.212	108
406.436	127
406.66	120
406.883	118
407.107	119
407.331	119
407.555	114
407.778	124
408.002	126
408.226	119
408.449	126
408.673	125
408.896	122
409.12	104
409.344	124
409.567	120
409.791	117
410.014	128
410.238	128
410.461	127
410.685	114
410.908	120
411.132	137
411.355	129
411.578	123
411.802	125
412.025	118
412.249	119
412.472	110
412.695	110
412.919	135
413.142	124
413.365	122
413.589	127
413.812	114
414.035	134
414.258	128
414.482	123
414.705	119
414.928	125
415.151	115
415.374	132
415.597	129
415.821	129
416.044	125
416.267	136
416.49	126
416.713	123
416.936	107
417.159	116
417.382	133
417.605	126
417.828	134
418.051	134
418.274	139
418.497	134
418.72	118
418.943	131
419.166	115
419.389	130
419.611	133
419.834	136
420.057	137
420.28	117
420.503	141
420.726	144
420.948	137
421.171	123
421.394	130
421.617	128
421.839	141
422.062	151
422.285	132
422.507	121
422.73	111
422.953	126
423.175	132
423.398	122
423.621	118
423.843	142
424.066	122
424.288	124
424.511	145
424.733	152
424.956	140
425.178	145
425.401	138
425.623	136
425.846	122
426.068	139
426.291	120
426.513	144
426.735	118
426.958	133
427.18	132
427.402	137
427.625	141
427.847	119
428.069	144
428.292	126
428.514	140
428.736	122
428.958	126
429.181	139
429.403	132
429.625	133
429.847	137
430.069	140
430.292	131
430.514	126
430.736	119
430.958	128
431.18	125
431.402	118
431.624	113
431.846	119
432.068	102
432.29	100
432.512	90
432.734	112
432.956	136
433.178	140
433.4	139
433.622	140
433.844	142
434.066	131
434.287	118
434.509	109
434.731	104
434.953	117
435.175	109
435.397	124
435.618	133
435.84	108
436.062	132
436.284	129
436.505	129
436.727	126
436.949	140
437.17	127
437.392	135
437.614	126
437.835	119
438.057	128
438.278	121
438.5	129
438.721	139
438.943	136
439.165	134
439.386	139
439.608	137
439.829	146
440.05	142
440.272	139
440.493	138
440.715	145
440.936	134
441.158	152
441.379	148
441.6	138
441.822	144
442.043	148
442.264	139
442.486	140
442.707	142
442.928	141
443.149	138
443.371	132
443.592	143
443.813	149
444.034	139
444.255	139
444.476	156
444.698	136
444.919	154
445.14	270
445.361	191
445.582	152
445.803	140
446.024	143
446.245	154
446.466	145
446.687	166
446.908	172
447.129	151
447.35	155
447.571	160
447.792	133
448.013	144
448.234	140
448.455	150
448.675	124
448.896	145
449.117	136
449.338	132
449.559	148
449.779	132
450	136
450.221	127
450.442	141
450.662	134
450.883	146
451.104	144
451.324	138
451.545	130
451.766	131
451.986	128
452.207	132
452.428	119
452.648	128
452.869	119
453.089	110
453.31	108
453.53	104
453.751	102
453.971	98
454.192	105
454.412	116
454.633	109
454.853	132
455.073	129
455.294	135
455.514	125
455.734	118
455.955	116
456.175	117
456.395	120
456.616	100
456.836	111
457.056	109
457.276	115
457.497	120
457.717	110
457.937	111
458.157	99
458.377	105
458.598	104
458.818	98
459.038	83
459.258	84
459.478	96
459.698	92
459.918	115
460.138	121
460.358	101
460.578	130
460.798	121
461.018	114
461.238	120
461.458	119
461.678	119
461.898	109
462.118	123
462.338	119
462.558	109
462.777	108
462.997	113
463.217	92
463.437	111
463.657	112
463.876	120
464.096	116
464.316	105
464.536	114
464.755	122
464.975	98
465.195	108
465.414	125
465.634	125
465.854	131
466.073	118
466.293	133
466.512	124
466.732	118
466.951	132
467.171	154
467.391	124
467.61	129
467.829	142
468.049	127
468.268	139
468.488	138
468.707	134
468.927	139
469.146	144
469.365	144
469.585	140
469.804	130
470.023	143
470.243	143
470.462	153
470.681	145
470.901	128
471.12	147
471.339	150
471.558	138
471.777	138
471.997	131
472.216	134
472.435	126
472.654	119
472.873	110
473.092	140
473.311	123
473.53	122
473.749	122
473.968	141
474.187	130
474.406	128
474.625	136
474.844	145
475.063	133
475.282	112
475.501	108
475.72	129
475.939	125
476.158	130
476.377	137
476.596	122
476.814	106
477.033	116
477.252	112
477.471	128
477.69	133
477.908	142
478.127	143
478.346	132
478.564	117
478.783	133
479.002	127
479.22	148
479.439	148
479.658	121
479.876	116
480.095	117
480.313	122
480.532	98
480.751	112
480.969	103
481.188	86
481.406	90
481.624	74
481.843	86
482.061	104
482.28	116
482.498	112
482.717	116
482.935	127
483.153	151
483.372	158
483.59	154
483.808	145
484.027	141
484.245	143
484.463	157
484.681	157
484.9	150
485.118	148
485.336	138
485.554	122
485.772	96
485.99	108
486.209	121
486.427	108
486.645	130
486.863	134
487.081	139
487.299	125
487.517	152
487.735	157
487.953	181
488.171	170
488.389	187
488.607	154
488.825	154
489.043	141
489.261	134
489.479	137
489.696	150
489.914	144
490.132	151
490.35	142
490.568	159
490.786	150
491.003	157
491.221	175
491.439	189
491.657	180
491.874	194
492.092	212
492.31	239
492.527	238
492.745	208
492.963	199
493.18	187
493.398	179
493.615	160
493.833	176
494.05	180
494.268	179
494.485	163
494.703	168
494.92	170
495.138	176
495.355	170
495.573	154
495.79	175
496.008	174
496.225	158
496.442	172
496.66	157
496.877	145
497.094	154
497.312	161
497.529	162
497.746	149
497.963	139
498.181	132
498.398	123
498.615	130
498.832	110
499.049	130
499.267	132
499.484	126
499.701	138
499.918	118
500.135	140
500.352	130
500.569	134
500.786	135
501.003	156
501.22	146
501.437	130
501.654	128
501.871	138
502.088	125
502.305	134
502.522	142
502.739	129
502.956	128
503.172	137
503.389	116
503.606	120
503.823	116
504.04	116
504.256	129
504.473	119
504.69	129
504.907	130
505.123	134
505.34	120
505.557	119
505.773	122
505.99	121
506.207	136
506.423	128
506.64	140
506.856	119
507.073	136
507.289	127
507.506	122
507.722	121
507.939	115
508.155	116
508.372	128
508.588	123
508.805	118
509.021	114
509.238	105
509.454	106
509.67	105
509.887	101
510.103	103
510.319	92
510.536	87
510.752	86
510.968	90
511.184	77
511.401	72
511.617	88
511.833	93
512.049	107
512.265	93
512.481	97
512.698	97
512.914	104
513.13	88
513.346	98
513.562	87
513.778	98
513.994	104
514.21	101
514.426	105
514.642	88
514.858	92
515.074	100
515.29	94
515.506	89
515.721	102
515.937	98
516.153	94
516.369	85
516.585	95
516.801	81
517.016	100
517.232	86
517.448	94
517.664	105
517.879	87
518.095	100
518.311	94
518.527	98
518.742	94
518.958	102
519.173	104
519.389	114
519.605	111
519.82	108
520.036	111
520.251	119
520.467	115
520.682	109
520.898	98
521.113	97
521.329	93
521.544	92
521.76	91
521.975	116
522.19	91
522.406	106
522.621	103
522.836	111
523.052	101
523.267	110
523.482	99
523.698	112
523.913	125
524.128	127
524.343	127
524.559	126
524.774	109
524.989	110
525.204	119
525.419	109
525.634	107
525.849	108
526.064	109
526.28	114
526.495	95
526.71	95
526.925	83
527.14	73
527.355	80
527.57	71
527.785	69
527.999	92
528.214	105
528.429	93
528.644	120
528.859	126
529.074	148
529.289	150
529.503	146
529.718	148
529.933	110
530.148	103
530.363	100
530.577	79
530.792	91
531.007	78
531.221	90
531.436	88
531.651	93
531.865	90
532.08	90
532.295	91
532.509	95
532.724	83
532.938	96
533.153	86
533.367	118
533.582	133
533.796	131
534.011	107
534.225	97
534.44	93
534.654	95
534.868	102
535.083	95
535.297	98
535.511	119
535.726	112
535.94	111
536.154	108
536.369	96
536.583	87
536.797	103
537.011	100
537.225	87
537.44	91
537.654	93
537.868	88
538.082	102
538.296	92
538.51	119
538.724	114
538.938	120
539.153	124
539.367	126
539.581	115
539.795	110
540.009	98
540.222	91
540.436	114
540.65	111
540.864	138
541.078	133
541.292	136
541.506	159
541.72	177
541.934	178
542.147	187
542.361	178
542.575	168
542.789	164
543.002	142
543.216	112
543.43	133
543.644	128
543.857	142
544.071	164
544.285	167
544.498	151
544.712	176
544.925	164
545.139	158
545.352	157
545.566	140
545.779	164
545.993	175
546.206	168
546.42	163
546.633	171
546.847	167
547.06	154
547.274	174
547.487	183
547.7	169
547.914	170
548.127	157
548.34	178
548.554	142
548.767	153
548.98	156
549.193	162
549.407	150
549.62	157
549.833	151
550.046	161
550.259	163
550.473	163
550.686	152
550.899	151
551.112	155
551.325	124
551.538	125
551.751	122
551.964	133
552.177	142
552.39	149
552.603	154
552.816	140
553.029	150
553.242	164
553.455	155
553.667	151
553.88	150
554.093	132
554.306	146
554.519	141
554.732	133
554.944	153
555.157	151
555.37	134
555.583	141
555.795	145
556.008	131
556.221	127
556.433	127
556.646	159
556.859	147
557.071	126
557.284	148
557.496	143
557.709	122
557.921	141
558.134	132
558.346	153
558.559	148
558.771	150
558.984	136
559.196	141
559.409	127
559.621	132
559.833	124
560.046	130
560.258	126
560.47	142
560.683	141
560.895	119
561.107	140
561.32	135
561.532	135
561.744	134
561.956	131
562.168	123
562.381	125
562.593	117
562.805	127
563.017	124
563.229	118
563.441	135
563.653	131
563.865	128
564.077	126
564.289	130
564.501	114
564.713	112
564.925	135
565.137	117
565.349	111
565.561	117
565.773	108
565.985	118
566.197	119
566.408	103
566.62	125
566.832	127
567.044	101
567.255	107
567.467	118
567.679	98
567.891	109
568.102	104
568.314	103
568.526	103
568.737	79
568.949	91
569.161	90
569.372	89
569.584	94
569.795	93
570.007	90
570.218	96
570.43	95
570.641	100
570.853	104
571.064	115
571.276	109
571.487	101
571.698	106
571.91	105
572.121	122
572.333	103
572.544	114
572.755	90
572.966	96
573.178	96
573.389	101
573.6	98
573.811	76
574.023	87
574.234	85
574.445	93
574.656	103
574.867	107
575.078	104
575.289	108
575.501	104
575.712	102
575.923	100
576.134	98
576.345	103
576.556	123
576.767	111
576.978	94
577.188	110
577.399	82
577.61	74
577.821	96
578.032	92
578.243	105
578.454	98
578.665	92
578.875	88
579.086	93
579.297	81
579.508	91
579.718	106
579.929	88
580.14	86
580.35	98
580.561	94
580.772	99
580.982	96
581.193	98
581.403	88
581.614	104
581.825	90
582.035	97
582.246	104
582.456	97
582.667	102
582.877	101
583.087	101
583.298	90
583.508	83
583.719	84
583.929	83
584.139	81
584.35	89
584.56	93
584.77	94
584.981	93
585.191	76
585.401	98
585.611	93
585.821	98
586.032	87
586.242	80
586.452	104
586.662	85
586.872	83
587.082	94
587.292	84
587.502	90
587.713	88
587.923	91
588.133	90
588.343	83
588.553	87
588.762	72
588.972	88
589.182	92
589.392	87
589.602	94
589.812	81
590.022	95
590.232	86
590.441	88
590.651	80
590.861	88
591.071	95
591.281	90
591.49	83
591.7	98
591.91	105
592.119	97
592.329	92
592.539	87
592.748	94
592.958	89
593.167	64
593.377	85
593.587	96
593.796	96
594.006	83
594.215	84
594.424	86
594.634	94
594.843	82
595.053	108
595.262	103
595.472	107
595.681	96
595.89	88
596.1	99
596.309	107
596.518	106
596.727	93
596.937	100
597.146	98
597.355	102
597.564	96
597.774	86
597.983	88
598.192	93
598.401	86
598.61	99
598.819	99
599.028	102
599.237	94
599.446	93
599.655	98
599.864	98
600.073	100
600.282	94
600.491	93
600.7	93
600.909	102
601.118	90
601.327	100
601.536	116
601.745	108
601.953	106
602.162	102
602.371	121
602.58	100
602.789	116
602.997	117
603.206	126
603.415	101
603.623	110
603.832	115
604.041	92
604.249	112
604.458	102
604.666	95
604.875	99
605.084	103
605.292	120
605.501	120
605.709	108
605.918	110
606.126	122
606.334	122
606.543	96
606.751	101
606.96	112
607.168	109
607.376	109
607.585	107
607.793	116
608.001	105
608.21	129
608.418	118
608.626	125
608.834	125
609.043	123
609.251	104
609.459	122
609.667	108
609.875	128
610.083	120
610.291	101
610.499	116
610.707	126
610.916	123
611.124	128
611.332	112
611.54	106
611.748	122
611.955	103
612.163	130
612.371	123
612.579	117
612.787	117
612.995	116
613.203	118
613.411	95
613.618	111
613.826	115
614.034	111
614.242	118
614.449	102
614.657	118
614.865	114
615.072	115
615.28	114
615.488	107
615.695	115
615.903	103
616.111	126
616.318	126
616.526	123
616.733	108
616.941	108
617.148	111
617.356	121
617.563	123
617.771	107
617.978	103
618.185	101
618.393	117
618.6	124
618.807	116
619.015	118
619.222	108
619.429	113
619.637	113
619.844	115
620.051	100
620.258	101
620.466	122
620.673	110
620.88	107
621.087	99
621.294	107
621.501	100
621.708	104
621.915	114
622.122	105
622.329	106
622.536	119
622.743	116
622.95	117
623.157	115
623.364	109
623.571	95
623.778	112
623.985	114
624.192	120
624.399	105
624.606	103
624.812	109
625.019	104
625.226	118
625.433	108
625.639	102
625.846	104
626.053	94
626.259	106
626.466	110
626.673	97
626.879	108
627.086	100
627.293	99
627.499	108
627.706	115
627.912	106
628.119	114
628.325	103
628.532	118
628.738	103
628.945	101
629.151	94
629.357	107
629.564	96
629.77	106
629.976	89
630.183	102
630.389	102
630.595	115
630.802	108
631.008	111
631.214	118
631.42	92
631.627	96
631.833	80
632.039	90
632.245	99
632.451	109
632.657	105
632.863	116
633.069	104
633.275	123
633.481	100
633.688	100
633.893	111
634.099	85
634.305	87
634.511	100
634.717	103
634.923	89
635.129	86
635.335	100
635.541	105
635.747	106
635.952	106
636.158	101
636.364	110
636.57	102
636.775	89
636.981	108
637.187	103
637.392	93
637.598	103
637.804	112
638.009	109
638.215	108
638.421	100
638.626	106
638.832	103
639.037	104
639.243	103
639.448	106
639.654	111
639.859	101
640.065	102
640.27	99
640.475	90
640.681	111
640.886	101
641.091	88
641.297	110
641.502	94
641.707	107
641.913	104
642.118	91
642.323	116
642.528	114
642.733	98
642.939	107
643.144	114
643.349	98
643.554	106
643.759	98
643.964	111
644.169	88
644.374	105
644.579	99
644.784	95
644.989	84
645.194	103
645.399	124
645.604	108
645.809	117
646.014	92
646.219	99
646.423	97
646.628	103
646.833	121
647.038	107
647.243	108
647.447	102
647.652	114
647.857	99
648.062	101
648.266	107
648.471	106
648.676	106
648.88	99
649.085	112
649.289	106
649.494	90
649.698	91
649.903	92
650.107	116
650.312	98
650.516	91
650.721	92
650.925	89
651.13	103
651.334	98
651.539	87
651.743	102
651.947	89
652.152	106
652.356	104
652.56	102
652.764	101
652.969	105
653.173	103
653.377	96
653.581	90
653.785	100
653.99	99
654.194	99
654.398	88
654.602	101
654.806	95
655.01	100
655.214	87
655.418	84
655.622	89
655.826	87
656.03	85
656.234	80
656.438	100
656.642	92
656.846	103
657.049	78
657.253	97
657.457	86
657.661	90
657.865	90
658.068	92
658.272	80
658.476	89
658.68	91
658.883	91
659.087	85
659.291	78
659.494	80
659.698	94
659.901	82
660.105	87
660.309	79
660.512	85
660.716	99
660.919	85
661.123	93
661.326	101
661.53	82
661.733	87
661.936	89
662.14	95
662.343	102
662.546	79
662.75	76
662.953	90
663.156	80
663.36	79
663.563	93
663.766	76
663.969	74
664.173	93
664.376	88
664.579	93
664.782	75
664.985	95
665.188	94
665.391	79
665.594	66
665.797	80
666	83
666.203	82
666.406	89
666.609	78
666.812	80
667.015	72
667.218	90
667.421	90
667.624	77
667.827	78
668.03	85
668.232	85
668.435	87
668.638	85
668.841	78
669.043	90
669.246	75
669.449	86
669.651	91
669.854	88
670.057	94
670.259	91
670.462	87
670.665	93
670.867	72
671.07	83
671.272	85
671.475	83
671.677	80
671.88	96
672.082	73
672.284	90
672.487	77
672.689	85
672.892	75
