Data from Location4.07152019.Energy5.Lamp.07192019.3%Agarose_HRD10591_16-18-17-925.txt Node
Date: Fri Jul 19 16:18:17 EDT 2019
User: cochatt
Spectrometer: HR+D1059
Trigger mode: 1
Integration Time (sec): 1.000000E-1
Scans to average: 1
Electric dark correction enabled: true
Nonlinearity correction enabled: false
Boxcar width: 0
XAxis mode: Wavelengths
Number of Pixels in Spectrum: 2048
>>>>>Begin Spectral Data<<<<<
223.165	-13
223.4	-13
223.635	-13
223.869	-15
224.104	-23
224.338	-21
224.573	-15
224.808	-15
225.042	-18
225.277	-4
225.511	-4
225.746	-2
225.98	8
226.215	10
226.449	14
226.683	33
226.918	32
227.152	33
227.387	27
227.621	40
227.856	43
228.09	52
228.324	50
228.559	47
228.793	41
229.027	54
229.262	72
229.496	50
229.73	63
229.964	70
230.199	75
230.433	66
230.667	82
230.901	61
231.136	74
231.37	84
231.604	65
231.838	86
232.072	87
232.306	81
232.541	83
232.775	61
233.009	76
233.243	79
233.477	75
233.711	83
233.945	77
234.179	82
234.413	84
234.647	75
234.881	84
235.115	84
235.349	75
235.583	79
235.817	78
236.051	90
236.285	78
236.519	88
236.753	74
236.987	75
237.221	71
237.455	80
237.689	80
237.922	53
238.156	71
238.39	66
238.624	88
238.858	79
239.091	76
239.325	79
239.559	92
239.793	88
240.027	92
240.26	69
240.494	85
240.728	75
240.961	77
241.195	69
241.429	75
241.662	75
241.896	72
242.13	84
242.363	68
242.597	78
242.83	80
243.064	66
243.298	72
243.531	80
243.765	75
243.998	75
244.232	86
244.465	83
244.699	84
244.932	66
245.166	80
245.399	75
245.633	84
245.866	95
246.099	72
246.333	89
246.566	74
246.8	74
247.033	79
247.266	95
247.5	76
247.733	76
247.966	74
248.2	67
248.433	74
248.666	85
248.899	76
249.133	78
249.366	72
249.599	76
249.832	84
250.066	87
250.299	86
250.532	82
250.765	85
250.998	72
251.231	77
251.465	79
251.698	75
251.931	85
252.164	78
252.397	91
252.63	79
252.863	90
253.096	92
253.329	85
253.562	80
253.795	87
254.028	79
254.261	72
254.494	84
254.727	72
254.96	86
255.193	90
255.426	84
255.659	81
255.892	79
256.124	83
256.357	84
256.59	72
256.823	78
257.056	65
257.289	88
257.521	78
257.754	81
257.987	73
258.22	80
258.452	73
258.685	77
258.918	78
259.151	85
259.383	88
259.616	90
259.849	76
260.081	79
260.314	81
260.547	86
260.779	92
261.012	84
261.244	79
261.477	75
261.71	80
261.942	87
262.175	99
262.407	90
262.64	84
262.872	73
263.105	76
263.337	85
263.57	78
263.802	88
264.035	79
264.267	75
264.499	89
264.732	91
264.964	84
265.197	83
265.429	92
265.661	79
265.894	89
266.126	82
266.358	82
266.591	87
266.823	91
267.055	102
267.287	77
267.52	85
267.752	70
267.984	82
268.216	80
268.448	69
268.681	80
268.913	90
269.145	92
269.377	91
269.609	92
269.841	90
270.073	68
270.306	90
270.538	79
270.77	76
271.002	88
271.234	83
271.466	90
271.698	80
271.93	78
272.162	89
272.394	92
272.626	84
272.858	85
273.09	77
273.322	84
273.553	91
273.785	77
274.017	86
274.249	72
274.481	84
274.713	69
274.945	82
275.176	73
275.408	78
275.64	90
275.872	81
276.104	71
276.335	86
276.567	87
276.799	105
277.031	84
277.262	88
277.494	82
277.726	95
277.957	93
278.189	81
278.421	83
278.652	81
278.884	72
279.115	75
279.347	94
279.579	80
279.81	77
280.042	77
280.273	78
280.505	86
280.736	74
280.968	82
281.199	84
281.431	86
281.662	87
281.894	74
282.125	72
282.356	68
282.588	89
282.819	72
283.051	72
283.282	83
283.513	88
283.745	89
283.976	84
284.207	86
284.439	76
284.67	75
284.901	79
285.132	90
285.364	88
285.595	90
285.826	98
286.057	81
286.288	77
286.52	83
286.751	76
286.982	79
287.213	90
287.444	81
287.675	81
287.906	92
288.138	81
288.369	87
288.6	79
288.831	86
289.062	76
289.293	80
289.524	82
289.755	75
289.986	78
290.217	92
290.448	80
290.679	80
290.91	75
291.141	67
291.371	84
291.602	88
291.833	81
292.064	77
292.295	87
292.526	90
292.757	74
292.987	85
293.218	91
293.449	94
293.68	95
293.91	96
294.141	81
294.372	81
294.603	86
294.833	92
295.064	79
295.295	78
295.525	86
295.756	86
295.987	68
296.217	95
296.448	83
296.679	74
296.909	94
297.14	85
297.37	90
297.601	76
297.831	83
298.062	91
298.292	78
298.523	93
298.753	80
298.984	85
299.214	96
299.445	68
299.675	82
299.905	89
300.136	76
300.366	83
300.597	78
300.827	88
301.057	86
301.288	96
301.518	89
301.748	91
301.979	89
302.209	88
302.439	85
302.669	84
302.9	85
303.13	75
303.36	82
303.59	82
303.82	81
304.051	90
304.281	66
304.511	76
304.741	93
304.971	94
305.201	91
305.431	79
305.661	94
305.891	82
306.121	89
306.352	93
306.582	90
306.812	80
307.042	97
307.272	94
307.502	88
307.731	91
307.961	76
308.191	85
308.421	80
308.651	87
308.881	94
309.111	84
309.341	84
309.571	67
309.8	84
310.03	82
310.26	82
310.49	85
310.72	74
310.949	80
311.179	83
311.409	92
311.639	86
311.868	95
312.098	81
312.328	115
312.557	86
312.787	86
313.017	96
313.246	80
313.476	86
313.706	91
313.935	83
314.165	76
314.394	94
314.624	91
314.853	78
315.083	76
315.312	80
315.542	82
315.771	83
316.001	73
316.23	79
316.46	86
316.689	84
316.919	90
317.148	75
317.377	86
317.607	86
317.836	78
318.065	75
318.295	83
318.524	82
318.753	74
318.983	88
319.212	87
319.441	92
319.67	88
319.9	81
320.129	80
320.358	79
320.587	88
320.816	84
321.046	87
321.275	90
321.504	82
321.733	85
321.962	85
322.191	82
322.42	92
322.649	90
322.878	95
323.108	84
323.337	87
323.566	83
323.795	84
324.024	93
324.253	81
324.482	78
324.71	86
324.939	82
325.168	85
325.397	85
325.626	92
325.855	85
326.084	89
326.313	82
326.542	90
326.77	90
326.999	83
327.228	82
327.457	89
327.686	84
327.914	91
328.143	85
328.372	80
328.6	84
328.829	102
329.058	91
329.287	94
329.515	104
329.744	77
329.972	86
330.201	83
330.43	66
330.658	81
330.887	78
331.115	71
331.344	79
331.572	91
331.801	80
332.03	89
332.258	88
332.486	86
332.715	94
332.943	82
333.172	87
333.4	85
333.629	85
333.857	71
334.085	78
334.314	83
334.542	86
334.771	94
334.999	81
335.227	91
335.455	70
335.684	80
335.912	70
336.14	72
336.369	76
336.597	71
336.825	73
337.053	85
337.281	101
337.51	86
337.738	84
337.966	87
338.194	97
338.422	78
338.65	91
338.878	82
339.106	89
339.334	79
339.562	82
339.79	86
340.018	95
340.246	97
340.474	92
340.702	84
340.93	87
341.158	102
341.386	84
341.614	85
341.842	81
342.07	80
342.298	79
342.526	73
342.754	73
342.981	86
343.209	83
343.437	87
343.665	80
343.893	93
344.12	85
344.348	72
344.576	84
344.804	82
345.031	80
345.259	84
345.487	70
345.714	86
345.942	74
346.17	75
346.397	97
346.625	83
346.853	86
347.08	81
347.308	79
347.535	72
347.763	88
347.99	63
348.218	79
348.445	79
348.673	94
348.9	85
349.128	87
349.355	95
349.583	67
349.81	82
350.037	77
350.265	82
350.492	80
350.72	88
350.947	86
351.174	87
351.402	84
351.629	86
351.856	75
352.083	82
352.311	75
352.538	77
352.765	86
352.992	89
353.22	88
353.447	84
353.674	83
353.901	98
354.128	90
354.355	76
354.583	98
354.81	89
355.037	72
355.264	87
355.491	78
355.718	84
355.945	96
356.172	88
356.399	75
356.626	90
356.853	89
357.08	79
357.307	85
357.534	79
357.761	79
357.988	83
358.215	88
358.441	74
358.668	80
358.895	77
359.122	80
359.349	79
359.576	80
359.802	71
360.029	81
360.256	79
360.483	60
360.709	92
360.936	89
361.163	91
361.39	82
361.616	85
361.843	81
362.07	77
362.296	93
362.523	79
362.749	71
362.976	89
363.203	75
363.429	94
363.656	79
363.882	70
364.109	89
364.335	88
364.562	95
364.788	88
365.015	88
365.241	97
365.468	85
365.694	76
365.92	91
366.147	77
366.373	86
366.599	96
366.826	95
367.052	87
367.278	93
367.505	85
367.731	87
367.957	85
368.184	85
368.41	99
368.636	85
368.862	100
369.089	95
369.315	94
369.541	79
369.767	88
369.993	94
370.219	81
370.445	91
370.672	83
370.898	82
371.124	99
371.35	86
371.576	97
371.802	99
372.028	93
372.254	99
372.48	82
372.706	100
372.932	91
373.158	92
373.384	95
373.61	106
373.835	117
374.061	91
374.287	85
374.513	81
374.739	82
374.965	88
375.191	95
375.416	94
375.642	99
375.868	90
376.094	99
376.319	82
376.545	90
376.771	98
376.997	98
377.222	94
377.448	96
377.674	91
377.899	111
378.125	116
378.35	97
378.576	84
378.802	96
379.027	98
379.253	97
379.478	83
379.704	97
379.929	90
380.155	106
380.38	95
380.606	87
380.831	104
381.057	111
381.282	104
381.507	94
381.733	104
381.958	98
382.184	100
382.409	86
382.634	94
382.86	96
383.085	105
383.31	106
383.535	102
383.761	96
383.986	82
384.211	105
384.436	105
384.662	93
384.887	93
385.112	98
385.337	95
385.562	88
385.787	88
386.013	100
386.238	104
386.463	97
386.688	87
386.913	96
387.138	107
387.363	104
387.588	110
387.813	111
388.038	84
388.263	102
388.488	92
388.713	104
388.938	94
389.163	102
389.387	104
389.612	101
389.837	86
390.062	98
390.287	95
390.512	108
390.736	104
390.961	93
391.186	84
391.411	107
391.636	101
391.86	105
392.085	113
392.31	102
392.534	112
392.759	101
392.984	94
393.208	118
393.433	110
393.658	101
393.882	115
394.107	95
394.331	108
394.556	119
394.78	100
395.005	107
395.229	111
395.454	120
395.678	106
395.903	108
396.127	91
396.352	107
396.576	103
396.801	100
397.025	103
397.249	92
397.474	110
397.698	97
397.922	95
398.147	114
398.371	102
398.595	110
398.82	90
399.044	88
399.268	106
399.492	107
399.717	104
399.941	112
400.165	102
400.389	106
400.613	95
400.837	99
401.062	116
401.286	98
401.51	111
401.734	113
401.958	121
402.182	126
402.406	108
402.63	124
402.854	115
403.078	113
403.302	111
403.526	106
403.75	108
403.974	112
404.198	118
404.422	116
404.645	115
404.869	122
405.093	121
405.317	123
405.541	118
405.765	100
405.988	128
406.212	118
406.436	113
406.66	99
406.883	126
407.107	125
407.331	127
407.555	117
407.778	110
408.002	116
408.226	113
408.449	115
408.673	122
408.896	137
409.12	110
409.344	110
409.567	104
409.791	121
410.014	118
410.238	122
410.461	127
410.685	118
410.908	112
411.132	128
411.355	119
411.578	126
411.802	117
412.025	100
412.249	138
412.472	119
412.695	115
412.919	123
413.142	122
413.365	116
413.589	125
413.812	114
414.035	118
414.258	124
414.482	118
414.705	130
414.928	122
415.151	128
415.374	119
415.597	136
415.821	134
416.044	123
416.267	105
416.49	120
416.713	134
416.936	124
417.159	108
417.382	142
417.605	131
417.828	132
418.051	126
418.274	124
418.497	129
418.72	128
418.943	124
419.166	148
419.389	137
419.611	132
419.834	118
420.057	123
420.28	128
420.503	131
420.726	124
420.948	136
421.171	119
421.394	135
421.617	134
421.839	159
422.062	136
422.285	144
422.507	125
422.73	118
422.953	120
423.175	129
423.398	130
423.621	140
423.843	132
424.066	130
424.288	133
424.511	149
424.733	133
424.956	145
425.178	136
425.401	128
425.623	140
425.846	123
426.068	120
426.291	134
426.513	135
426.735	137
426.958	142
427.18	128
427.402	141
427.625	140
427.847	126
428.069	116
428.292	131
428.514	119
428.736	128
428.958	123
429.181	143
429.403	136
429.625	115
429.847	126
430.069	102
430.292	134
430.514	127
430.736	127
430.958	140
431.18	128
431.402	119
431.624	120
431.846	108
432.068	87
432.29	108
432.512	111
432.734	110
432.956	128
433.178	140
433.4	139
433.622	130
433.844	127
434.066	128
434.287	127
434.509	93
434.731	88
434.953	123
435.175	112
435.397	129
435.618	110
435.84	99
436.062	101
436.284	105
436.505	111
436.727	121
436.949	131
437.17	128
437.392	134
437.614	118
437.835	121
438.057	118
438.278	119
438.5	121
438.721	120
438.943	140
439.165	136
439.386	139
439.608	145
439.829	137
440.05	134
440.272	141
440.493	138
440.715	135
440.936	132
441.158	160
441.379	139
441.6	146
441.822	160
442.043	137
442.264	139
442.486	138
442.707	146
442.928	135
443.149	134
443.371	124
443.592	133
443.813	126
444.034	133
444.255	136
444.476	123
444.698	132
444.919	132
445.14	277
445.361	186
445.582	139
445.803	146
446.024	163
446.245	157
446.466	142
446.687	154
446.908	155
447.129	151
447.35	152
447.571	134
447.792	137
448.013	143
448.234	130
448.455	128
448.675	144
448.896	152
449.117	148
449.338	129
449.559	121
449.779	130
450	133
450.221	128
450.442	130
450.662	133
450.883	137
451.104	125
451.324	140
451.545	126
451.766	122
451.986	132
452.207	106
452.428	137
452.648	131
452.869	123
453.089	126
453.31	105
453.53	106
453.751	106
453.971	112
454.192	87
454.412	117
454.633	127
454.853	110
455.073	122
455.294	126
455.514	130
455.734	111
455.955	106
456.175	116
456.395	97
456.616	105
456.836	112
457.056	114
457.276	86
457.497	108
457.717	95
457.937	119
458.157	107
458.377	122
458.598	94
458.818	107
459.038	91
459.258	85
459.478	85
459.698	88
459.918	99
460.138	109
460.358	112
460.578	112
460.798	112
461.018	114
461.238	130
461.458	125
461.678	105
461.898	114
462.118	118
462.338	116
462.558	105
462.777	106
462.997	108
463.217	97
463.437	115
463.657	96
463.876	106
464.096	98
464.316	104
464.536	126
464.755	121
464.975	118
465.195	107
465.414	111
465.634	105
465.854	123
466.073	111
466.293	129
466.512	133
466.732	126
466.951	117
467.171	128
467.391	140
467.61	132
467.829	138
468.049	144
468.268	125
468.488	132
468.707	132
468.927	138
469.146	118
469.365	124
469.585	128
469.804	144
470.023	123
470.243	138
470.462	136
470.681	135
470.901	155
471.12	144
471.339	149
471.558	150
471.777	128
471.997	123
472.216	130
472.435	138
472.654	104
472.873	111
473.092	122
473.311	120
473.53	122
473.749	124
473.968	138
474.187	131
474.406	122
474.625	126
474.844	128
475.063	129
475.282	138
475.501	112
475.72	131
475.939	105
476.158	126
476.377	132
476.596	125
476.814	111
477.033	103
477.252	118
477.471	116
477.69	123
477.908	142
478.127	148
478.346	136
478.564	131
478.783	148
479.002	138
479.22	137
479.439	135
479.658	127
479.876	105
480.095	99
480.313	116
480.532	127
480.751	99
480.969	101
481.188	100
481.406	87
481.624	75
481.843	94
482.061	102
482.28	115
482.498	119
482.717	117
482.935	127
483.153	132
483.372	151
483.59	140
483.808	151
484.027	130
484.245	137
484.463	135
484.681	172
484.9	156
485.118	151
485.336	128
485.554	108
485.772	103
485.99	106
486.209	100
486.427	100
486.645	113
486.863	132
487.081	132
487.299	129
487.517	139
487.735	155
487.953	178
488.171	186
488.389	202
488.607	155
488.825	134
489.043	138
489.261	124
489.479	135
489.696	151
489.914	143
490.132	150
490.35	139
490.568	154
490.786	178
491.003	176
491.221	162
491.439	175
491.657	196
491.874	201
492.092	215
492.31	245
492.527	227
492.745	212
492.963	211
493.18	180
493.398	180
493.615	178
493.833	178
494.05	174
494.268	169
494.485	156
494.703	178
494.92	184
495.138	172
495.355	151
495.573	165
495.79	174
496.008	158
496.225	160
496.442	168
496.66	162
496.877	158
497.094	153
497.312	170
497.529	152
497.746	144
497.963	152
498.181	113
498.398	124
498.615	122
498.832	116
499.049	111
499.267	123
499.484	133
499.701	126
499.918	139
500.135	147
500.352	155
500.569	137
500.786	145
501.003	146
501.22	133
501.437	146
501.654	148
501.871	125
502.088	138
502.305	142
502.522	144
502.739	139
502.956	136
503.172	126
503.389	124
503.606	105
503.823	124
504.04	138
504.256	132
504.473	122
504.69	100
504.907	123
505.123	120
505.34	114
505.557	121
505.773	117
505.99	117
506.207	132
506.423	117
506.64	127
506.856	107
507.073	118
507.289	136
507.506	122
507.722	117
507.939	107
508.155	116
508.372	103
508.588	106
508.805	117
509.021	94
509.238	103
509.454	99
509.67	110
509.887	89
510.103	92
510.319	93
510.536	89
510.752	78
510.968	90
511.184	89
511.401	72
511.617	89
511.833	81
512.049	91
512.265	89
512.481	92
512.698	88
512.914	95
513.13	101
513.346	99
513.562	73
513.778	98
513.994	104
514.21	91
514.426	81
514.642	112
514.858	99
515.074	94
515.29	96
515.506	93
515.721	85
515.937	82
516.153	100
516.369	96
516.585	84
516.801	88
517.016	80
517.232	69
517.448	96
517.664	98
517.879	95
518.095	97
518.311	92
518.527	102
518.742	90
518.958	96
519.173	103
519.389	110
519.605	110
519.82	118
520.036	121
520.251	116
520.467	111
520.682	92
520.898	101
521.113	88
521.329	91
521.544	86
521.76	84
521.975	98
522.19	106
522.406	104
522.621	94
522.836	99
523.052	119
523.267	107
523.482	87
523.698	107
523.913	120
524.128	118
524.343	121
524.559	128
524.774	112
524.989	127
525.204	126
525.419	112
525.634	117
525.849	104
526.064	107
526.28	99
526.495	101
526.71	83
526.925	91
527.14	94
527.355	78
527.57	90
527.785	79
527.999	82
528.214	110
528.429	115
528.644	124
528.859	128
529.074	144
529.289	168
529.503	167
529.718	130
529.933	115
530.148	101
530.363	103
530.577	80
530.792	97
531.007	74
531.221	85
531.436	76
531.651	66
531.865	83
532.08	91
532.295	86
532.509	88
532.724	81
532.938	97
533.153	113
533.367	88
533.582	124
533.796	121
534.011	102
534.225	91
534.44	99
534.654	104
534.868	107
535.083	103
535.297	94
535.511	99
535.726	100
535.94	97
536.154	79
536.369	80
536.583	93
536.797	82
537.011	83
537.225	83
537.44	94
537.654	88
537.868	99
538.082	91
538.296	100
538.51	101
538.724	114
538.938	131
539.153	112
539.367	124
539.581	119
539.795	101
540.009	96
540.222	82
540.436	119
540.65	125
540.864	122
541.078	134
541.292	141
541.506	154
541.72	174
541.934	195
542.147	202
542.361	191
542.575	159
542.789	146
543.002	136
543.216	128
543.43	132
543.644	135
543.857	139
544.071	141
544.285	150
544.498	137
544.712	152
544.925	158
545.139	156
545.352	147
545.566	163
545.779	152
545.993	160
546.206	160
546.42	144
546.633	162
546.847	162
547.06	166
547.274	154
547.487	179
547.7	177
547.914	162
548.127	163
548.34	154
548.554	154
548.767	145
548.98	150
549.193	148
549.407	156
549.62	145
549.833	151
550.046	153
550.259	141
550.473	154
550.686	139
550.899	148
551.112	135
551.325	133
551.538	131
551.751	128
551.964	126
552.177	145
552.39	130
552.603	143
552.816	162
553.029	149
553.242	158
553.455	167
553.667	151
553.88	140
554.093	163
554.306	144
554.519	144
554.732	148
554.944	133
555.157	162
555.37	152
555.583	152
555.795	146
556.008	125
556.221	121
556.433	132
556.646	121
556.859	147
557.071	122
557.284	130
557.496	138
557.709	145
557.921	125
558.134	138
558.346	138
558.559	121
558.771	122
558.984	138
559.196	123
559.409	122
559.621	126
559.833	125
560.046	121
560.258	137
560.47	139
560.683	124
560.895	138
561.107	118
561.32	126
561.532	124
561.744	119
561.956	127
562.168	130
562.381	120
562.593	128
562.805	117
563.017	120
563.229	136
563.441	111
563.653	118
563.865	132
564.077	111
564.289	124
564.501	119
564.713	119
564.925	131
565.137	120
565.349	126
565.561	114
565.773	115
565.985	118
566.197	112
566.408	106
566.62	114
566.832	114
567.044	127
567.255	100
567.467	108
567.679	116
567.891	96
568.102	101
568.314	95
568.526	85
568.737	87
568.949	70
569.161	86
569.372	89
569.584	77
569.795	89
570.007	82
570.218	82
570.43	84
570.641	96
570.853	87
571.064	97
571.276	102
571.487	108
571.698	97
571.91	98
572.121	100
572.333	94
572.544	98
572.755	90
572.966	90
573.178	70
573.389	81
573.6	84
573.811	81
574.023	86
574.234	100
574.445	100
574.656	94
574.867	87
575.078	96
575.289	81
575.501	102
575.712	91
575.923	99
576.134	102
576.345	97
576.556	90
576.767	103
576.978	112
577.188	110
577.399	104
577.61	94
577.821	97
578.032	98
578.243	103
578.454	79
578.665	101
578.875	85
579.086	90
579.297	81
579.508	89
579.718	110
579.929	78
580.14	81
580.35	72
580.561	88
580.772	90
580.982	88
581.193	96
581.403	94
581.614	94
581.825	90
582.035	90
582.246	91
582.456	88
582.667	93
582.877	100
583.087	86
583.298	98
583.508	100
583.719	88
583.929	98
584.139	84
584.35	71
584.56	58
584.77	76
584.981	77
585.191	88
585.401	98
585.611	89
585.821	96
586.032	87
586.242	94
586.452	83
586.662	89
586.872	89
587.082	86
587.292	83
587.502	105
587.713	74
587.923	71
588.133	77
588.343	84
588.553	83
588.762	87
588.972	80
589.182	80
589.392	82
589.602	73
589.812	87
590.022	98
590.232	91
590.441	95
590.651	89
590.861	86
591.071	82
591.281	74
591.49	82
591.7	86
591.91	97
592.119	84
592.329	81
592.539	86
592.748	89
592.958	87
593.167	91
593.377	84
593.587	103
593.796	87
594.006	85
594.215	80
594.424	88
594.634	97
594.843	91
595.053	99
595.262	92
595.472	100
595.681	88
595.89	89
596.1	91
596.309	95
596.518	96
596.727	100
596.937	99
597.146	88
597.355	97
597.564	94
597.774	102
597.983	96
598.192	95
598.401	84
598.61	80
598.819	95
599.028	97
599.237	87
599.446	85
599.655	84
599.864	91
600.073	94
600.282	85
600.491	97
600.7	104
600.909	95
601.118	90
601.327	95
601.536	96
601.745	91
601.953	110
602.162	98
602.371	95
602.58	92
602.789	103
602.997	119
603.206	116
603.415	116
603.623	115
603.832	118
604.041	93
604.249	114
604.458	106
604.666	96
604.875	110
605.084	96
605.292	121
605.501	118
605.709	111
605.918	100
606.126	103
606.334	115
606.543	100
606.751	118
606.96	110
607.168	110
607.376	114
607.585	107
607.793	110
608.001	100
608.21	110
608.418	113
608.626	107
608.834	121
609.043	104
609.251	96
609.459	115
609.667	125
609.875	119
610.083	126
610.291	114
610.499	113
610.707	112
610.916	107
611.124	111
611.332	102
611.54	105
611.748	123
611.955	116
612.163	115
612.371	106
612.579	105
612.787	118
612.995	114
613.203	126
613.411	99
613.618	93
613.826	108
614.034	109
614.242	101
614.449	126
614.657	113
614.865	102
615.072	112
615.28	116
615.488	115
615.695	121
615.903	121
616.111	111
616.318	112
616.526	110
616.733	122
616.941	112
617.148	130
617.356	102
617.563	108
617.771	117
617.978	115
618.185	125
618.393	123
618.6	109
618.807	117
619.015	108
619.222	102
619.429	98
619.637	110
619.844	97
620.051	113
620.258	101
620.466	103
620.673	102
620.88	118
621.087	106
621.294	93
621.501	100
621.708	91
621.915	97
622.122	114
622.329	100
622.536	92
622.743	104
622.95	105
623.157	90
623.364	103
623.571	110
623.778	110
623.985	100
624.192	96
624.399	115
624.606	111
624.812	101
625.019	98
625.226	106
625.433	115
625.639	96
625.846	89
626.053	99
626.259	91
626.466	100
626.673	97
626.879	102
627.086	113
627.293	101
627.499	106
627.706	99
627.912	102
628.119	108
628.325	107
628.532	94
628.738	101
628.945	111
629.151	101
629.357	90
629.564	111
629.77	110
629.976	94
630.183	101
630.389	95
630.595	93
630.802	96
631.008	102
631.214	105
631.42	118
631.627	97
631.833	98
632.039	82
632.245	103
632.451	95
632.657	98
632.863	111
633.069	109
633.275	102
633.481	106
633.688	87
633.893	102
634.099	99
634.305	100
634.511	105
634.717	100
634.923	94
635.129	110
635.335	104
635.541	84
635.747	98
635.952	102
636.158	97
636.364	105
636.57	96
636.775	102
636.981	109
637.187	103
637.392	100
637.598	95
637.804	102
638.009	96
638.215	107
638.421	96
638.626	97
638.832	96
639.037	114
639.243	112
639.448	97
639.654	102
639.859	91
640.065	107
640.27	96
640.475	98
640.681	95
640.886	101
641.091	117
641.297	94
641.502	102
641.707	110
641.913	96
642.118	89
642.323	96
642.528	100
642.733	94
642.939	83
643.144	101
643.349	88
643.554	114
643.759	93
643.964	82
644.169	105
644.374	97
644.579	98
644.784	97
644.989	101
645.194	102
645.399	96
645.604	94
645.809	102
646.014	103
646.219	95
646.423	103
646.628	104
646.833	89
647.038	104
647.243	92
647.447	107
647.652	103
647.857	92
648.062	101
648.266	105
648.471	98
648.676	101
648.88	107
649.085	75
649.289	95
649.494	92
649.698	104
649.903	91
650.107	91
650.312	105
650.516	98
650.721	100
650.925	98
651.13	99
651.334	97
651.539	89
651.743	108
651.947	110
652.152	94
652.356	108
652.56	98
652.764	94
652.969	88
653.173	90
653.377	91
653.581	86
653.785	72
653.99	106
654.194	99
654.398	90
654.602	95
654.806	97
655.01	93
655.214	91
655.418	97
655.622	99
655.826	94
656.03	91
656.234	94
656.438	93
656.642	77
656.846	83
657.049	85
657.253	98
657.457	93
657.661	82
657.865	91
658.068	96
658.272	83
658.476	95
658.68	97
658.883	86
659.087	94
659.291	103
659.494	82
659.698	78
659.901	87
660.105	82
660.309	87
660.512	68
660.716	80
660.919	85
661.123	85
661.326	70
661.53	76
661.733	91
661.936	84
662.14	83
662.343	79
662.546	79
662.75	86
662.953	91
663.156	86
663.36	80
663.563	95
663.766	82
663.969	79
664.173	87
664.376	76
664.579	92
664.782	84
664.985	86
665.188	87
665.391	98
665.594	93
665.797	76
666	71
666.203	77
666.406	79
666.609	101
666.812	83
667.015	82
667.218	80
667.421	99
667.624	94
667.827	75
668.03	67
668.232	69
668.435	90
668.638	80
668.841	88
669.043	90
669.246	90
669.449	82
669.651	84
669.854	89
670.057	78
670.259	84
670.462	95
670.665	91
670.867	84
671.07	88
671.272	85
671.475	87
671.677	84
671.88	81
672.082	86
672.284	81
672.487	91
672.689	85
672.892	70
