Data from 1980.PennyLincolnUp.Lamp.En5.5.200Scan.071819.P1_HRD10591_16-36-20-956.txt Node
Date: Thu Jul 18 16:36:20 EDT 2019
User: cochatt
Spectrometer: HR+D1059
Trigger mode: 1
Integration Time (sec): 1.000000E-1
Scans to average: 1
Electric dark correction enabled: true
Nonlinearity correction enabled: false
Boxcar width: 0
XAxis mode: Wavelengths
Number of Pixels in Spectrum: 2048
>>>>>Begin Spectral Data<<<<<
223.165	-7.81
223.4	-7.81
223.635	-7.81
223.869	-11.81
224.104	-26.81
224.338	-8.81
224.573	-13.81
224.808	-13.81
225.042	-6.81
225.277	-7.81
225.511	-11.81
225.746	-10.81
225.98	9.19
226.215	10.19
226.449	18.19
226.683	7.19
226.918	31.19
227.152	44.19
227.387	47.19
227.621	46.19
227.856	52.19
228.09	58.19
228.324	43.19
228.559	54.19
228.793	72.19
229.027	82.19
229.262	88.19
229.496	94.19
229.73	119.19
229.964	130.19
230.199	133.19
230.433	103.19
230.667	90.19
230.901	105.19
231.136	105.19
231.37	109.19
231.604	103.19
231.838	114.19
232.072	102.19
232.306	109.19
232.541	106.19
232.775	104.19
233.009	88.19
233.243	107.19
233.477	102.19
233.711	106.19
233.945	107.19
234.179	98.19
234.413	102.19
234.647	115.19
234.881	97.19
235.115	115.19
235.349	101.19
235.583	99.19
235.817	100.19
236.051	128.19
236.285	114.19
236.519	108.19
236.753	124.19
236.987	137.19
237.221	157.19
237.455	185.19
237.689	168.19
237.922	123.19
238.156	131.19
238.39	121.19
238.624	110.19
238.858	103.19
239.091	99.19
239.325	108.19
239.559	116.19
239.793	122.19
240.027	114.19
240.26	126.19
240.494	135.19
240.728	141.19
240.961	150.19
241.195	118.19
241.429	146.19
241.662	122.19
241.896	126.19
242.13	132.19
242.363	124.19
242.597	119.19
242.83	126.19
243.064	106.19
243.298	126.19
243.531	124.19
243.765	119.19
243.998	130.19
244.232	138.19
244.465	133.19
244.699	141.19
244.932	131.19
245.166	131.19
245.399	141.19
245.633	140.19
245.866	141.19
246.099	126.19
246.333	134.19
246.566	134.19
246.8	149.19
247.033	142.19
247.266	147.19
247.5	159.19
247.733	142.19
247.966	160.19
248.2	156.19
248.433	157.19
248.666	152.19
248.899	162.19
249.133	173.19
249.366	171.19
249.599	185.19
249.832	176.19
250.066	158.19
250.299	147.19
250.532	173.19
250.765	176.19
250.998	217.19
251.231	201.19
251.465	199.19
251.698	195.19
251.931	170.19
252.164	166.19
252.397	178.19
252.63	201.19
252.863	184.19
253.096	180.19
253.329	209.19
253.562	205.19
253.795	197.19
254.028	197.19
254.261	199.19
254.494	207.19
254.727	219.19
254.96	245.19
255.193	234.19
255.426	221.19
255.659	219.19
255.892	204.19
256.124	176.19
256.357	196.19
256.59	185.19
256.823	185.19
257.056	200.19
257.289	203.19
257.521	176.19
257.754	174.19
257.987	194.19
258.22	180.19
258.452	191.19
258.685	174.19
258.918	187.19
259.151	180.19
259.383	187.19
259.616	183.19
259.849	181.19
260.081	191.19
260.314	237.19
260.547	216.19
260.779	216.19
261.012	219.19
261.244	210.19
261.477	189.19
261.71	202.19
261.942	221.19
262.175	219.19
262.407	192.19
262.64	185.19
262.872	183.19
263.105	173.19
263.337	175.19
263.57	198.19
263.802	181.19
264.035	184.19
264.267	187.19
264.499	188.19
264.732	182.19
264.964	182.19
265.197	171.19
265.429	174.19
265.661	181.19
265.894	180.19
266.126	174.19
266.358	196.19
266.591	193.19
266.823	197.19
267.055	196.19
267.287	197.19
267.52	199.19
267.752	189.19
267.984	188.19
268.216	208.19
268.448	201.19
268.681	208.19
268.913	191.19
269.145	222.19
269.377	233.19
269.609	225.19
269.841	210.19
270.073	222.19
270.306	239.19
270.538	268.19
270.77	262.19
271.002	248.19
271.234	254.19
271.466	240.19
271.698	249.19
271.93	254.19
272.162	269.19
272.394	264.19
272.626	256.19
272.858	240.19
273.09	244.19
273.322	217.19
273.553	213.19
273.785	235.19
274.017	223.19
274.249	219.19
274.481	215.19
274.713	217.19
274.945	226.19
275.176	208.19
275.408	203.19
275.64	214.19
275.872	210.19
276.104	227.19
276.335	212.19
276.567	213.19
276.799	231.19
277.031	236.19
277.262	263.19
277.494	258.19
277.726	242.19
277.957	236.19
278.189	222.19
278.421	232.19
278.652	210.19
278.884	235.19
279.115	211.19
279.347	216.19
279.579	219.19
279.81	211.19
280.042	205.19
280.273	212.19
280.505	221.19
280.736	213.19
280.968	194.19
281.199	206.19
281.431	214.19
281.662	219.19
281.894	204.19
282.125	218.19
282.356	222.19
282.588	245.19
282.819	248.19
283.051	243.19
283.282	200.19
283.513	216.19
283.745	207.19
283.976	201.19
284.207	212.19
284.439	237.19
284.67	226.19
284.901	223.19
285.132	216.19
285.364	210.19
285.595	218.19
285.826	216.19
286.057	199.19
286.288	214.19
286.52	202.19
286.751	231.19
286.982	215.19
287.213	208.19
287.444	220.19
287.675	207.19
287.906	225.19
288.138	223.19
288.369	234.19
288.6	231.19
288.831	232.19
289.062	235.19
289.293	218.19
289.524	222.19
289.755	238.19
289.986	215.19
290.217	228.19
290.448	220.19
290.679	215.19
290.91	223.19
291.141	226.19
291.371	238.19
291.602	229.19
291.833	234.19
292.064	223.19
292.295	242.19
292.526	218.19
292.757	206.19
292.987	216.19
293.218	226.19
293.449	203.19
293.68	226.19
293.91	226.19
294.141	228.19
294.372	228.19
294.603	216.19
294.833	223.19
295.064	226.19
295.295	226.19
295.525	235.19
295.756	235.19
295.987	238.19
296.217	225.19
296.448	258.19
296.679	252.19
296.909	242.19
297.14	213.19
297.37	228.19
297.601	223.19
297.831	228.19
298.062	218.19
298.292	242.19
298.523	243.19
298.753	226.19
298.984	232.19
299.214	227.19
299.445	246.19
299.675	240.19
299.905	244.19
300.136	253.19
300.366	222.19
300.597	247.19
300.827	237.19
301.057	239.19
301.288	240.19
301.518	238.19
301.748	257.19
301.979	248.19
302.209	246.19
302.439	265.19
302.669	242.19
302.9	251.19
303.13	250.19
303.36	248.19
303.59	236.19
303.82	251.19
304.051	263.19
304.281	254.19
304.511	248.19
304.741	248.19
304.971	253.19
305.201	250.19
305.431	247.19
305.661	258.19
305.891	253.19
306.121	261.19
306.352	254.19
306.582	238.19
306.812	242.19
307.042	254.19
307.272	253.19
307.502	263.19
307.731	248.19
307.961	250.19
308.191	260.19
308.421	256.19
308.651	250.19
308.881	270.19
309.111	263.19
309.341	258.19
309.571	275.19
309.8	271.19
310.03	268.19
310.26	288.19
310.49	292.19
310.72	295.19
310.949	298.19
311.179	318.19
311.409	312.19
311.639	287.19
311.868	307.19
312.098	274.19
312.328	295.19
312.557	314.19
312.787	315.19
313.017	311.19
313.246	320.19
313.476	301.19
313.706	286.19
313.935	283.19
314.165	298.19
314.394	301.19
314.624	311.19
314.853	298.19
315.083	283.19
315.312	281.19
315.542	287.19
315.771	274.19
316.001	276.19
316.23	284.19
316.46	298.19
316.689	300.19
316.919	303.19
317.148	307.19
317.377	316.19
317.607	296.19
317.836	290.19
318.065	302.19
318.295	269.19
318.524	286.19
318.753	297.19
318.983	271.19
319.212	293.19
319.441	293.19
319.67	308.19
319.9	293.19
320.129	300.19
320.358	292.19
320.587	302.19
320.816	296.19
321.046	291.19
321.275	323.19
321.504	307.19
321.733	323.19
321.962	320.19
322.191	312.19
322.42	315.19
322.649	338.19
322.878	333.19
323.108	360.19
323.337	388.19
323.566	391.19
323.795	423.19
324.024	453.19
324.253	529.19
324.482	752.19
324.71	1123.19
324.939	1655.19
325.168	1482.19
325.397	781.19
325.626	535.19
325.855	428.19
326.084	382.19
326.313	398.19
326.542	398.19
326.77	436.19
326.999	483.19
327.228	675.19
327.457	997.19
327.686	1237.19
327.914	873.19
328.143	555.19
328.372	494.19
328.6	474.19
328.829	452.19
329.058	459.19
329.287	454.19
329.515	418.19
329.744	418.19
329.972	373.19
330.201	378.19
330.43	435.19
330.658	438.19
330.887	440.19
331.115	446.19
331.344	397.19
331.572	372.19
331.801	382.19
332.03	381.19
332.258	354.19
332.486	345.19
332.715	355.19
332.943	336.19
333.172	338.19
333.4	342.19
333.629	348.19
333.857	351.19
334.085	345.19
334.314	370.19
334.542	372.19
334.771	384.19
334.999	362.19
335.227	340.19
335.455	315.19
335.684	335.19
335.912	346.19
336.14	326.19
336.369	318.19
336.597	362.19
336.825	331.19
337.053	342.19
337.281	311.19
337.51	324.19
337.738	342.19
337.966	327.19
338.194	342.19
338.422	329.19
338.65	328.19
338.878	320.19
339.106	312.19
339.334	326.19
339.562	344.19
339.79	339.19
340.018	327.19
340.246	324.19
340.474	342.19
340.702	308.19
340.93	314.19
341.158	329.19
341.386	338.19
341.614	337.19
341.842	318.19
342.07	318.19
342.298	329.19
342.526	312.19
342.754	319.19
342.981	311.19
343.209	293.19
343.437	311.19
343.665	314.19
343.893	323.19
344.12	334.19
344.348	318.19
344.576	320.19
344.804	341.19
345.031	333.19
345.259	328.19
345.487	338.19
345.714	326.19
345.942	323.19
346.17	328.19
346.397	322.19
346.625	328.19
346.853	320.19
347.08	291.19
347.308	301.19
347.535	337.19
347.763	328.19
347.99	330.19
348.218	321.19
348.445	340.19
348.673	334.19
348.9	308.19
349.128	310.19
349.355	312.19
349.583	307.19
349.81	307.19
350.037	320.19
350.265	311.19
350.492	324.19
350.72	316.19
350.947	299.19
351.174	328.19
351.402	326.19
351.629	335.19
351.856	339.19
352.083	329.19
352.311	319.19
352.538	317.19
352.765	317.19
352.992	315.19
353.22	321.19
353.447	316.19
353.674	316.19
353.901	328.19
354.128	320.19
354.355	308.19
354.583	319.19
354.81	294.19
355.037	302.19
355.264	299.19
355.491	279.19
355.718	283.19
355.945	299.19
356.172	296.19
356.399	290.19
356.626	294.19
356.853	285.19
357.08	295.19
357.307	306.19
357.534	295.19
357.761	295.19
357.988	295.19
358.215	288.19
358.441	302.19
358.668	299.19
358.895	297.19
359.122	306.19
359.349	326.19
359.576	311.19
359.802	341.19
360.029	359.19
360.256	355.19
360.483	352.19
360.709	345.19
360.936	347.19
361.163	341.19
361.39	329.19
361.616	318.19
361.843	327.19
362.07	345.19
362.296	314.19
362.523	331.19
362.749	322.19
362.976	318.19
363.203	307.19
363.429	302.19
363.656	317.19
363.882	316.19
364.109	318.19
364.335	307.19
364.562	320.19
364.788	292.19
365.015	314.19
365.241	312.19
365.468	321.19
365.694	320.19
365.92	322.19
366.147	326.19
366.373	313.19
366.599	298.19
366.826	295.19
367.052	309.19
367.278	314.19
367.505	322.19
367.731	311.19
367.957	290.19
368.184	292.19
368.41	316.19
368.636	308.19
368.862	323.19
369.089	314.19
369.315	302.19
369.541	300.19
369.767	310.19
369.993	310.19
370.219	324.19
370.445	299.19
370.672	314.19
370.898	312.19
371.124	309.19
371.35	302.19
371.576	308.19
371.802	300.19
372.028	308.19
372.254	299.19
372.48	306.19
372.706	310.19
372.932	309.19
373.158	309.19
373.384	303.19
373.61	316.19
373.835	308.19
374.061	313.19
374.287	310.19
374.513	299.19
374.739	291.19
374.965	311.19
375.191	300.19
375.416	315.19
375.642	298.19
375.868	310.19
376.094	312.19
376.319	327.19
376.545	321.19
376.771	303.19
376.997	280.19
377.222	314.19
377.448	308.19
377.674	306.19
377.899	292.19
378.125	295.19
378.35	312.19
378.576	310.19
378.802	303.19
379.027	290.19
379.253	308.19
379.478	291.19
379.704	290.19
379.929	314.19
380.155	321.19
380.38	318.19
380.606	289.19
380.831	304.19
381.057	325.19
381.282	312.19
381.507	312.19
381.733	310.19
381.958	302.19
382.184	306.19
382.409	318.19
382.634	311.19
382.86	299.19
383.085	330.19
383.31	336.19
383.535	278.19
383.761	302.19
383.986	314.19
384.211	307.19
384.436	326.19
384.662	312.19
384.887	318.19
385.112	320.19
385.337	331.19
385.562	329.19
385.787	316.19
386.013	336.19
386.238	337.19
386.463	338.19
386.688	330.19
386.913	319.19
387.138	323.19
387.363	326.19
387.588	330.19
387.813	349.19
388.038	317.19
388.263	307.19
388.488	317.19
388.713	321.19
388.938	311.19
389.163	331.19
389.387	318.19
389.612	323.19
389.837	318.19
390.062	332.19
390.287	313.19
390.512	299.19
390.736	322.19
390.961	336.19
391.186	310.19
391.411	331.19
391.636	336.19
391.86	335.19
392.085	330.19
392.31	334.19
392.534	335.19
392.759	319.19
392.984	303.19
393.208	335.19
393.433	335.19
393.658	330.19
393.882	310.19
394.107	344.19
394.331	316.19
394.556	332.19
394.78	335.19
395.005	324.19
395.229	306.19
395.454	334.19
395.678	341.19
395.903	343.19
396.127	364.19
396.352	363.19
396.576	334.19
396.801	344.19
397.025	337.19
397.249	347.19
397.474	336.19
397.698	355.19
397.922	358.19
398.147	365.19
398.371	384.19
398.595	377.19
398.82	349.19
399.044	365.19
399.268	357.19
399.492	386.19
399.717	401.19
399.941	417.19
400.165	433.19
400.389	444.19
400.613	414.19
400.837	379.19
401.062	390.19
401.286	388.19
401.51	351.19
401.734	370.19
401.958	380.19
402.182	389.19
402.406	383.19
402.63	367.19
402.854	356.19
403.078	376.19
403.302	363.19
403.526	388.19
403.75	382.19
403.974	379.19
404.198	383.19
404.422	374.19
404.645	394.19
404.869	383.19
405.093	412.19
405.317	435.19
405.541	475.19
405.765	426.19
405.988	391.19
406.212	394.19
406.436	422.19
406.66	430.19
406.883	412.19
407.107	430.19
407.331	461.19
407.555	501.19
407.778	502.19
408.002	468.19
408.226	416.19
408.449	432.19
408.673	415.19
408.896	437.19
409.12	471.19
409.344	458.19
409.567	414.19
409.791	397.19
410.014	380.19
410.238	375.19
410.461	374.19
410.685	390.19
410.908	406.19
411.132	432.19
411.355	445.19
411.578	432.19
411.802	372.19
412.025	396.19
412.249	384.19
412.472	398.19
412.695	426.19
412.919	397.19
413.142	419.19
413.365	359.19
413.589	382.19
413.812	363.19
414.035	364.19
414.258	371.19
414.482	364.19
414.705	350.19
414.928	348.19
415.151	366.19
415.374	365.19
415.597	343.19
415.821	347.19
416.044	364.19
416.267	367.19
416.49	352.19
416.713	348.19
416.936	383.19
417.159	379.19
417.382	345.19
417.605	365.19
417.828	379.19
418.051	380.19
418.274	380.19
418.497	362.19
418.72	377.19
418.943	368.19
419.166	372.19
419.389	388.19
419.611	384.19
419.834	362.19
420.057	374.19
420.28	383.19
420.503	362.19
420.726	381.19
420.948	402.19
421.171	436.19
421.394	455.19
421.617	411.19
421.839	403.19
422.062	398.19
422.285	388.19
422.507	432.19
422.73	502.19
422.953	478.19
423.175	442.19
423.398	390.19
423.621	407.19
423.843	423.19
424.066	423.19
424.288	428.19
424.511	440.19
424.733	480.19
424.956	565.19
425.178	526.19
425.401	512.19
425.623	545.19
425.846	455.19
426.068	419.19
426.291	413.19
426.513	431.19
426.735	437.19
426.958	473.19
427.18	532.19
427.402	634.19
427.625	677.19
427.847	601.19
428.069	516.19
428.292	456.19
428.514	417.19
428.736	407.19
428.958	412.19
429.181	382.19
429.403	382.19
429.625	390.19
429.847	435.19
430.069	486.19
430.292	483.19
430.514	420.19
430.736	395.19
430.958	378.19
431.18	376.19
431.402	360.19
431.624	376.19
431.846	361.19
432.068	370.19
432.29	374.19
432.512	379.19
432.734	365.19
432.956	380.19
433.178	374.19
433.4	394.19
433.622	398.19
433.844	373.19
434.066	379.19
434.287	348.19
434.509	362.19
434.731	388.19
434.953	386.19
435.175	383.19
435.397	418.19
435.618	431.19
435.84	456.19
436.062	532.19
436.284	571.19
436.505	507.19
436.727	442.19
436.949	423.19
437.17	396.19
437.392	400.19
437.614	407.19
437.835	447.19
438.057	549.19
438.278	605.19
438.5	581.19
438.721	643.19
438.943	613.19
439.165	476.19
439.386	438.19
439.608	455.19
439.829	452.19
440.05	443.19
440.272	498.19
440.493	476.19
440.715	432.19
440.936	410.19
441.158	398.19
441.379	385.19
441.6	399.19
441.822	407.19
442.043	459.19
442.264	528.19
442.486	569.19
442.707	477.19
442.928	437.19
443.149	426.19
443.371	471.19
443.592	508.19
443.813	583.19
444.034	596.19
444.255	512.19
444.476	431.19
444.698	429.19
444.919	439.19
445.14	485.19
445.361	463.19
445.582	451.19
445.803	518.19
446.024	587.19
446.245	584.19
446.466	559.19
446.687	457.19
446.908	452.19
447.129	423.19
447.35	402.19
447.571	394.19
447.792	390.19
448.013	397.19
448.234	430.19
448.455	450.19
448.675	537.19
448.896	628.19
449.117	543.19
449.338	521.19
449.559	601.19
449.779	662.19
450	530.19
450.221	451.19
450.442	386.19
450.662	389.19
450.883	403.19
451.104	423.19
451.324	398.19
451.545	379.19
451.766	366.19
451.986	356.19
452.207	351.19
452.428	347.19
452.648	366.19
452.869	362.19
453.089	360.19
453.31	382.19
453.53	396.19
453.751	355.19
453.971	350.19
454.192	374.19
454.412	356.19
454.633	351.19
454.853	355.19
455.073	341.19
455.294	382.19
455.514	455.19
455.734	402.19
455.955	370.19
456.175	367.19
456.395	337.19
456.616	328.19
456.836	336.19
457.056	332.19
457.276	331.19
457.497	343.19
457.717	362.19
457.937	345.19
458.157	344.19
458.377	346.19
458.598	343.19
458.818	407.19
459.038	479.19
459.258	481.19
459.478	414.19
459.698	381.19
459.918	375.19
460.138	337.19
460.358	357.19
460.578	365.19
460.798	333.19
461.018	378.19
461.238	374.19
461.458	346.19
461.678	363.19
461.898	362.19
462.118	355.19
462.338	373.19
462.558	372.19
462.777	378.19
462.997	376.19
463.217	376.19
463.437	382.19
463.657	365.19
463.876	375.19
464.096	388.19
464.316	382.19
464.536	386.19
464.755	386.19
464.975	387.19
465.195	423.19
465.414	490.19
465.634	443.19
465.854	402.19
466.073	357.19
466.293	366.19
466.512	353.19
466.732	360.19
466.951	348.19
467.171	349.19
467.391	352.19
467.61	360.19
467.829	362.19
468.049	366.19
468.268	354.19
468.488	339.19
468.707	355.19
468.927	340.19
469.146	338.19
469.365	340.19
469.585	331.19
469.804	351.19
470.023	362.19
470.243	366.19
470.462	390.19
470.681	381.19
470.901	374.19
471.12	359.19
471.339	367.19
471.558	372.19
471.777	374.19
471.997	351.19
472.216	354.19
472.435	372.19
472.654	352.19
472.873	358.19
473.092	367.19
473.311	367.19
473.53	363.19
473.749	349.19
473.968	366.19
474.187	491.19
474.406	479.19
474.625	418.19
474.844	388.19
475.063	366.19
475.282	368.19
475.501	375.19
475.72	382.19
475.939	376.19
476.158	366.19
476.377	370.19
476.596	367.19
476.814	377.19
477.033	387.19
477.252	386.19
477.471	367.19
477.69	385.19
477.908	397.19
478.127	399.19
478.346	384.19
478.564	406.19
478.783	403.19
479.002	409.19
479.22	403.19
479.439	422.19
479.658	428.19
479.876	423.19
480.095	420.19
480.313	438.19
480.532	438.19
480.751	422.19
480.969	439.19
481.188	466.19
481.406	487.19
481.624	470.19
481.843	440.19
482.061	430.19
482.28	420.19
482.498	425.19
482.717	439.19
482.935	424.19
483.153	411.19
483.372	434.19
483.59	410.19
483.808	420.19
484.027	414.19
484.245	427.19
484.463	429.19
484.681	436.19
484.9	420.19
485.118	443.19
485.336	424.19
485.554	447.19
485.772	431.19
485.99	442.19
486.209	430.19
486.427	448.19
486.645	446.19
486.863	467.19
487.081	466.19
487.299	457.19
487.517	463.19
487.735	439.19
487.953	460.19
488.171	477.19
488.389	444.19
488.607	477.19
488.825	468.19
489.043	464.19
489.261	462.19
489.479	479.19
489.696	484.19
489.914	470.19
490.132	474.19
490.35	485.19
490.568	485.19
490.786	506.19
491.003	506.19
491.221	501.19
491.439	510.19
491.657	525.19
491.874	517.19
492.092	526.19
492.31	537.19
492.527	526.19
492.745	532.19
492.963	530.19
493.18	544.19
493.398	542.19
493.615	532.19
493.833	533.19
494.05	559.19
494.268	532.19
494.485	538.19
494.703	541.19
494.92	550.19
495.138	543.19
495.355	564.19
495.573	558.19
495.79	546.19
496.008	543.19
496.225	575.19
496.442	563.19
496.66	537.19
496.877	563.19
497.094	538.19
497.312	579.19
497.529	555.19
497.746	562.19
497.963	564.19
498.181	580.19
498.398	582.19
498.615	602.19
498.832	568.19
499.049	584.19
499.267	583.19
499.484	619.19
499.701	640.19
499.918	644.19
500.135	662.19
500.352	655.19
500.569	694.19
500.786	716.19
501.003	679.19
501.22	686.19
501.437	676.19
501.654	669.19
501.871	662.19
502.088	634.19
502.305	616.19
502.522	609.19
502.739	588.19
502.956	568.19
503.172	582.19
503.389	550.19
503.606	556.19
503.823	566.19
504.04	559.19
504.256	537.19
504.473	540.19
504.69	560.19
504.907	553.19
505.123	536.19
505.34	532.19
505.557	550.19
505.773	524.19
505.99	527.19
506.207	515.19
506.423	501.19
506.64	521.19
506.856	526.19
507.073	541.19
507.289	515.19
507.506	508.19
507.722	510.19
507.939	534.19
508.155	530.19
508.372	502.19
508.588	518.19
508.805	519.19
509.021	527.19
509.238	509.19
509.454	526.19
509.67	522.19
509.887	503.19
510.103	517.19
510.319	542.19
510.536	607.19
510.752	956.19
510.968	819.19
511.184	534.19
511.401	507.19
511.617	507.19
511.833	500.19
512.049	472.19
512.265	483.19
512.481	476.19
512.698	482.19
512.914	489.19
513.13	471.19
513.346	467.19
513.562	466.19
513.778	489.19
513.994	485.19
514.21	514.19
514.426	501.19
514.642	550.19
514.858	572.19
515.074	607.19
515.29	718.19
515.506	1035.19
515.721	869.19
515.937	608.19
516.153	541.19
516.369	518.19
516.585	495.19
516.801	474.19
517.016	475.19
517.232	483.19
517.448	501.19
517.664	491.19
517.879	494.19
518.095	485.19
518.311	481.19
518.527	477.19
518.742	472.19
518.958	465.19
519.173	474.19
519.389	463.19
519.605	481.19
519.82	463.19
520.036	474.19
520.251	488.19
520.467	530.19
520.682	536.19
520.898	527.19
521.113	554.19
521.329	581.19
521.544	639.19
521.76	815.19
521.975	1380.19
522.19	1382.19
522.406	735.19
522.621	565.19
522.836	510.19
523.052	486.19
523.267	463.19
523.482	456.19
523.698	445.19
523.913	447.19
524.128	442.19
524.343	429.19
524.559	438.19
524.774	413.19
524.989	402.19
525.204	415.19
525.419	431.19
525.634	420.19
525.849	397.19
526.064	396.19
526.28	417.19
526.495	394.19
526.71	402.19
526.925	406.19
527.14	387.19
527.355	383.19
527.57	400.19
527.785	398.19
527.999	394.19
528.214	395.19
528.429	372.19
528.644	383.19
528.859	408.19
529.074	402.19
529.289	408.19
529.503	490.19
529.718	483.19
529.933	406.19
530.148	401.19
530.363	390.19
530.577	380.19
530.792	382.19
531.007	378.19
531.221	387.19
531.436	374.19
531.651	387.19
531.865	372.19
532.08	379.19
532.295	373.19
532.509	363.19
532.724	360.19
532.938	372.19
533.153	370.19
533.367	383.19
533.582	372.19
533.796	371.19
534.011	378.19
534.225	372.19
534.44	375.19
534.654	365.19
534.868	354.19
535.083	384.19
535.297	390.19
535.511	386.19
535.726	394.19
535.94	397.19
536.154	370.19
536.369	370.19
536.583	361.19
536.797	360.19
537.011	366.19
537.225	362.19
537.44	359.19
537.654	357.19
537.868	357.19
538.082	374.19
538.296	362.19
538.51	345.19
538.724	370.19
538.938	350.19
539.153	376.19
539.367	377.19
539.581	364.19
539.795	370.19
540.009	371.19
540.222	357.19
540.436	386.19
540.65	354.19
540.864	370.19
541.078	363.19
541.292	372.19
541.506	377.19
541.72	359.19
541.934	354.19
542.147	347.19
542.361	363.19
542.575	360.19
542.789	367.19
543.002	383.19
543.216	374.19
543.43	364.19
543.644	367.19
543.857	378.19
544.071	349.19
544.285	367.19
544.498	371.19
544.712	346.19
544.925	353.19
545.139	350.19
545.352	346.19
545.566	351.19
545.779	349.19
545.993	356.19
546.206	365.19
546.42	340.19
546.633	350.19
546.847	336.19
547.06	346.19
547.274	348.19
547.487	331.19
547.7	373.19
547.914	347.19
548.127	342.19
548.34	336.19
548.554	342.19
548.767	357.19
548.98	345.19
549.193	347.19
549.407	341.19
549.62	344.19
549.833	364.19
550.046	354.19
550.259	340.19
550.473	348.19
550.686	351.19
550.899	342.19
551.112	318.19
551.325	335.19
551.538	324.19
551.751	328.19
551.964	340.19
552.177	350.19
552.39	345.19
552.603	343.19
552.816	354.19
553.029	341.19
553.242	331.19
553.455	345.19
553.667	339.19
553.88	350.19
554.093	342.19
554.306	328.19
554.519	359.19
554.732	332.19
554.944	325.19
555.157	327.19
555.37	342.19
555.583	330.19
555.795	310.19
556.008	318.19
556.221	311.19
556.433	311.19
556.646	310.19
556.859	311.19
557.071	314.19
557.284	306.19
557.496	320.19
557.709	326.19
557.921	318.19
558.134	311.19
558.346	317.19
558.559	314.19
558.771	312.19
558.984	326.19
559.196	314.19
559.409	310.19
559.621	310.19
559.833	304.19
560.046	298.19
560.258	324.19
560.47	311.19
560.683	295.19
560.895	318.19
561.107	317.19
561.32	297.19
561.532	314.19
561.744	287.19
561.956	324.19
562.168	333.19
562.381	309.19
562.593	296.19
562.805	302.19
563.017	307.19
563.229	310.19
563.441	295.19
563.653	301.19
563.865	299.19
564.077	312.19
564.289	322.19
564.501	311.19
564.713	322.19
564.925	332.19
565.137	312.19
565.349	319.19
565.561	329.19
565.773	323.19
565.985	335.19
566.197	336.19
566.408	342.19
566.62	343.19
566.832	350.19
567.044	349.19
567.255	355.19
567.467	362.19
567.679	351.19
567.891	336.19
568.102	367.19
568.314	343.19
568.526	351.19
568.737	332.19
568.949	326.19
569.161	310.19
569.372	314.19
569.584	319.19
569.795	303.19
570.007	308.19
570.218	341.19
570.43	339.19
570.641	299.19
570.853	298.19
571.064	300.19
571.276	309.19
571.487	298.19
571.698	287.19
571.91	271.19
572.121	294.19
572.333	292.19
572.544	269.19
572.755	293.19
572.966	277.19
573.178	286.19
573.389	285.19
573.6	284.19
573.811	262.19
574.023	271.19
574.234	270.19
574.445	255.19
574.656	274.19
574.867	270.19
575.078	252.19
575.289	270.19
575.501	274.19
575.712	263.19
575.923	268.19
576.134	251.19
576.345	266.19
576.556	283.19
576.767	279.19
576.978	268.19
577.188	262.19
577.399	268.19
577.61	262.19
577.821	281.19
578.032	270.19
578.243	287.19
578.454	445.19
578.665	351.19
578.875	261.19
579.086	250.19
579.297	278.19
579.508	254.19
579.718	264.19
579.929	238.19
580.14	251.19
580.35	256.19
580.561	246.19
580.772	258.19
580.982	249.19
581.193	252.19
581.403	262.19
581.614	259.19
581.825	258.19
582.035	255.19
582.246	244.19
582.456	246.19
582.667	242.19
582.877	256.19
583.087	226.19
583.298	248.19
583.508	246.19
583.719	253.19
583.929	254.19
584.139	248.19
584.35	253.19
584.56	261.19
584.77	234.19
584.981	220.19
585.191	243.19
585.401	227.19
585.611	251.19
585.821	253.19
586.032	234.19
586.242	224.19
586.452	222.19
586.662	263.19
586.872	250.19
587.082	231.19
587.292	247.19
587.502	247.19
587.713	227.19
587.923	246.19
588.133	243.19
588.343	239.19
588.553	225.19
588.762	224.19
588.972	246.19
589.182	239.19
589.392	243.19
589.602	232.19
589.812	235.19
590.022	235.19
590.232	249.19
590.441	228.19
590.651	238.19
590.861	222.19
591.071	252.19
591.281	227.19
591.49	246.19
591.7	251.19
591.91	231.19
592.119	232.19
592.329	239.19
592.539	223.19
592.748	271.19
592.958	247.19
593.167	251.19
593.377	236.19
593.587	252.19
593.796	226.19
594.006	247.19
594.215	225.19
594.424	232.19
594.634	236.19
594.843	220.19
595.053	240.19
595.262	235.19
595.472	237.19
595.681	243.19
595.89	222.19
596.1	223.19
596.309	244.19
596.518	231.19
596.727	226.19
596.937	225.19
597.146	216.19
597.355	231.19
597.564	213.19
597.774	231.19
597.983	215.19
598.192	214.19
598.401	224.19
598.61	211.19
598.819	219.19
599.028	208.19
599.237	214.19
599.446	222.19
599.655	215.19
599.864	222.19
600.073	218.19
600.282	224.19
600.491	231.19
600.7	208.19
600.909	195.19
601.118	214.19
601.327	218.19
601.536	222.19
601.745	210.19
601.953	227.19
602.162	211.19
602.371	207.19
602.58	209.19
602.789	197.19
602.997	221.19
603.206	204.19
603.415	218.19
603.623	215.19
603.832	198.19
604.041	196.19
604.249	201.19
604.458	191.19
604.666	208.19
604.875	207.19
605.084	189.19
605.292	200.19
605.501	199.19
605.709	208.19
605.918	208.19
606.126	203.19
606.334	202.19
606.543	201.19
606.751	186.19
606.96	205.19
607.168	206.19
607.376	203.19
607.585	202.19
607.793	202.19
608.001	196.19
608.21	200.19
608.418	192.19
608.626	208.19
608.834	207.19
609.043	206.19
609.251	208.19
609.459	202.19
609.667	197.19
609.875	195.19
610.083	207.19
610.291	204.19
610.499	199.19
610.707	198.19
610.916	212.19
611.124	210.19
611.332	212.19
611.54	217.19
611.748	210.19
611.955	211.19
612.163	187.19
612.371	188.19
612.579	203.19
612.787	211.19
612.995	194.19
613.203	210.19
613.411	204.19
613.618	210.19
613.826	200.19
614.034	182.19
614.242	180.19
614.449	208.19
614.657	187.19
614.865	200.19
615.072	224.19
615.28	206.19
615.488	189.19
615.695	198.19
615.903	188.19
616.111	208.19
616.318	192.19
616.526	204.19
616.733	205.19
616.941	198.19
617.148	192.19
617.356	203.19
617.563	205.19
617.771	200.19
617.978	194.19
618.185	200.19
618.393	196.19
618.6	199.19
618.807	206.19
619.015	203.19
619.222	198.19
619.429	191.19
619.637	194.19
619.844	188.19
620.051	184.19
620.258	193.19
620.466	194.19
620.673	169.19
620.88	183.19
621.087	170.19
621.294	186.19
621.501	190.19
621.708	190.19
621.915	192.19
622.122	185.19
622.329	207.19
622.536	199.19
622.743	187.19
622.95	170.19
623.157	179.19
623.364	182.19
623.571	186.19
623.778	170.19
623.985	201.19
624.192	169.19
624.399	191.19
624.606	170.19
624.812	180.19
625.019	182.19
625.226	185.19
625.433	184.19
625.639	180.19
625.846	173.19
626.053	182.19
626.259	183.19
626.466	172.19
626.673	178.19
626.879	182.19
627.086	189.19
627.293	175.19
627.499	170.19
627.706	182.19
627.912	184.19
628.119	186.19
628.325	185.19
628.532	178.19
628.738	178.19
628.945	165.19
629.151	169.19
629.357	167.19
629.564	173.19
629.77	176.19
629.976	164.19
630.183	161.19
630.389	168.19
630.595	176.19
630.802	170.19
631.008	145.19
631.214	158.19
631.42	154.19
631.627	166.19
631.833	182.19
632.039	154.19
632.245	178.19
632.451	170.19
632.657	174.19
632.863	158.19
633.069	155.19
633.275	158.19
633.481	168.19
633.688	152.19
633.893	158.19
634.099	153.19
634.305	158.19
634.511	153.19
634.717	158.19
634.923	152.19
635.129	164.19
635.335	152.19
635.541	162.19
635.747	156.19
635.952	156.19
636.158	162.19
636.364	156.19
636.57	150.19
636.775	163.19
636.981	175.19
637.187	160.19
637.392	158.19
637.598	145.19
637.804	150.19
638.009	162.19
638.215	159.19
638.421	142.19
638.626	141.19
638.832	156.19
639.037	141.19
639.243	150.19
639.448	168.19
639.654	151.19
639.859	149.19
640.065	159.19
640.27	148.19
640.475	151.19
640.681	164.19
640.886	159.19
641.091	147.19
641.297	164.19
641.502	151.19
641.707	162.19
641.913	157.19
642.118	158.19
642.323	150.19
642.528	156.19
642.733	159.19
642.939	142.19
643.144	139.19
643.349	151.19
643.554	148.19
643.759	143.19
643.964	131.19
644.169	138.19
644.374	150.19
644.579	151.19
644.784	139.19
644.989	130.19
645.194	147.19
645.399	150.19
645.604	144.19
645.809	136.19
646.014	148.19
646.219	139.19
646.423	154.19
646.628	137.19
646.833	144.19
647.038	150.19
647.243	148.19
647.447	135.19
647.652	146.19
647.857	146.19
648.062	154.19
648.266	146.19
648.471	150.19
648.676	151.19
648.88	168.19
649.085	142.19
649.289	160.19
649.494	149.19
649.698	166.19
649.903	171.19
650.107	160.19
650.312	141.19
650.516	140.19
650.721	145.19
650.925	138.19
651.13	134.19
651.334	126.19
651.539	142.19
651.743	127.19
651.947	138.19
652.152	135.19
652.356	148.19
652.56	130.19
652.764	126.19
652.969	116.19
653.173	124.19
653.377	135.19
653.581	123.19
653.785	125.19
653.99	127.19
654.194	126.19
654.398	123.19
654.602	146.19
654.806	118.19
655.01	121.19
655.214	121.19
655.418	137.19
655.622	121.19
655.826	115.19
656.03	112.19
656.234	119.19
656.438	124.19
656.642	125.19
656.846	118.19
657.049	112.19
657.253	112.19
657.457	117.19
657.661	107.19
657.865	124.19
658.068	108.19
658.272	122.19
658.476	92.19
658.68	105.19
658.883	108.19
659.087	94.19
659.291	100.19
659.494	104.19
659.698	99.19
659.901	99.19
660.105	99.19
660.309	105.19
660.512	96.19
660.716	99.19
660.919	92.19
661.123	101.19
661.326	86.19
661.53	94.19
661.733	94.19
661.936	86.19
662.14	95.19
662.343	95.19
662.546	96.19
662.75	106.19
662.953	99.19
663.156	91.19
663.36	84.19
663.563	85.19
663.766	89.19
663.969	85.19
664.173	77.19
664.376	79.19
664.579	79.19
664.782	92.19
664.985	98.19
665.188	89.19
665.391	79.19
665.594	100.19
665.797	85.19
666	94.19
666.203	85.19
666.406	82.19
666.609	86.19
666.812	75.19
667.015	83.19
667.218	88.19
667.421	94.19
667.624	88.19
667.827	90.19
668.03	105.19
668.232	92.19
668.435	77.19
668.638	73.19
668.841	82.19
669.043	79.19
669.246	81.19
669.449	84.19
669.651	95.19
669.854	74.19
670.057	83.19
670.259	91.19
670.462	79.19
670.665	82.19
670.867	95.19
671.07	91.19
671.272	83.19
671.475	89.19
671.677	73.19
671.88	62.19
672.082	83.19
672.284	92.19
672.487	95.19
672.689	79.19
672.892	77.19
