Data from 1980.PennyLincolnUp.Lamp.En5.5.200Scan.071819.P1_HRD10591_16-36-16-956.txt Node
Date: Thu Jul 18 16:36:16 EDT 2019
User: cochatt
Spectrometer: HR+D1059
Trigger mode: 1
Integration Time (sec): 1.000000E-1
Scans to average: 1
Electric dark correction enabled: true
Nonlinearity correction enabled: false
Boxcar width: 0
XAxis mode: Wavelengths
Number of Pixels in Spectrum: 2048
>>>>>Begin Spectral Data<<<<<
223.165	-15.81
223.4	-15.81
223.635	-15.81
223.869	-9.81
224.104	-13.81
224.338	-21.81
224.573	-18.81
224.808	-11.81
225.042	-2.81
225.277	2.19
225.511	2.19
225.746	-2.81
225.98	4.19
226.215	-3.81
226.449	17.19
226.683	29.19
226.918	12.19
227.152	34.19
227.387	36.19
227.621	38.19
227.856	46.19
228.09	38.19
228.324	46.19
228.559	57.19
228.793	83.19
229.027	71.19
229.262	107.19
229.496	91.19
229.73	131.19
229.964	157.19
230.199	111.19
230.433	114.19
230.667	98.19
230.901	97.19
231.136	103.19
231.37	107.19
231.604	92.19
231.838	114.19
232.072	109.19
232.306	100.19
232.541	121.19
232.775	104.19
233.009	119.19
233.243	121.19
233.477	103.19
233.711	104.19
233.945	98.19
234.179	108.19
234.413	121.19
234.647	102.19
234.881	107.19
235.115	114.19
235.349	111.19
235.583	99.19
235.817	127.19
236.051	119.19
236.285	107.19
236.519	125.19
236.753	111.19
236.987	129.19
237.221	174.19
237.455	191.19
237.689	175.19
237.922	129.19
238.156	121.19
238.39	112.19
238.624	122.19
238.858	130.19
239.091	112.19
239.325	127.19
239.559	121.19
239.793	133.19
240.027	110.19
240.26	125.19
240.494	132.19
240.728	146.19
240.961	130.19
241.195	136.19
241.429	128.19
241.662	129.19
241.896	131.19
242.13	123.19
242.363	115.19
242.597	126.19
242.83	131.19
243.064	142.19
243.298	121.19
243.531	137.19
243.765	123.19
243.998	129.19
244.232	132.19
244.465	130.19
244.699	145.19
244.932	141.19
245.166	139.19
245.399	137.19
245.633	146.19
245.866	146.19
246.099	139.19
246.333	157.19
246.566	128.19
246.8	141.19
247.033	137.19
247.266	151.19
247.5	150.19
247.733	153.19
247.966	168.19
248.2	165.19
248.433	158.19
248.666	172.19
248.899	153.19
249.133	173.19
249.366	188.19
249.599	176.19
249.832	172.19
250.066	182.19
250.299	174.19
250.532	177.19
250.765	187.19
250.998	181.19
251.231	203.19
251.465	184.19
251.698	165.19
251.931	183.19
252.164	181.19
252.397	157.19
252.63	164.19
252.863	185.19
253.096	197.19
253.329	205.19
253.562	200.19
253.795	185.19
254.028	203.19
254.261	196.19
254.494	202.19
254.727	235.19
254.96	240.19
255.193	270.19
255.426	234.19
255.659	198.19
255.892	212.19
256.124	202.19
256.357	200.19
256.59	213.19
256.823	215.19
257.056	185.19
257.289	200.19
257.521	195.19
257.754	193.19
257.987	182.19
258.22	192.19
258.452	193.19
258.685	194.19
258.918	186.19
259.151	184.19
259.383	191.19
259.616	206.19
259.849	206.19
260.081	210.19
260.314	216.19
260.547	221.19
260.779	203.19
261.012	208.19
261.244	203.19
261.477	201.19
261.71	194.19
261.942	212.19
262.175	206.19
262.407	193.19
262.64	193.19
262.872	198.19
263.105	198.19
263.337	189.19
263.57	173.19
263.802	189.19
264.035	174.19
264.267	184.19
264.499	181.19
264.732	180.19
264.964	194.19
265.197	179.19
265.429	187.19
265.661	183.19
265.894	170.19
266.126	193.19
266.358	188.19
266.591	194.19
266.823	201.19
267.055	197.19
267.287	198.19
267.52	215.19
267.752	187.19
267.984	219.19
268.216	211.19
268.448	176.19
268.681	203.19
268.913	227.19
269.145	222.19
269.377	227.19
269.609	243.19
269.841	230.19
270.073	232.19
270.306	231.19
270.538	260.19
270.77	261.19
271.002	265.19
271.234	261.19
271.466	249.19
271.698	258.19
271.93	250.19
272.162	247.19
272.394	272.19
272.626	255.19
272.858	245.19
273.09	237.19
273.322	226.19
273.553	240.19
273.785	245.19
274.017	233.19
274.249	223.19
274.481	222.19
274.713	233.19
274.945	233.19
275.176	201.19
275.408	215.19
275.64	223.19
275.872	220.19
276.104	224.19
276.335	218.19
276.567	225.19
276.799	241.19
277.031	246.19
277.262	262.19
277.494	262.19
277.726	258.19
277.957	247.19
278.189	237.19
278.421	214.19
278.652	235.19
278.884	214.19
279.115	221.19
279.347	215.19
279.579	219.19
279.81	222.19
280.042	230.19
280.273	229.19
280.505	208.19
280.736	225.19
280.968	223.19
281.199	225.19
281.431	210.19
281.662	217.19
281.894	251.19
282.125	212.19
282.356	243.19
282.588	234.19
282.819	254.19
283.051	230.19
283.282	242.19
283.513	221.19
283.745	209.19
283.976	221.19
284.207	235.19
284.439	247.19
284.67	246.19
284.901	215.19
285.132	227.19
285.364	227.19
285.595	226.19
285.826	222.19
286.057	224.19
286.288	207.19
286.52	229.19
286.751	247.19
286.982	224.19
287.213	231.19
287.444	226.19
287.675	235.19
287.906	240.19
288.138	235.19
288.369	243.19
288.6	238.19
288.831	244.19
289.062	246.19
289.293	239.19
289.524	237.19
289.755	236.19
289.986	247.19
290.217	251.19
290.448	227.19
290.679	233.19
290.91	249.19
291.141	215.19
291.371	232.19
291.602	237.19
291.833	215.19
292.064	226.19
292.295	227.19
292.526	235.19
292.757	247.19
292.987	226.19
293.218	242.19
293.449	241.19
293.68	234.19
293.91	231.19
294.141	221.19
294.372	214.19
294.603	229.19
294.833	229.19
295.064	239.19
295.295	216.19
295.525	244.19
295.756	255.19
295.987	235.19
296.217	251.19
296.448	257.19
296.679	240.19
296.909	234.19
297.14	238.19
297.37	248.19
297.601	249.19
297.831	248.19
298.062	227.19
298.292	237.19
298.523	237.19
298.753	238.19
298.984	241.19
299.214	240.19
299.445	253.19
299.675	275.19
299.905	251.19
300.136	254.19
300.366	231.19
300.597	243.19
300.827	257.19
301.057	265.19
301.288	274.19
301.518	266.19
301.748	264.19
301.979	252.19
302.209	249.19
302.439	255.19
302.669	265.19
302.9	262.19
303.13	265.19
303.36	255.19
303.59	259.19
303.82	267.19
304.051	280.19
304.281	255.19
304.511	258.19
304.741	260.19
304.971	241.19
305.201	258.19
305.431	239.19
305.661	261.19
305.891	249.19
306.121	250.19
306.352	265.19
306.582	265.19
306.812	270.19
307.042	257.19
307.272	278.19
307.502	270.19
307.731	269.19
307.961	259.19
308.191	272.19
308.421	274.19
308.651	258.19
308.881	270.19
309.111	284.19
309.341	273.19
309.571	282.19
309.8	291.19
310.03	281.19
310.26	281.19
310.49	298.19
310.72	310.19
310.949	313.19
311.179	312.19
311.409	286.19
311.639	303.19
311.868	290.19
312.098	295.19
312.328	309.19
312.557	319.19
312.787	317.19
313.017	326.19
313.246	319.19
313.476	301.19
313.706	304.19
313.935	289.19
314.165	307.19
314.394	310.19
314.624	317.19
314.853	320.19
315.083	310.19
315.312	306.19
315.542	291.19
315.771	273.19
316.001	304.19
316.23	291.19
316.46	294.19
316.689	293.19
316.919	310.19
317.148	313.19
317.377	316.19
317.607	304.19
317.836	315.19
318.065	283.19
318.295	298.19
318.524	306.19
318.753	298.19
318.983	297.19
319.212	305.19
319.441	319.19
319.67	311.19
319.9	296.19
320.129	284.19
320.358	295.19
320.587	307.19
320.816	319.19
321.046	315.19
321.275	306.19
321.504	296.19
321.733	320.19
321.962	315.19
322.191	314.19
322.42	333.19
322.649	365.19
322.878	360.19
323.108	370.19
323.337	370.19
323.566	394.19
323.795	409.19
324.024	448.19
324.253	535.19
324.482	727.19
324.71	1112.19
324.939	1608.19
325.168	1418.19
325.397	747.19
325.626	494.19
325.855	420.19
326.084	383.19
326.313	380.19
326.542	387.19
326.77	422.19
326.999	515.19
327.228	647.19
327.457	994.19
327.686	1239.19
327.914	843.19
328.143	579.19
328.372	471.19
328.6	448.19
328.829	417.19
329.058	457.19
329.287	449.19
329.515	428.19
329.744	385.19
329.972	382.19
330.201	394.19
330.43	442.19
330.658	432.19
330.887	477.19
331.115	451.19
331.344	406.19
331.572	372.19
331.801	369.19
332.03	367.19
332.258	362.19
332.486	344.19
332.715	343.19
332.943	358.19
333.172	341.19
333.4	357.19
333.629	358.19
333.857	355.19
334.085	351.19
334.314	371.19
334.542	377.19
334.771	405.19
334.999	379.19
335.227	378.19
335.455	349.19
335.684	338.19
335.912	329.19
336.14	342.19
336.369	344.19
336.597	340.19
336.825	347.19
337.053	350.19
337.281	334.19
337.51	339.19
337.738	334.19
337.966	343.19
338.194	351.19
338.422	349.19
338.65	349.19
338.878	346.19
339.106	341.19
339.334	337.19
339.562	328.19
339.79	342.19
340.018	334.19
340.246	317.19
340.474	358.19
340.702	348.19
340.93	332.19
341.158	335.19
341.386	337.19
341.614	330.19
341.842	315.19
342.07	318.19
342.298	329.19
342.526	319.19
342.754	318.19
342.981	323.19
343.209	335.19
343.437	332.19
343.665	313.19
343.893	328.19
344.12	339.19
344.348	359.19
344.576	350.19
344.804	323.19
345.031	341.19
345.259	364.19
345.487	335.19
345.714	352.19
345.942	319.19
346.17	327.19
346.397	330.19
346.625	331.19
346.853	323.19
347.08	303.19
347.308	335.19
347.535	327.19
347.763	338.19
347.99	344.19
348.218	336.19
348.445	322.19
348.673	341.19
348.9	325.19
349.128	315.19
349.355	302.19
349.583	323.19
349.81	329.19
350.037	318.19
350.265	313.19
350.492	323.19
350.72	310.19
350.947	315.19
351.174	331.19
351.402	328.19
351.629	346.19
351.856	332.19
352.083	329.19
352.311	339.19
352.538	327.19
352.765	330.19
352.992	336.19
353.22	325.19
353.447	328.19
353.674	316.19
353.901	337.19
354.128	317.19
354.355	319.19
354.583	313.19
354.81	312.19
355.037	321.19
355.264	294.19
355.491	293.19
355.718	304.19
355.945	294.19
356.172	304.19
356.399	323.19
356.626	328.19
356.853	299.19
357.08	311.19
357.307	297.19
357.534	306.19
357.761	302.19
357.988	304.19
358.215	326.19
358.441	317.19
358.668	295.19
358.895	315.19
359.122	313.19
359.349	325.19
359.576	312.19
359.802	350.19
360.029	341.19
360.256	373.19
360.483	331.19
360.709	341.19
360.936	317.19
361.163	325.19
361.39	338.19
361.616	343.19
361.843	331.19
362.07	312.19
362.296	339.19
362.523	338.19
362.749	321.19
362.976	319.19
363.203	297.19
363.429	310.19
363.656	308.19
363.882	323.19
364.109	319.19
364.335	311.19
364.562	321.19
364.788	327.19
365.015	306.19
365.241	315.19
365.468	314.19
365.694	306.19
365.92	327.19
366.147	312.19
366.373	301.19
366.599	317.19
366.826	327.19
367.052	318.19
367.278	313.19
367.505	333.19
367.731	334.19
367.957	320.19
368.184	295.19
368.41	328.19
368.636	333.19
368.862	331.19
369.089	320.19
369.315	332.19
369.541	320.19
369.767	313.19
369.993	318.19
370.219	307.19
370.445	313.19
370.672	315.19
370.898	327.19
371.124	309.19
371.35	325.19
371.576	322.19
371.802	312.19
372.028	305.19
372.254	330.19
372.48	332.19
372.706	314.19
372.932	299.19
373.158	320.19
373.384	317.19
373.61	322.19
373.835	307.19
374.061	329.19
374.287	329.19
374.513	326.19
374.739	326.19
374.965	309.19
375.191	290.19
375.416	330.19
375.642	327.19
375.868	334.19
376.094	329.19
376.319	330.19
376.545	327.19
376.771	309.19
376.997	319.19
377.222	328.19
377.448	331.19
377.674	323.19
377.899	296.19
378.125	326.19
378.35	309.19
378.576	312.19
378.802	314.19
379.027	312.19
379.253	311.19
379.478	315.19
379.704	326.19
379.929	331.19
380.155	337.19
380.38	311.19
380.606	325.19
380.831	295.19
381.057	326.19
381.282	315.19
381.507	328.19
381.733	330.19
381.958	303.19
382.184	327.19
382.409	323.19
382.634	329.19
382.86	327.19
383.085	328.19
383.31	317.19
383.535	336.19
383.761	326.19
383.986	334.19
384.211	328.19
384.436	313.19
384.662	331.19
384.887	340.19
385.112	329.19
385.337	338.19
385.562	334.19
385.787	330.19
386.013	350.19
386.238	338.19
386.463	347.19
386.688	329.19
386.913	332.19
387.138	337.19
387.363	353.19
387.588	348.19
387.813	338.19
388.038	348.19
388.263	345.19
388.488	358.19
388.713	336.19
388.938	334.19
389.163	347.19
389.387	336.19
389.612	337.19
389.837	343.19
390.062	339.19
390.287	325.19
390.512	321.19
390.736	344.19
390.961	325.19
391.186	335.19
391.411	341.19
391.636	332.19
391.86	344.19
392.085	350.19
392.31	345.19
392.534	333.19
392.759	343.19
392.984	335.19
393.208	338.19
393.433	347.19
393.658	348.19
393.882	342.19
394.107	343.19
394.331	328.19
394.556	333.19
394.78	326.19
395.005	337.19
395.229	341.19
395.454	339.19
395.678	351.19
395.903	359.19
396.127	370.19
396.352	378.19
396.576	353.19
396.801	349.19
397.025	358.19
397.249	352.19
397.474	357.19
397.698	365.19
397.922	361.19
398.147	344.19
398.371	369.19
398.595	381.19
398.82	370.19
399.044	358.19
399.268	389.19
399.492	399.19
399.717	409.19
399.941	431.19
400.165	461.19
400.389	461.19
400.613	430.19
400.837	407.19
401.062	383.19
401.286	387.19
401.51	374.19
401.734	372.19
401.958	382.19
402.182	402.19
402.406	397.19
402.63	388.19
402.854	395.19
403.078	391.19
403.302	381.19
403.526	382.19
403.75	416.19
403.974	403.19
404.198	402.19
404.422	389.19
404.645	393.19
404.869	408.19
405.093	407.19
405.317	429.19
405.541	468.19
405.765	415.19
405.988	419.19
406.212	412.19
406.436	431.19
406.66	447.19
406.883	422.19
407.107	446.19
407.331	483.19
407.555	534.19
407.778	545.19
408.002	455.19
408.226	427.19
408.449	437.19
408.673	442.19
408.896	445.19
409.12	486.19
409.344	461.19
409.567	433.19
409.791	397.19
410.014	391.19
410.238	395.19
410.461	399.19
410.685	389.19
410.908	419.19
411.132	440.19
411.355	469.19
411.578	439.19
411.802	406.19
412.025	404.19
412.249	413.19
412.472	416.19
412.695	443.19
412.919	432.19
413.142	400.19
413.365	382.19
413.589	386.19
413.812	381.19
414.035	389.19
414.258	370.19
414.482	384.19
414.705	369.19
414.928	377.19
415.151	373.19
415.374	381.19
415.597	398.19
415.821	375.19
416.044	390.19
416.267	364.19
416.49	382.19
416.713	369.19
416.936	365.19
417.159	376.19
417.382	394.19
417.605	382.19
417.828	392.19
418.051	391.19
418.274	404.19
418.497	392.19
418.72	360.19
418.943	380.19
419.166	389.19
419.389	401.19
419.611	401.19
419.834	385.19
420.057	427.19
420.28	396.19
420.503	386.19
420.726	398.19
420.948	431.19
421.171	449.19
421.394	438.19
421.617	409.19
421.839	402.19
422.062	427.19
422.285	427.19
422.507	469.19
422.73	503.19
422.953	480.19
423.175	427.19
423.398	433.19
423.621	425.19
423.843	442.19
424.066	429.19
424.288	448.19
424.511	439.19
424.733	491.19
424.956	533.19
425.178	547.19
425.401	543.19
425.623	545.19
425.846	462.19
426.068	443.19
426.291	436.19
426.513	437.19
426.735	438.19
426.958	444.19
427.18	525.19
427.402	640.19
427.625	693.19
427.847	630.19
428.069	543.19
428.292	485.19
428.514	439.19
428.736	421.19
428.958	430.19
429.181	405.19
429.403	382.19
429.625	415.19
429.847	439.19
430.069	498.19
430.292	494.19
430.514	432.19
430.736	416.19
430.958	404.19
431.18	404.19
431.402	399.19
431.624	383.19
431.846	370.19
432.068	391.19
432.29	373.19
432.512	373.19
432.734	393.19
432.956	398.19
433.178	394.19
433.4	386.19
433.622	395.19
433.844	401.19
434.066	376.19
434.287	366.19
434.509	373.19
434.731	394.19
434.953	428.19
435.175	404.19
435.397	418.19
435.618	451.19
435.84	462.19
436.062	554.19
436.284	599.19
436.505	503.19
436.727	444.19
436.949	418.19
437.17	397.19
437.392	402.19
437.614	413.19
437.835	445.19
438.057	522.19
438.278	580.19
438.5	601.19
438.721	646.19
438.943	645.19
439.165	494.19
439.386	442.19
439.608	459.19
439.829	458.19
440.05	462.19
440.272	510.19
440.493	487.19
440.715	422.19
440.936	431.19
441.158	419.19
441.379	413.19
441.6	411.19
441.822	424.19
442.043	472.19
442.264	535.19
442.486	569.19
442.707	497.19
442.928	441.19
443.149	442.19
443.371	487.19
443.592	471.19
443.813	559.19
444.034	621.19
444.255	529.19
444.476	457.19
444.698	421.19
444.919	430.19
445.14	515.19
445.361	487.19
445.582	464.19
445.803	518.19
446.024	589.19
446.245	607.19
446.466	537.19
446.687	457.19
446.908	430.19
447.129	417.19
447.35	419.19
447.571	423.19
447.792	400.19
448.013	406.19
448.234	409.19
448.455	467.19
448.675	562.19
448.896	657.19
449.117	567.19
449.338	489.19
449.559	591.19
449.779	685.19
450	551.19
450.221	443.19
450.442	423.19
450.662	416.19
450.883	409.19
451.104	421.19
451.324	410.19
451.545	393.19
451.766	375.19
451.986	378.19
452.207	351.19
452.428	357.19
452.648	358.19
452.869	367.19
453.089	362.19
453.31	376.19
453.53	359.19
453.751	369.19
453.971	372.19
454.192	388.19
454.412	361.19
454.633	367.19
454.853	375.19
455.073	366.19
455.294	386.19
455.514	434.19
455.734	433.19
455.955	380.19
456.175	353.19
456.395	332.19
456.616	329.19
456.836	354.19
457.056	340.19
457.276	350.19
457.497	332.19
457.717	344.19
457.937	347.19
458.157	364.19
458.377	357.19
458.598	370.19
458.818	417.19
459.038	469.19
459.258	479.19
459.478	414.19
459.698	379.19
459.918	376.19
460.138	363.19
460.358	385.19
460.578	370.19
460.798	367.19
461.018	376.19
461.238	354.19
461.458	375.19
461.678	373.19
461.898	386.19
462.118	378.19
462.338	379.19
462.558	395.19
462.777	391.19
462.997	395.19
463.217	395.19
463.437	407.19
463.657	389.19
463.876	397.19
464.096	386.19
464.316	382.19
464.536	404.19
464.755	381.19
464.975	409.19
465.195	428.19
465.414	473.19
465.634	437.19
465.854	404.19
466.073	375.19
466.293	366.19
466.512	370.19
466.732	378.19
466.951	368.19
467.171	367.19
467.391	377.19
467.61	377.19
467.829	379.19
468.049	377.19
468.268	374.19
468.488	353.19
468.707	349.19
468.927	339.19
469.146	355.19
469.365	347.19
469.585	350.19
469.804	390.19
470.023	368.19
470.243	376.19
470.462	375.19
470.681	398.19
470.901	370.19
471.12	363.19
471.339	377.19
471.558	389.19
471.777	377.19
471.997	371.19
472.216	361.19
472.435	395.19
472.654	368.19
472.873	385.19
473.092	378.19
473.311	353.19
473.53	373.19
473.749	413.19
473.968	409.19
474.187	493.19
474.406	509.19
474.625	441.19
474.844	398.19
475.063	389.19
475.282	376.19
475.501	376.19
475.72	378.19
475.939	391.19
476.158	401.19
476.377	383.19
476.596	383.19
476.814	375.19
477.033	403.19
477.252	393.19
477.471	400.19
477.69	414.19
477.908	401.19
478.127	403.19
478.346	397.19
478.564	413.19
478.783	407.19
479.002	423.19
479.22	421.19
479.439	441.19
479.658	430.19
479.876	453.19
480.095	450.19
480.313	457.19
480.532	470.19
480.751	441.19
480.969	443.19
481.188	466.19
481.406	489.19
481.624	459.19
481.843	453.19
482.061	450.19
482.28	432.19
482.498	434.19
482.717	446.19
482.935	431.19
483.153	424.19
483.372	442.19
483.59	459.19
483.808	463.19
484.027	446.19
484.245	434.19
484.463	446.19
484.681	453.19
484.9	464.19
485.118	444.19
485.336	466.19
485.554	457.19
485.772	459.19
485.99	463.19
486.209	452.19
486.427	462.19
486.645	486.19
486.863	486.19
487.081	479.19
487.299	466.19
487.517	467.19
487.735	475.19
487.953	479.19
488.171	484.19
488.389	486.19
488.607	507.19
488.825	461.19
489.043	459.19
489.261	473.19
489.479	479.19
489.696	477.19
489.914	497.19
490.132	487.19
490.35	504.19
490.568	497.19
490.786	489.19
491.003	504.19
491.221	521.19
491.439	521.19
491.657	546.19
491.874	519.19
492.092	545.19
492.31	550.19
492.527	547.19
492.745	554.19
492.963	560.19
493.18	561.19
493.398	545.19
493.615	566.19
493.833	560.19
494.05	571.19
494.268	550.19
494.485	562.19
494.703	575.19
494.92	568.19
495.138	523.19
495.355	556.19
495.573	573.19
495.79	569.19
496.008	580.19
496.225	559.19
496.442	552.19
496.66	573.19
496.877	598.19
497.094	563.19
497.312	586.19
497.529	591.19
497.746	587.19
497.963	598.19
498.181	601.19
498.398	618.19
498.615	622.19
498.832	612.19
499.049	639.19
499.267	663.19
499.484	650.19
499.701	665.19
499.918	697.19
500.135	682.19
500.352	707.19
500.569	718.19
500.786	744.19
501.003	714.19
501.22	715.19
501.437	713.19
501.654	681.19
501.871	696.19
502.088	673.19
502.305	647.19
502.522	635.19
502.739	635.19
502.956	598.19
503.172	591.19
503.389	554.19
503.606	585.19
503.823	567.19
504.04	583.19
504.256	601.19
504.473	585.19
504.69	571.19
504.907	536.19
505.123	579.19
505.34	560.19
505.557	553.19
505.773	555.19
505.99	551.19
506.207	535.19
506.423	554.19
506.64	545.19
506.856	553.19
507.073	539.19
507.289	539.19
507.506	533.19
507.722	538.19
507.939	546.19
508.155	531.19
508.372	537.19
508.588	532.19
508.805	537.19
509.021	516.19
509.238	535.19
509.454	527.19
509.67	529.19
509.887	518.19
510.103	511.19
510.319	526.19
510.536	603.19
510.752	954.19
510.968	784.19
511.184	519.19
511.401	517.19
511.617	502.19
511.833	505.19
512.049	486.19
512.265	503.19
512.481	493.19
512.698	507.19
512.914	497.19
513.13	492.19
513.346	490.19
513.562	482.19
513.778	506.19
513.994	513.19
514.21	502.19
514.426	502.19
514.642	567.19
514.858	565.19
515.074	599.19
515.29	683.19
515.506	1002.19
515.721	840.19
515.937	617.19
516.153	544.19
516.369	531.19
516.585	505.19
516.801	497.19
517.016	492.19
517.232	491.19
517.448	495.19
517.664	478.19
517.879	499.19
518.095	519.19
518.311	502.19
518.527	486.19
518.742	485.19
518.958	479.19
519.173	504.19
519.389	493.19
519.605	493.19
519.82	515.19
520.036	501.19
520.251	504.19
520.467	543.19
520.682	532.19
520.898	520.19
521.113	530.19
521.329	582.19
521.544	658.19
521.76	800.19
521.975	1291.19
522.19	1305.19
522.406	719.19
522.621	562.19
522.836	494.19
523.052	495.19
523.267	466.19
523.482	460.19
523.698	451.19
523.913	452.19
524.128	465.19
524.343	442.19
524.559	454.19
524.774	424.19
524.989	442.19
525.204	443.19
525.419	430.19
525.634	431.19
525.849	447.19
526.064	437.19
526.28	407.19
526.495	405.19
526.71	423.19
526.925	423.19
527.14	403.19
527.355	410.19
527.57	390.19
527.785	398.19
527.999	411.19
528.214	409.19
528.429	403.19
528.644	403.19
528.859	389.19
529.074	413.19
529.289	431.19
529.503	473.19
529.718	463.19
529.933	425.19
530.148	395.19
530.363	416.19
530.577	401.19
530.792	402.19
531.007	382.19
531.221	389.19
531.436	373.19
531.651	390.19
531.865	395.19
532.08	377.19
532.295	383.19
532.509	397.19
532.724	411.19
532.938	384.19
533.153	370.19
533.367	361.19
533.582	385.19
533.796	401.19
534.011	375.19
534.225	394.19
534.44	383.19
534.654	372.19
534.868	382.19
535.083	388.19
535.297	392.19
535.511	392.19
535.726	406.19
535.94	391.19
536.154	369.19
536.369	366.19
536.583	382.19
536.797	385.19
537.011	381.19
537.225	373.19
537.44	354.19
537.654	387.19
537.868	382.19
538.082	350.19
538.296	350.19
538.51	380.19
538.724	367.19
538.938	389.19
539.153	362.19
539.367	382.19
539.581	377.19
539.795	373.19
540.009	384.19
540.222	379.19
540.436	353.19
540.65	390.19
540.864	385.19
541.078	391.19
541.292	381.19
541.506	381.19
541.72	370.19
541.934	348.19
542.147	374.19
542.361	376.19
542.575	383.19
542.789	386.19
543.002	373.19
543.216	360.19
543.43	374.19
543.644	382.19
543.857	389.19
544.071	365.19
544.285	349.19
544.498	375.19
544.712	389.19
544.925	374.19
545.139	376.19
545.352	355.19
545.566	359.19
545.779	358.19
545.993	366.19
546.206	377.19
546.42	343.19
546.633	375.19
546.847	351.19
547.06	348.19
547.274	365.19
547.487	354.19
547.7	377.19
547.914	362.19
548.127	351.19
548.34	353.19
548.554	345.19
548.767	374.19
548.98	369.19
549.193	357.19
549.407	360.19
549.62	361.19
549.833	377.19
550.046	357.19
550.259	343.19
550.473	346.19
550.686	352.19
550.899	357.19
551.112	345.19
551.325	345.19
551.538	340.19
551.751	341.19
551.964	339.19
552.177	351.19
552.39	359.19
552.603	356.19
552.816	356.19
553.029	346.19
553.242	371.19
553.455	332.19
553.667	364.19
553.88	358.19
554.093	376.19
554.306	360.19
554.519	361.19
554.732	350.19
554.944	336.19
555.157	338.19
555.37	351.19
555.583	319.19
555.795	348.19
556.008	343.19
556.221	332.19
556.433	335.19
556.646	317.19
556.859	332.19
557.071	327.19
557.284	321.19
557.496	322.19
557.709	328.19
557.921	325.19
558.134	294.19
558.346	310.19
558.559	315.19
558.771	314.19
558.984	321.19
559.196	299.19
559.409	308.19
559.621	333.19
559.833	323.19
560.046	321.19
560.258	314.19
560.47	307.19
560.683	330.19
560.895	347.19
561.107	321.19
561.32	319.19
561.532	313.19
561.744	338.19
561.956	331.19
562.168	338.19
562.381	346.19
562.593	321.19
562.805	337.19
563.017	319.19
563.229	308.19
563.441	315.19
563.653	325.19
563.865	326.19
564.077	340.19
564.289	337.19
564.501	336.19
564.713	336.19
564.925	335.19
565.137	339.19
565.349	350.19
565.561	347.19
565.773	360.19
565.985	346.19
566.197	345.19
566.408	363.19
566.62	354.19
566.832	358.19
567.044	378.19
567.255	366.19
567.467	365.19
567.679	379.19
567.891	373.19
568.102	373.19
568.314	354.19
568.526	365.19
568.737	344.19
568.949	346.19
569.161	350.19
569.372	326.19
569.584	312.19
569.795	340.19
570.007	327.19
570.218	349.19
570.43	337.19
570.641	333.19
570.853	298.19
571.064	329.19
571.276	305.19
571.487	304.19
571.698	327.19
571.91	293.19
572.121	313.19
572.333	311.19
572.544	297.19
572.755	286.19
572.966	295.19
573.178	289.19
573.389	274.19
573.6	274.19
573.811	280.19
574.023	270.19
574.234	301.19
574.445	279.19
574.656	284.19
574.867	253.19
575.078	280.19
575.289	293.19
575.501	273.19
575.712	269.19
575.923	267.19
576.134	283.19
576.345	268.19
576.556	284.19
576.767	258.19
576.978	285.19
577.188	293.19
577.399	279.19
577.61	275.19
577.821	279.19
578.032	295.19
578.243	321.19
578.454	461.19
578.665	359.19
578.875	281.19
579.086	263.19
579.297	254.19
579.508	264.19
579.718	269.19
579.929	267.19
580.14	267.19
580.35	267.19
580.561	267.19
580.772	262.19
580.982	262.19
581.193	268.19
581.403	262.19
581.614	264.19
581.825	266.19
582.035	249.19
582.246	258.19
582.456	247.19
582.667	257.19
582.877	273.19
583.087	259.19
583.298	251.19
583.508	265.19
583.719	269.19
583.929	261.19
584.139	261.19
584.35	267.19
584.56	253.19
584.77	265.19
584.981	241.19
585.191	249.19
585.401	238.19
585.611	269.19
585.821	251.19
586.032	264.19
586.242	242.19
586.452	253.19
586.662	251.19
586.872	251.19
587.082	268.19
587.292	245.19
587.502	240.19
587.713	245.19
587.923	259.19
588.133	239.19
588.343	246.19
588.553	228.19
588.762	256.19
588.972	238.19
589.182	248.19
589.392	241.19
589.602	245.19
589.812	251.19
590.022	276.19
590.232	241.19
590.441	249.19
590.651	257.19
590.861	243.19
591.071	264.19
591.281	258.19
591.49	257.19
591.7	236.19
591.91	243.19
592.119	254.19
592.329	240.19
592.539	262.19
592.748	249.19
592.958	237.19
593.167	254.19
593.377	247.19
593.587	264.19
593.796	247.19
594.006	250.19
594.215	252.19
594.424	253.19
594.634	240.19
594.843	249.19
595.053	242.19
595.262	234.19
595.472	237.19
595.681	247.19
595.89	253.19
596.1	233.19
596.309	243.19
596.518	258.19
596.727	231.19
596.937	236.19
597.146	233.19
597.355	247.19
597.564	219.19
597.774	222.19
597.983	215.19
598.192	227.19
598.401	226.19
598.61	241.19
598.819	236.19
599.028	221.19
599.237	233.19
599.446	237.19
599.655	215.19
599.864	232.19
600.073	231.19
600.282	230.19
600.491	225.19
600.7	214.19
600.909	204.19
601.118	229.19
601.327	209.19
601.536	213.19
601.745	221.19
601.953	211.19
602.162	217.19
602.371	210.19
602.58	204.19
602.789	211.19
602.997	226.19
603.206	215.19
603.415	230.19
603.623	208.19
603.832	196.19
604.041	200.19
604.249	206.19
604.458	218.19
604.666	214.19
604.875	219.19
605.084	223.19
605.292	208.19
605.501	215.19
605.709	207.19
605.918	213.19
606.126	206.19
606.334	218.19
606.543	212.19
606.751	219.19
606.96	223.19
607.168	219.19
607.376	205.19
607.585	211.19
607.793	215.19
608.001	204.19
608.21	215.19
608.418	206.19
608.626	196.19
608.834	196.19
609.043	207.19
609.251	218.19
609.459	208.19
609.667	216.19
609.875	207.19
610.083	197.19
610.291	203.19
610.499	213.19
610.707	215.19
610.916	197.19
611.124	211.19
611.332	201.19
611.54	209.19
611.748	205.19
611.955	205.19
612.163	229.19
612.371	201.19
612.579	202.19
612.787	201.19
612.995	203.19
613.203	218.19
613.411	196.19
613.618	214.19
613.826	193.19
614.034	201.19
614.242	195.19
614.449	196.19
614.657	204.19
614.865	198.19
615.072	210.19
615.28	190.19
615.488	204.19
615.695	201.19
615.903	210.19
616.111	198.19
616.318	198.19
616.526	203.19
616.733	201.19
616.941	199.19
617.148	199.19
617.356	215.19
617.563	201.19
617.771	199.19
617.978	200.19
618.185	196.19
618.393	203.19
618.6	206.19
618.807	196.19
619.015	194.19
619.222	193.19
619.429	189.19
619.637	200.19
619.844	194.19
620.051	190.19
620.258	206.19
620.466	182.19
620.673	193.19
620.88	199.19
621.087	196.19
621.294	198.19
621.501	200.19
621.708	187.19
621.915	199.19
622.122	201.19
622.329	190.19
622.536	197.19
622.743	192.19
622.95	197.19
623.157	194.19
623.364	200.19
623.571	197.19
623.778	183.19
623.985	192.19
624.192	175.19
624.399	209.19
624.606	207.19
624.812	204.19
625.019	189.19
625.226	183.19
625.433	194.19
625.639	177.19
625.846	173.19
626.053	173.19
626.259	175.19
626.466	174.19
626.673	168.19
626.879	177.19
627.086	174.19
627.293	203.19
627.499	189.19
627.706	178.19
627.912	179.19
628.119	179.19
628.325	193.19
628.532	183.19
628.738	171.19
628.945	191.19
629.151	172.19
629.357	158.19
629.564	193.19
629.77	177.19
629.976	175.19
630.183	181.19
630.389	168.19
630.595	175.19
630.802	168.19
631.008	168.19
631.214	176.19
631.42	179.19
631.627	185.19
631.833	175.19
632.039	174.19
632.245	180.19
632.451	178.19
632.657	166.19
632.863	159.19
633.069	172.19
633.275	174.19
633.481	160.19
633.688	181.19
633.893	175.19
634.099	151.19
634.305	172.19
634.511	166.19
634.717	169.19
634.923	177.19
635.129	141.19
635.335	152.19
635.541	161.19
635.747	163.19
635.952	167.19
636.158	158.19
636.364	172.19
636.57	161.19
636.775	168.19
636.981	148.19
637.187	155.19
637.392	150.19
637.598	166.19
637.804	154.19
638.009	162.19
638.215	174.19
638.421	177.19
638.626	154.19
638.832	142.19
639.037	151.19
639.243	150.19
639.448	151.19
639.654	148.19
639.859	155.19
640.065	161.19
640.27	154.19
640.475	151.19
640.681	169.19
640.886	154.19
641.091	163.19
641.297	152.19
641.502	153.19
641.707	161.19
641.913	163.19
642.118	163.19
642.323	148.19
642.528	156.19
642.733	163.19
642.939	162.19
643.144	157.19
643.349	164.19
643.554	165.19
643.759	144.19
643.964	146.19
644.169	152.19
644.374	159.19
644.579	143.19
644.784	158.19
644.989	150.19
645.194	154.19
645.399	166.19
645.604	154.19
645.809	147.19
646.014	157.19
646.219	157.19
646.423	154.19
646.628	136.19
646.833	165.19
647.038	155.19
647.243	141.19
647.447	157.19
647.652	150.19
647.857	147.19
648.062	150.19
648.266	152.19
648.471	153.19
648.676	137.19
648.88	158.19
649.085	153.19
649.289	143.19
649.494	153.19
649.698	169.19
649.903	169.19
650.107	162.19
650.312	150.19
650.516	156.19
650.721	146.19
650.925	146.19
651.13	153.19
651.334	131.19
651.539	145.19
651.743	142.19
651.947	133.19
652.152	142.19
652.356	136.19
652.56	147.19
652.764	123.19
652.969	135.19
653.173	128.19
653.377	121.19
653.581	122.19
653.785	111.19
653.99	115.19
654.194	126.19
654.398	122.19
654.602	120.19
654.806	129.19
655.01	137.19
655.214	125.19
655.418	131.19
655.622	127.19
655.826	108.19
656.03	123.19
656.234	106.19
656.438	139.19
656.642	122.19
656.846	128.19
657.049	117.19
657.253	106.19
657.457	117.19
657.661	112.19
657.865	106.19
658.068	108.19
658.272	106.19
658.476	106.19
658.68	98.19
658.883	97.19
659.087	107.19
659.291	106.19
659.494	90.19
659.698	103.19
659.901	97.19
660.105	93.19
660.309	93.19
660.512	92.19
660.716	102.19
660.919	103.19
661.123	96.19
661.326	87.19
661.53	93.19
661.733	89.19
661.936	85.19
662.14	86.19
662.343	94.19
662.546	88.19
662.75	83.19
662.953	102.19
663.156	82.19
663.36	99.19
663.563	94.19
663.766	94.19
663.969	89.19
664.173	75.19
664.376	87.19
664.579	92.19
664.782	77.19
664.985	78.19
665.188	96.19
665.391	96.19
665.594	83.19
665.797	86.19
666	75.19
666.203	88.19
666.406	73.19
666.609	73.19
666.812	78.19
667.015	85.19
667.218	82.19
667.421	86.19
667.624	90.19
667.827	94.19
668.03	88.19
668.232	78.19
668.435	82.19
668.638	84.19
668.841	75.19
669.043	92.19
669.246	91.19
669.449	96.19
669.651	89.19
669.854	93.19
670.057	81.19
670.259	94.19
670.462	82.19
670.665	100.19
670.867	97.19
671.07	103.19
671.272	91.19
671.475	82.19
671.677	92.19
671.88	82.19
672.082	90.19
672.284	83.19
672.487	84.19
672.689	93.19
672.892	91.19
