Data from 1981.PennyLincolnUp.Lamp.En5.5.200Scan.071819.P1_HRD10591_16-40-49-959.txt Node
Date: Thu Jul 18 16:40:49 EDT 2019
User: cochatt
Spectrometer: HR+D1059
Trigger mode: 1
Integration Time (sec): 1.000000E-1
Scans to average: 1
Electric dark correction enabled: true
Nonlinearity correction enabled: false
Boxcar width: 0
XAxis mode: Wavelengths
Number of Pixels in Spectrum: 2048
>>>>>Begin Spectral Data<<<<<
223.165	-6.69
223.4	-6.69
223.635	-6.69
223.869	-14.69
224.104	-18.69
224.338	-14.69
224.573	-10.69
224.808	-20.69
225.042	4.31
225.277	-14.69
225.511	-1.69
225.746	7.31
225.98	18.31
226.215	6.31
226.449	7.31
226.683	14.31
226.918	22.31
227.152	22.31
227.387	34.31
227.621	46.31
227.856	46.31
228.09	44.31
228.324	54.31
228.559	63.31
228.793	71.31
229.027	95.31
229.262	109.31
229.496	110.31
229.73	131.31
229.964	138.31
230.199	116.31
230.433	127.31
230.667	110.31
230.901	115.31
231.136	122.31
231.37	96.31
231.604	105.31
231.838	107.31
232.072	128.31
232.306	129.31
232.541	114.31
232.775	104.31
233.009	96.31
233.243	119.31
233.477	113.31
233.711	112.31
233.945	119.31
234.179	122.31
234.413	118.31
234.647	107.31
234.881	118.31
235.115	104.31
235.349	124.31
235.583	119.31
235.817	115.31
236.051	123.31
236.285	130.31
236.519	130.31
236.753	128.31
236.987	137.31
237.221	168.31
237.455	228.31
237.689	185.31
237.922	140.31
238.156	133.31
238.39	112.31
238.624	130.31
238.858	106.31
239.091	134.31
239.325	129.31
239.559	121.31
239.793	126.31
240.027	144.31
240.26	137.31
240.494	144.31
240.728	133.31
240.961	136.31
241.195	146.31
241.429	142.31
241.662	132.31
241.896	133.31
242.13	116.31
242.363	127.31
242.597	131.31
242.83	130.31
243.064	131.31
243.298	132.31
243.531	128.31
243.765	133.31
243.998	140.31
244.232	134.31
244.465	144.31
244.699	147.31
244.932	152.31
245.166	136.31
245.399	143.31
245.633	143.31
245.866	162.31
246.099	140.31
246.333	129.31
246.566	150.31
246.8	166.31
247.033	160.31
247.266	152.31
247.5	162.31
247.733	158.31
247.966	178.31
248.2	181.31
248.433	158.31
248.666	174.31
248.899	176.31
249.133	180.31
249.366	193.31
249.599	194.31
249.832	182.31
250.066	181.31
250.299	171.31
250.532	178.31
250.765	202.31
250.998	223.31
251.231	215.31
251.465	203.31
251.698	201.31
251.931	212.31
252.164	205.31
252.397	207.31
252.63	202.31
252.863	209.31
253.096	224.31
253.329	207.31
253.562	219.31
253.795	221.31
254.028	220.31
254.261	209.31
254.494	220.31
254.727	262.31
254.96	266.31
255.193	267.31
255.426	240.31
255.659	231.31
255.892	220.31
256.124	235.31
256.357	245.31
256.59	222.31
256.823	206.31
257.056	208.31
257.289	206.31
257.521	205.31
257.754	205.31
257.987	216.31
258.22	206.31
258.452	193.31
258.685	203.31
258.918	207.31
259.151	212.31
259.383	212.31
259.616	213.31
259.849	222.31
260.081	231.31
260.314	248.31
260.547	248.31
260.779	248.31
261.012	240.31
261.244	225.31
261.477	208.31
261.71	216.31
261.942	222.31
262.175	237.31
262.407	226.31
262.64	224.31
262.872	207.31
263.105	216.31
263.337	223.31
263.57	192.31
263.802	212.31
264.035	203.31
264.267	205.31
264.499	200.31
264.732	217.31
264.964	218.31
265.197	206.31
265.429	221.31
265.661	198.31
265.894	220.31
266.126	197.31
266.358	212.31
266.591	206.31
266.823	235.31
267.055	236.31
267.287	237.31
267.52	221.31
267.752	201.31
267.984	226.31
268.216	216.31
268.448	234.31
268.681	228.31
268.913	214.31
269.145	248.31
269.377	266.31
269.609	263.31
269.841	266.31
270.073	277.31
270.306	288.31
270.538	310.31
270.77	315.31
271.002	303.31
271.234	297.31
271.466	306.31
271.698	297.31
271.93	298.31
272.162	305.31
272.394	301.31
272.626	290.31
272.858	286.31
273.09	279.31
273.322	266.31
273.553	273.31
273.785	253.31
274.017	266.31
274.249	273.31
274.481	278.31
274.713	282.31
274.945	265.31
275.176	261.31
275.408	266.31
275.64	236.31
275.872	251.31
276.104	246.31
276.335	258.31
276.567	263.31
276.799	282.31
277.031	298.31
277.262	318.31
277.494	308.31
277.726	286.31
277.957	288.31
278.189	285.31
278.421	265.31
278.652	255.31
278.884	267.31
279.115	268.31
279.347	268.31
279.579	260.31
279.81	259.31
280.042	270.31
280.273	256.31
280.505	251.31
280.736	256.31
280.968	253.31
281.199	248.31
281.431	270.31
281.662	252.31
281.894	265.31
282.125	248.31
282.356	264.31
282.588	279.31
282.819	284.31
283.051	273.31
283.282	265.31
283.513	274.31
283.745	268.31
283.976	267.31
284.207	258.31
284.439	268.31
284.67	259.31
284.901	241.31
285.132	256.31
285.364	255.31
285.595	260.31
285.826	241.31
286.057	268.31
286.288	256.31
286.52	276.31
286.751	253.31
286.982	270.31
287.213	272.31
287.444	278.31
287.675	293.31
287.906	271.31
288.138	284.31
288.369	281.31
288.6	292.31
288.831	294.31
289.062	294.31
289.293	298.31
289.524	286.31
289.755	289.31
289.986	264.31
290.217	274.31
290.448	288.31
290.679	289.31
290.91	285.31
291.141	268.31
291.371	277.31
291.602	272.31
291.833	266.31
292.064	271.31
292.295	259.31
292.526	268.31
292.757	269.31
292.987	278.31
293.218	269.31
293.449	283.31
293.68	296.31
293.91	280.31
294.141	260.31
294.372	264.31
294.603	270.31
294.833	276.31
295.064	262.31
295.295	276.31
295.525	279.31
295.756	285.31
295.987	296.31
296.217	311.31
296.448	305.31
296.679	318.31
296.909	296.31
297.14	282.31
297.37	290.31
297.601	275.31
297.831	296.31
298.062	266.31
298.292	284.31
298.523	289.31
298.753	286.31
298.984	276.31
299.214	289.31
299.445	316.31
299.675	297.31
299.905	299.31
300.136	304.31
300.366	303.31
300.597	291.31
300.827	285.31
301.057	296.31
301.288	322.31
301.518	305.31
301.748	314.31
301.979	298.31
302.209	296.31
302.439	296.31
302.669	294.31
302.9	304.31
303.13	314.31
303.36	313.31
303.59	308.31
303.82	307.31
304.051	319.31
304.281	318.31
304.511	315.31
304.741	305.31
304.971	312.31
305.201	304.31
305.431	306.31
305.661	320.31
305.891	308.31
306.121	298.31
306.352	303.31
306.582	305.31
306.812	312.31
307.042	312.31
307.272	300.31
307.502	319.31
307.731	302.31
307.961	304.31
308.191	308.31
308.421	311.31
308.651	308.31
308.881	320.31
309.111	324.31
309.341	329.31
309.571	340.31
309.8	345.31
310.03	336.31
310.26	360.31
310.49	348.31
310.72	364.31
310.949	369.31
311.179	381.31
311.409	354.31
311.639	359.31
311.868	368.31
312.098	353.31
312.328	369.31
312.557	365.31
312.787	365.31
313.017	384.31
313.246	363.31
313.476	361.31
313.706	370.31
313.935	348.31
314.165	384.31
314.394	377.31
314.624	387.31
314.853	355.31
315.083	376.31
315.312	340.31
315.542	368.31
315.771	333.31
316.001	339.31
316.23	355.31
316.46	351.31
316.689	374.31
316.919	377.31
317.148	377.31
317.377	376.31
317.607	382.31
317.836	368.31
318.065	362.31
318.295	347.31
318.524	358.31
318.753	342.31
318.983	361.31
319.212	360.31
319.441	376.31
319.67	348.31
319.9	358.31
320.129	359.31
320.358	368.31
320.587	373.31
320.816	382.31
321.046	381.31
321.275	384.31
321.504	392.31
321.733	401.31
321.962	395.31
322.191	409.31
322.42	402.31
322.649	434.31
322.878	426.31
323.108	448.31
323.337	463.31
323.566	474.31
323.795	530.31
324.024	576.31
324.253	690.31
324.482	1000.31
324.71	1494.31
324.939	2063.31
325.168	1742.31
325.397	932.31
325.626	654.31
325.855	561.31
326.084	496.31
326.313	497.31
326.542	500.31
326.77	558.31
326.999	638.31
327.228	884.31
327.457	1288.31
327.686	1510.31
327.914	1030.31
328.143	693.31
328.372	605.31
328.6	579.31
328.829	506.31
329.058	536.31
329.287	550.31
329.515	518.31
329.744	486.31
329.972	470.31
330.201	476.31
330.43	517.31
330.658	541.31
330.887	556.31
331.115	550.31
331.344	488.31
331.572	446.31
331.801	449.31
332.03	454.31
332.258	454.31
332.486	428.31
332.715	409.31
332.943	412.31
333.172	406.31
333.4	396.31
333.629	407.31
333.857	427.31
334.085	436.31
334.314	456.31
334.542	462.31
334.771	478.31
334.999	418.31
335.227	441.31
335.455	417.31
335.684	428.31
335.912	384.31
336.14	407.31
336.369	405.31
336.597	409.31
336.825	418.31
337.053	420.31
337.281	392.31
337.51	388.31
337.738	393.31
337.966	392.31
338.194	410.31
338.422	423.31
338.65	396.31
338.878	399.31
339.106	390.31
339.334	388.31
339.562	393.31
339.79	378.31
340.018	394.31
340.246	389.31
340.474	397.31
340.702	389.31
340.93	380.31
341.158	378.31
341.386	395.31
341.614	385.31
341.842	387.31
342.07	389.31
342.298	379.31
342.526	398.31
342.754	363.31
342.981	376.31
343.209	376.31
343.437	387.31
343.665	378.31
343.893	374.31
344.12	378.31
344.348	398.31
344.576	396.31
344.804	395.31
345.031	398.31
345.259	408.31
345.487	406.31
345.714	392.31
345.942	372.31
346.17	378.31
346.397	375.31
346.625	385.31
346.853	380.31
347.08	377.31
347.308	380.31
347.535	380.31
347.763	391.31
347.99	398.31
348.218	379.31
348.445	413.31
348.673	391.31
348.9	376.31
349.128	364.31
349.355	361.31
349.583	352.31
349.81	372.31
350.037	341.31
350.265	365.31
350.492	371.31
350.72	362.31
350.947	360.31
351.174	376.31
351.402	379.31
351.629	376.31
351.856	372.31
352.083	385.31
352.311	404.31
352.538	390.31
352.765	388.31
352.992	387.31
353.22	384.31
353.447	368.31
353.674	380.31
353.901	383.31
354.128	360.31
354.355	354.31
354.583	361.31
354.81	357.31
355.037	392.31
355.264	355.31
355.491	346.31
355.718	354.31
355.945	344.31
356.172	376.31
356.399	358.31
356.626	345.31
356.853	332.31
357.08	345.31
357.307	332.31
357.534	345.31
357.761	329.31
357.988	344.31
358.215	338.31
358.441	349.31
358.668	341.31
358.895	337.31
359.122	385.31
359.349	372.31
359.576	383.31
359.802	387.31
360.029	409.31
360.256	422.31
360.483	403.31
360.709	381.31
360.936	378.31
361.163	376.31
361.39	368.31
361.616	384.31
361.843	361.31
362.07	361.31
362.296	378.31
362.523	359.31
362.749	373.31
362.976	376.31
363.203	354.31
363.429	347.31
363.656	348.31
363.882	345.31
364.109	351.31
364.335	352.31
364.562	343.31
364.788	361.31
365.015	322.31
365.241	353.31
365.468	353.31
365.694	360.31
365.92	366.31
366.147	347.31
366.373	341.31
366.599	355.31
366.826	343.31
367.052	329.31
367.278	359.31
367.505	363.31
367.731	334.31
367.957	347.31
368.184	325.31
368.41	359.31
368.636	364.31
368.862	349.31
369.089	368.31
369.315	353.31
369.541	348.31
369.767	341.31
369.993	357.31
370.219	345.31
370.445	367.31
370.672	327.31
370.898	351.31
371.124	350.31
371.35	333.31
371.576	337.31
371.802	344.31
372.028	348.31
372.254	324.31
372.48	345.31
372.706	349.31
372.932	347.31
373.158	337.31
373.384	322.31
373.61	350.31
373.835	336.31
374.061	343.31
374.287	356.31
374.513	334.31
374.739	347.31
374.965	356.31
375.191	334.31
375.416	347.31
375.642	348.31
375.868	346.31
376.094	336.31
376.319	333.31
376.545	334.31
376.771	324.31
376.997	328.31
377.222	320.31
377.448	343.31
377.674	329.31
377.899	340.31
378.125	341.31
378.35	328.31
378.576	336.31
378.802	314.31
379.027	337.31
379.253	351.31
379.478	347.31
379.704	338.31
379.929	327.31
380.155	334.31
380.38	357.31
380.606	356.31
380.831	345.31
381.057	348.31
381.282	341.31
381.507	343.31
381.733	338.31
381.958	342.31
382.184	333.31
382.409	328.31
382.634	330.31
382.86	348.31
383.085	338.31
383.31	352.31
383.535	340.31
383.761	352.31
383.986	344.31
384.211	306.31
384.436	340.31
384.662	329.31
384.887	360.31
385.112	350.31
385.337	344.31
385.562	352.31
385.787	341.31
386.013	368.31
386.238	356.31
386.463	366.31
386.688	354.31
386.913	350.31
387.138	383.31
387.363	358.31
387.588	348.31
387.813	337.31
388.038	352.31
388.263	338.31
388.488	360.31
388.713	352.31
388.938	349.31
389.163	362.31
389.387	368.31
389.612	350.31
389.837	326.31
390.062	345.31
390.287	359.31
390.512	353.31
390.736	343.31
390.961	360.31
391.186	351.31
391.411	355.31
391.636	346.31
391.86	344.31
392.085	364.31
392.31	345.31
392.534	362.31
392.759	357.31
392.984	340.31
393.208	372.31
393.433	345.31
393.658	369.31
393.882	344.31
394.107	349.31
394.331	350.31
394.556	373.31
394.78	355.31
395.005	350.31
395.229	340.31
395.454	349.31
395.678	356.31
395.903	354.31
396.127	392.31
396.352	372.31
396.576	378.31
396.801	359.31
397.025	351.31
397.249	367.31
397.474	379.31
397.698	368.31
397.922	390.31
398.147	394.31
398.371	389.31
398.595	392.31
398.82	392.31
399.044	397.31
399.268	401.31
399.492	414.31
399.717	414.31
399.941	427.31
400.165	469.31
400.389	475.31
400.613	429.31
400.837	415.31
401.062	385.31
401.286	384.31
401.51	381.31
401.734	389.31
401.958	413.31
402.182	410.31
402.406	384.31
402.63	398.31
402.854	392.31
403.078	414.31
403.302	394.31
403.526	412.31
403.75	412.31
403.974	412.31
404.198	407.31
404.422	394.31
404.645	404.31
404.869	407.31
405.093	436.31
405.317	437.31
405.541	468.31
405.765	429.31
405.988	421.31
406.212	432.31
406.436	431.31
406.66	460.31
406.883	444.31
407.107	448.31
407.331	491.31
407.555	536.31
407.778	526.31
408.002	505.31
408.226	449.31
408.449	449.31
408.673	448.31
408.896	467.31
409.12	489.31
409.344	471.31
409.567	454.31
409.791	397.31
410.014	414.31
410.238	400.31
410.461	398.31
410.685	398.31
410.908	423.31
411.132	446.31
411.355	459.31
411.578	449.31
411.802	401.31
412.025	413.31
412.249	386.31
412.472	405.31
412.695	451.31
412.919	436.31
413.142	417.31
413.365	382.31
413.589	391.31
413.812	411.31
414.035	380.31
414.258	393.31
414.482	374.31
414.705	369.31
414.928	381.31
415.151	368.31
415.374	362.31
415.597	360.31
415.821	354.31
416.044	369.31
416.267	374.31
416.49	383.31
416.713	388.31
416.936	372.31
417.159	394.31
417.382	401.31
417.605	380.31
417.828	388.31
418.051	397.31
418.274	398.31
418.497	385.31
418.72	390.31
418.943	382.31
419.166	402.31
419.389	384.31
419.611	401.31
419.834	391.31
420.057	399.31
420.28	413.31
420.503	394.31
420.726	385.31
420.948	404.31
421.171	439.31
421.394	456.31
421.617	415.31
421.839	381.31
422.062	397.31
422.285	414.31
422.507	474.31
422.73	532.31
422.953	510.31
423.175	406.31
423.398	421.31
423.621	416.31
423.843	448.31
424.066	405.31
424.288	421.31
424.511	451.31
424.733	468.31
424.956	557.31
425.178	550.31
425.401	530.31
425.623	538.31
425.846	475.31
426.068	454.31
426.291	455.31
426.513	419.31
426.735	433.31
426.958	486.31
427.18	554.31
427.402	664.31
427.625	721.31
427.847	632.31
428.069	530.31
428.292	497.31
428.514	445.31
428.736	420.31
428.958	420.31
429.181	411.31
429.403	404.31
429.625	425.31
429.847	453.31
430.069	471.31
430.292	499.31
430.514	424.31
430.736	418.31
430.958	384.31
431.18	379.31
431.402	392.31
431.624	373.31
431.846	384.31
432.068	386.31
432.29	394.31
432.512	389.31
432.734	381.31
432.956	371.31
433.178	386.31
433.4	385.31
433.622	390.31
433.844	372.31
434.066	359.31
434.287	357.31
434.509	377.31
434.731	378.31
434.953	393.31
435.175	414.31
435.397	421.31
435.618	434.31
435.84	486.31
436.062	546.31
436.284	593.31
436.505	496.31
436.727	458.31
436.949	416.31
437.17	405.31
437.392	427.31
437.614	411.31
437.835	458.31
438.057	544.31
438.278	611.31
438.5	617.31
438.721	653.31
438.943	641.31
439.165	497.31
439.386	459.31
439.608	432.31
439.829	436.31
440.05	462.31
440.272	520.31
440.493	463.31
440.715	453.31
440.936	410.31
441.158	402.31
441.379	406.31
441.6	386.31
441.822	438.31
442.043	469.31
442.264	553.31
442.486	564.31
442.707	488.31
442.928	466.31
443.149	466.31
443.371	471.31
443.592	512.31
443.813	575.31
444.034	610.31
444.255	512.31
444.476	453.31
444.698	416.31
444.919	422.31
445.14	546.31
445.361	478.31
445.582	470.31
445.803	512.31
446.024	616.31
446.245	611.31
446.466	544.31
446.687	466.31
446.908	438.31
447.129	414.31
447.35	415.31
447.571	400.31
447.792	390.31
448.013	402.31
448.234	430.31
448.455	482.31
448.675	571.31
448.896	633.31
449.117	540.31
449.338	524.31
449.559	605.31
449.779	671.31
450	550.31
450.221	456.31
450.442	407.31
450.662	399.31
450.883	403.31
451.104	443.31
451.324	415.31
451.545	394.31
451.766	366.31
451.986	388.31
452.207	362.31
452.428	352.31
452.648	368.31
452.869	369.31
453.089	353.31
453.31	388.31
453.53	367.31
453.751	363.31
453.971	382.31
454.192	384.31
454.412	383.31
454.633	366.31
454.853	361.31
455.073	364.31
455.294	393.31
455.514	440.31
455.734	437.31
455.955	355.31
456.175	352.31
456.395	367.31
456.616	333.31
456.836	332.31
457.056	341.31
457.276	313.31
457.497	332.31
457.717	334.31
457.937	351.31
458.157	347.31
458.377	348.31
458.598	363.31
458.818	424.31
459.038	483.31
459.258	486.31
459.478	421.31
459.698	391.31
459.918	382.31
460.138	380.31
460.358	369.31
460.578	382.31
460.798	374.31
461.018	363.31
461.238	384.31
461.458	382.31
461.678	381.31
461.898	377.31
462.118	379.31
462.338	379.31
462.558	386.31
462.777	396.31
462.997	378.31
463.217	404.31
463.437	382.31
463.657	395.31
463.876	396.31
464.096	385.31
464.316	376.31
464.536	402.31
464.755	397.31
464.975	397.31
465.195	428.31
465.414	498.31
465.634	434.31
465.854	401.31
466.073	363.31
466.293	401.31
466.512	358.31
466.732	360.31
466.951	361.31
467.171	354.31
467.391	372.31
467.61	369.31
467.829	396.31
468.049	381.31
468.268	363.31
468.488	366.31
468.707	357.31
468.927	360.31
469.146	362.31
469.365	364.31
469.585	371.31
469.804	359.31
470.023	365.31
470.243	365.31
470.462	369.31
470.681	384.31
470.901	378.31
471.12	378.31
471.339	381.31
471.558	384.31
471.777	358.31
471.997	383.31
472.216	365.31
472.435	376.31
472.654	386.31
472.873	368.31
473.092	377.31
473.311	365.31
473.53	379.31
473.749	387.31
473.968	434.31
474.187	516.31
474.406	526.31
474.625	438.31
474.844	397.31
475.063	378.31
475.282	373.31
475.501	394.31
475.72	388.31
475.939	374.31
476.158	390.31
476.377	384.31
476.596	392.31
476.814	366.31
477.033	393.31
477.252	376.31
477.471	395.31
477.69	404.31
477.908	412.31
478.127	407.31
478.346	406.31
478.564	415.31
478.783	394.31
479.002	396.31
479.22	415.31
479.439	408.31
479.658	446.31
479.876	432.31
480.095	444.31
480.313	472.31
480.532	452.31
480.751	452.31
480.969	461.31
481.188	476.31
481.406	492.31
481.624	464.31
481.843	445.31
482.061	441.31
482.28	430.31
482.498	437.31
482.717	430.31
482.935	431.31
483.153	428.31
483.372	440.31
483.59	442.31
483.808	428.31
484.027	440.31
484.245	431.31
484.463	458.31
484.681	442.31
484.9	438.31
485.118	453.31
485.336	427.31
485.554	448.31
485.772	440.31
485.99	461.31
486.209	449.31
486.427	448.31
486.645	451.31
486.863	466.31
487.081	462.31
487.299	466.31
487.517	459.31
487.735	488.31
487.953	482.31
488.171	452.31
488.389	463.31
488.607	469.31
488.825	465.31
489.043	459.31
489.261	486.31
489.479	456.31
489.696	471.31
489.914	459.31
490.132	472.31
490.35	484.31
490.568	505.31
490.786	491.31
491.003	488.31
491.221	508.31
491.439	528.31
491.657	521.31
491.874	542.31
492.092	560.31
492.31	541.31
492.527	556.31
492.745	513.31
492.963	521.31
493.18	534.31
493.398	510.31
493.615	541.31
493.833	544.31
494.05	550.31
494.268	549.31
494.485	537.31
494.703	517.31
494.92	556.31
495.138	528.31
495.355	540.31
495.573	552.31
495.79	555.31
496.008	548.31
496.225	527.31
496.442	578.31
496.66	548.31
496.877	557.31
497.094	560.31
497.312	567.31
497.529	573.31
497.746	570.31
497.963	576.31
498.181	598.31
498.398	610.31
498.615	584.31
498.832	601.31
499.049	622.31
499.267	636.31
499.484	646.31
499.701	640.31
499.918	652.31
500.135	674.31
500.352	655.31
500.569	682.31
500.786	680.31
501.003	689.31
501.22	694.31
501.437	684.31
501.654	668.31
501.871	658.31
502.088	671.31
502.305	613.31
502.522	616.31
502.739	594.31
502.956	593.31
503.172	578.31
503.389	604.31
503.606	571.31
503.823	597.31
504.04	564.31
504.256	561.31
504.473	528.31
504.69	567.31
504.907	541.31
505.123	551.31
505.34	526.31
505.557	544.31
505.773	549.31
505.99	548.31
506.207	540.31
506.423	534.31
506.64	535.31
506.856	530.31
507.073	528.31
507.289	497.31
507.506	523.31
507.722	550.31
507.939	551.31
508.155	535.31
508.372	523.31
508.588	534.31
508.805	517.31
509.021	534.31
509.238	531.31
509.454	526.31
509.67	502.31
509.887	520.31
510.103	512.31
510.319	518.31
510.536	603.31
510.752	1015.31
510.968	810.31
511.184	526.31
511.401	511.31
511.617	496.31
511.833	498.31
512.049	489.31
512.265	505.31
512.481	489.31
512.698	499.31
512.914	501.31
513.13	491.31
513.346	488.31
513.562	476.31
513.778	488.31
513.994	498.31
514.21	521.31
514.426	541.31
514.642	574.31
514.858	566.31
515.074	633.31
515.29	730.31
515.506	1076.31
515.721	916.31
515.937	626.31
516.153	552.31
516.369	548.31
516.585	534.31
516.801	517.31
517.016	511.31
517.232	504.31
517.448	489.31
517.664	504.31
517.879	504.31
518.095	481.31
518.311	494.31
518.527	474.31
518.742	491.31
518.958	479.31
519.173	494.31
519.389	469.31
519.605	499.31
519.82	484.31
520.036	516.31
520.251	524.31
520.467	520.31
520.682	545.31
520.898	538.31
521.113	559.31
521.329	601.31
521.544	673.31
521.76	877.31
521.975	1484.31
522.19	1372.31
522.406	761.31
522.621	575.31
522.836	523.31
523.052	521.31
523.267	491.31
523.482	466.31
523.698	446.31
523.913	459.31
524.128	455.31
524.343	451.31
524.559	429.31
524.774	426.31
524.989	452.31
525.204	444.31
525.419	432.31
525.634	442.31
525.849	422.31
526.064	426.31
526.28	425.31
526.495	404.31
526.71	389.31
526.925	389.31
527.14	396.31
527.355	396.31
527.57	387.31
527.785	415.31
527.999	382.31
528.214	391.31
528.429	396.31
528.644	400.31
528.859	396.31
529.074	418.31
529.289	421.31
529.503	488.31
529.718	485.31
529.933	428.31
530.148	414.31
530.363	405.31
530.577	390.31
530.792	391.31
531.007	376.31
531.221	406.31
531.436	386.31
531.651	396.31
531.865	392.31
532.08	355.31
532.295	394.31
532.509	368.31
532.724	376.31
532.938	384.31
533.153	376.31
533.367	373.31
533.582	371.31
533.796	394.31
534.011	373.31
534.225	370.31
534.44	375.31
534.654	365.31
534.868	373.31
535.083	384.31
535.297	360.31
535.511	392.31
535.726	376.31
535.94	378.31
536.154	381.31
536.369	380.31
536.583	364.31
536.797	351.31
537.011	348.31
537.225	357.31
537.44	370.31
537.654	373.31
537.868	380.31
538.082	369.31
538.296	372.31
538.51	352.31
538.724	386.31
538.938	352.31
539.153	378.31
539.367	381.31
539.581	379.31
539.795	383.31
540.009	374.31
540.222	376.31
540.436	351.31
540.65	363.31
540.864	373.31
541.078	375.31
541.292	367.31
541.506	382.31
541.72	364.31
541.934	356.31
542.147	379.31
542.361	370.31
542.575	370.31
542.789	361.31
543.002	353.31
543.216	372.31
543.43	374.31
543.644	361.31
543.857	374.31
544.071	364.31
544.285	364.31
544.498	359.31
544.712	372.31
544.925	367.31
545.139	357.31
545.352	351.31
545.566	351.31
545.779	353.31
545.993	356.31
546.206	360.31
546.42	357.31
546.633	332.31
546.847	347.31
547.06	332.31
547.274	334.31
547.487	340.31
547.7	322.31
547.914	325.31
548.127	337.31
548.34	353.31
548.554	344.31
548.767	346.31
548.98	339.31
549.193	342.31
549.407	353.31
549.62	361.31
549.833	350.31
550.046	351.31
550.259	346.31
550.473	339.31
550.686	346.31
550.899	336.31
551.112	343.31
551.325	346.31
551.538	339.31
551.751	315.31
551.964	340.31
552.177	340.31
552.39	327.31
552.603	323.31
552.816	340.31
553.029	335.31
553.242	339.31
553.455	335.31
553.667	343.31
553.88	364.31
554.093	371.31
554.306	342.31
554.519	321.31
554.732	334.31
554.944	354.31
555.157	314.31
555.37	316.31
555.583	312.31
555.795	331.31
556.008	317.31
556.221	322.31
556.433	342.31
556.646	314.31
556.859	337.31
557.071	292.31
557.284	318.31
557.496	307.31
557.709	305.31
557.921	310.31
558.134	312.31
558.346	306.31
558.559	324.31
558.771	316.31
558.984	303.31
559.196	319.31
559.409	301.31
559.621	320.31
559.833	312.31
560.046	303.31
560.258	316.31
560.47	291.31
560.683	293.31
560.895	322.31
561.107	299.31
561.32	296.31
561.532	310.31
561.744	308.31
561.956	320.31
562.168	305.31
562.381	316.31
562.593	310.31
562.805	316.31
563.017	308.31
563.229	302.31
563.441	316.31
563.653	315.31
563.865	307.31
564.077	305.31
564.289	308.31
564.501	316.31
564.713	310.31
564.925	320.31
565.137	305.31
565.349	334.31
565.561	324.31
565.773	328.31
565.985	329.31
566.197	332.31
566.408	331.31
566.62	341.31
566.832	343.31
567.044	375.31
567.255	340.31
567.467	350.31
567.679	368.31
567.891	359.31
568.102	352.31
568.314	339.31
568.526	338.31
568.737	328.31
568.949	309.31
569.161	343.31
569.372	311.31
569.584	325.31
569.795	320.31
570.007	310.31
570.218	338.31
570.43	335.31
570.641	293.31
570.853	298.31
571.064	290.31
571.276	285.31
571.487	285.31
571.698	302.31
571.91	291.31
572.121	292.31
572.333	291.31
572.544	284.31
572.755	270.31
572.966	283.31
573.178	288.31
573.389	279.31
573.6	280.31
573.811	289.31
574.023	267.31
574.234	278.31
574.445	280.31
574.656	274.31
574.867	250.31
575.078	269.31
575.289	264.31
575.501	256.31
575.712	270.31
575.923	276.31
576.134	272.31
576.345	263.31
576.556	250.31
576.767	255.31
576.978	264.31
577.188	266.31
577.399	272.31
577.61	248.31
577.821	261.31
578.032	266.31
578.243	289.31
578.454	465.31
578.665	345.31
578.875	253.31
579.086	256.31
579.297	254.31
579.508	249.31
579.718	264.31
579.929	257.31
580.14	229.31
580.35	246.31
580.561	242.31
580.772	241.31
580.982	233.31
581.193	240.31
581.403	248.31
581.614	266.31
581.825	260.31
582.035	247.31
582.246	256.31
582.456	237.31
582.667	240.31
582.877	263.31
583.087	247.31
583.298	234.31
583.508	249.31
583.719	224.31
583.929	254.31
584.139	232.31
584.35	245.31
584.56	239.31
584.77	257.31
584.981	260.31
585.191	244.31
585.401	247.31
585.611	237.31
585.821	254.31
586.032	222.31
586.242	225.31
586.452	237.31
586.662	241.31
586.872	242.31
587.082	241.31
587.292	250.31
587.502	245.31
587.713	238.31
587.923	247.31
588.133	238.31
588.343	243.31
588.553	227.31
588.762	238.31
588.972	251.31
589.182	303.31
589.392	305.31
589.602	266.31
589.812	298.31
590.022	268.31
590.232	241.31
590.441	235.31
590.651	231.31
590.861	246.31
591.071	233.31
591.281	222.31
591.49	242.31
591.7	226.31
591.91	219.31
592.119	264.31
592.329	251.31
592.539	251.31
592.748	248.31
592.958	240.31
593.167	258.31
593.377	234.31
593.587	251.31
593.796	249.31
594.006	239.31
594.215	246.31
594.424	224.31
594.634	246.31
594.843	245.31
595.053	244.31
595.262	231.31
595.472	242.31
595.681	230.31
595.89	240.31
596.1	236.31
596.309	236.31
596.518	238.31
596.727	229.31
596.937	222.31
597.146	223.31
597.355	237.31
597.564	231.31
597.774	228.31
597.983	206.31
598.192	206.31
598.401	217.31
598.61	215.31
598.819	209.31
599.028	230.31
599.237	221.31
599.446	237.31
599.655	223.31
599.864	225.31
600.073	215.31
600.282	203.31
600.491	217.31
600.7	232.31
600.909	207.31
601.118	216.31
601.327	198.31
601.536	208.31
601.745	216.31
601.953	201.31
602.162	200.31
602.371	211.31
602.58	214.31
602.789	236.31
602.997	198.31
603.206	216.31
603.415	200.31
603.623	199.31
603.832	205.31
604.041	210.31
604.249	189.31
604.458	199.31
604.666	205.31
604.875	202.31
605.084	193.31
605.292	202.31
605.501	206.31
605.709	199.31
605.918	189.31
606.126	191.31
606.334	189.31
606.543	199.31
606.751	182.31
606.96	217.31
607.168	201.31
607.376	203.31
607.585	210.31
607.793	214.31
608.001	198.31
608.21	222.31
608.418	201.31
608.626	193.31
608.834	196.31
609.043	187.31
609.251	215.31
609.459	197.31
609.667	193.31
609.875	192.31
610.083	206.31
610.291	209.31
610.499	186.31
610.707	202.31
610.916	201.31
611.124	216.31
611.332	195.31
611.54	186.31
611.748	223.31
611.955	200.31
612.163	192.31
612.371	196.31
612.579	198.31
612.787	197.31
612.995	207.31
613.203	211.31
613.411	195.31
613.618	205.31
613.826	201.31
614.034	206.31
614.242	184.31
614.449	191.31
614.657	187.31
614.865	194.31
615.072	200.31
615.28	186.31
615.488	194.31
615.695	193.31
615.903	196.31
616.111	199.31
616.318	196.31
616.526	195.31
616.733	188.31
616.941	198.31
617.148	196.31
617.356	194.31
617.563	196.31
617.771	199.31
617.978	206.31
618.185	183.31
618.393	198.31
618.6	196.31
618.807	205.31
619.015	210.31
619.222	185.31
619.429	186.31
619.637	195.31
619.844	198.31
620.051	202.31
620.258	194.31
620.466	182.31
620.673	186.31
620.88	189.31
621.087	172.31
621.294	174.31
621.501	194.31
621.708	205.31
621.915	182.31
622.122	185.31
622.329	194.31
622.536	206.31
622.743	191.31
622.95	190.31
623.157	185.31
623.364	191.31
623.571	177.31
623.778	193.31
623.985	185.31
624.192	182.31
624.399	176.31
624.606	180.31
624.812	184.31
625.019	182.31
625.226	181.31
625.433	188.31
625.639	163.31
625.846	186.31
626.053	177.31
626.259	184.31
626.466	182.31
626.673	174.31
626.879	186.31
627.086	174.31
627.293	177.31
627.499	171.31
627.706	170.31
627.912	181.31
628.119	180.31
628.325	177.31
628.532	160.31
628.738	166.31
628.945	174.31
629.151	172.31
629.357	170.31
629.564	176.31
629.77	180.31
629.976	170.31
630.183	174.31
630.389	193.31
630.595	150.31
630.802	172.31
631.008	160.31
631.214	157.31
631.42	155.31
631.627	169.31
631.833	180.31
632.039	170.31
632.245	163.31
632.451	152.31
632.657	160.31
632.863	151.31
633.069	180.31
633.275	156.31
633.481	173.31
633.688	154.31
633.893	172.31
634.099	160.31
634.305	166.31
634.511	179.31
634.717	168.31
634.923	156.31
635.129	157.31
635.335	147.31
635.541	148.31
635.747	161.31
635.952	157.31
636.158	164.31
636.364	158.31
636.57	165.31
636.775	164.31
636.981	155.31
637.187	160.31
637.392	149.31
637.598	153.31
637.804	166.31
638.009	175.31
638.215	161.31
638.421	154.31
638.626	156.31
638.832	160.31
639.037	156.31
639.243	144.31
639.448	148.31
639.654	150.31
639.859	164.31
640.065	170.31
640.27	153.31
640.475	169.31
640.681	146.31
640.886	164.31
641.091	156.31
641.297	162.31
641.502	152.31
641.707	148.31
641.913	169.31
642.118	149.31
642.323	156.31
642.528	155.31
642.733	151.31
642.939	135.31
643.144	144.31
643.349	147.31
643.554	150.31
643.759	158.31
643.964	150.31
644.169	127.31
644.374	139.31
644.579	150.31
644.784	140.31
644.989	158.31
645.194	149.31
645.399	138.31
645.604	147.31
645.809	152.31
646.014	151.31
646.219	136.31
646.423	144.31
646.628	141.31
646.833	157.31
647.038	149.31
647.243	159.31
647.447	161.31
647.652	140.31
647.857	155.31
648.062	148.31
648.266	152.31
648.471	147.31
648.676	162.31
648.88	148.31
649.085	151.31
649.289	150.31
649.494	140.31
649.698	154.31
649.903	166.31
650.107	161.31
650.312	160.31
650.516	147.31
650.721	153.31
650.925	159.31
651.13	121.31
651.334	147.31
651.539	143.31
651.743	152.31
651.947	142.31
652.152	129.31
652.356	128.31
652.56	153.31
652.764	148.31
652.969	126.31
653.173	134.31
653.377	126.31
653.581	132.31
653.785	128.31
653.99	142.31
654.194	130.31
654.398	127.31
654.602	137.31
654.806	135.31
655.01	144.31
655.214	134.31
655.418	141.31
655.622	127.31
655.826	123.31
656.03	130.31
656.234	137.31
656.438	123.31
656.642	142.31
656.846	132.31
657.049	124.31
657.253	113.31
657.457	109.31
657.661	111.31
657.865	114.31
658.068	129.31
658.272	98.31
658.476	105.31
658.68	104.31
658.883	110.31
659.087	102.31
659.291	96.31
659.494	96.31
659.698	95.31
659.901	114.31
660.105	102.31
660.309	97.31
660.512	89.31
660.716	94.31
660.919	107.31
661.123	92.31
661.326	86.31
661.53	106.31
661.733	94.31
661.936	102.31
662.14	98.31
662.343	98.31
662.546	93.31
662.75	80.31
662.953	93.31
663.156	87.31
663.36	95.31
663.563	103.31
663.766	83.31
663.969	81.31
664.173	100.31
664.376	76.31
664.579	96.31
664.782	76.31
664.985	75.31
665.188	72.31
665.391	83.31
665.594	79.31
665.797	85.31
666	87.31
666.203	90.31
666.406	76.31
666.609	81.31
666.812	103.31
667.015	95.31
667.218	83.31
667.421	94.31
667.624	90.31
667.827	88.31
668.03	88.31
668.232	85.31
668.435	92.31
668.638	92.31
668.841	93.31
669.043	83.31
669.246	89.31
669.449	94.31
669.651	87.31
669.854	92.31
670.057	89.31
670.259	74.31
670.462	98.31
670.665	91.31
670.867	88.31
671.07	101.31
671.272	80.31
671.475	88.31
671.677	72.31
671.88	97.31
672.082	86.31
672.284	89.31
672.487	88.31
672.689	94.31
672.892	82.31
