Data from 1981.PennyLincolnUp.Lamp.En5.5.200Scan.071819.P1_HRD10591_16-42-24-959.txt Node
Date: Thu Jul 18 16:42:24 EDT 2019
User: cochatt
Spectrometer: HR+D1059
Trigger mode: 1
Integration Time (sec): 1.000000E-1
Scans to average: 1
Electric dark correction enabled: true
Nonlinearity correction enabled: false
Boxcar width: 0
XAxis mode: Wavelengths
Number of Pixels in Spectrum: 2048
>>>>>Begin Spectral Data<<<<<
223.165	-16.81
223.4	-16.81
223.635	-16.81
223.869	-13.81
224.104	-9.81
224.338	-21.81
224.573	-21.81
224.808	-16.81
225.042	-8.81
225.277	-9.81
225.511	-4.81
225.746	0.19
225.98	13.19
226.215	16.19
226.449	24.19
226.683	21.19
226.918	29.19
227.152	20.19
227.387	37.19
227.621	19.19
227.856	43.19
228.09	50.19
228.324	51.19
228.559	61.19
228.793	89.19
229.027	101.19
229.262	103.19
229.496	116.19
229.73	148.19
229.964	163.19
230.199	148.19
230.433	104.19
230.667	132.19
230.901	111.19
231.136	129.19
231.37	115.19
231.604	109.19
231.838	124.19
232.072	130.19
232.306	114.19
232.541	109.19
232.775	116.19
233.009	126.19
233.243	123.19
233.477	126.19
233.711	128.19
233.945	113.19
234.179	121.19
234.413	134.19
234.647	130.19
234.881	114.19
235.115	130.19
235.349	122.19
235.583	137.19
235.817	112.19
236.051	130.19
236.285	127.19
236.519	128.19
236.753	152.19
236.987	157.19
237.221	214.19
237.455	231.19
237.689	193.19
237.922	151.19
238.156	134.19
238.39	130.19
238.624	136.19
238.858	146.19
239.091	130.19
239.325	128.19
239.559	131.19
239.793	131.19
240.027	136.19
240.26	140.19
240.494	161.19
240.728	168.19
240.961	167.19
241.195	162.19
241.429	124.19
241.662	148.19
241.896	146.19
242.13	147.19
242.363	134.19
242.597	140.19
242.83	155.19
243.064	158.19
243.298	148.19
243.531	136.19
243.765	148.19
243.998	155.19
244.232	160.19
244.465	159.19
244.699	146.19
244.932	158.19
245.166	146.19
245.399	165.19
245.633	146.19
245.866	151.19
246.099	146.19
246.333	162.19
246.566	173.19
246.8	154.19
247.033	176.19
247.266	186.19
247.5	160.19
247.733	176.19
247.966	178.19
248.2	186.19
248.433	188.19
248.666	183.19
248.899	183.19
249.133	224.19
249.366	213.19
249.599	217.19
249.832	198.19
250.066	188.19
250.299	203.19
250.532	193.19
250.765	218.19
250.998	251.19
251.231	249.19
251.465	239.19
251.698	222.19
251.931	217.19
252.164	218.19
252.397	205.19
252.63	203.19
252.863	222.19
253.096	235.19
253.329	245.19
253.562	244.19
253.795	240.19
254.028	244.19
254.261	243.19
254.494	261.19
254.727	287.19
254.96	310.19
255.193	316.19
255.426	266.19
255.659	257.19
255.892	266.19
256.124	271.19
256.357	250.19
256.59	250.19
256.823	242.19
257.056	234.19
257.289	245.19
257.521	241.19
257.754	230.19
257.987	212.19
258.22	207.19
258.452	220.19
258.685	222.19
258.918	221.19
259.151	237.19
259.383	215.19
259.616	231.19
259.849	244.19
260.081	269.19
260.314	279.19
260.547	290.19
260.779	260.19
261.012	251.19
261.244	258.19
261.477	250.19
261.71	238.19
261.942	247.19
262.175	268.19
262.407	240.19
262.64	236.19
262.872	226.19
263.105	213.19
263.337	221.19
263.57	228.19
263.802	232.19
264.035	232.19
264.267	225.19
264.499	228.19
264.732	210.19
264.964	221.19
265.197	224.19
265.429	224.19
265.661	226.19
265.894	228.19
266.126	204.19
266.358	226.19
266.591	246.19
266.823	242.19
267.055	238.19
267.287	238.19
267.52	238.19
267.752	257.19
267.984	238.19
268.216	258.19
268.448	246.19
268.681	224.19
268.913	273.19
269.145	282.19
269.377	291.19
269.609	295.19
269.841	281.19
270.073	301.19
270.306	323.19
270.538	329.19
270.77	347.19
271.002	336.19
271.234	313.19
271.466	316.19
271.698	323.19
271.93	323.19
272.162	340.19
272.394	347.19
272.626	340.19
272.858	310.19
273.09	288.19
273.322	302.19
273.553	284.19
273.785	278.19
274.017	276.19
274.249	271.19
274.481	293.19
274.713	278.19
274.945	288.19
275.176	282.19
275.408	292.19
275.64	273.19
275.872	275.19
276.104	279.19
276.335	290.19
276.567	290.19
276.799	301.19
277.031	334.19
277.262	351.19
277.494	338.19
277.726	314.19
277.957	318.19
278.189	296.19
278.421	303.19
278.652	305.19
278.884	280.19
279.115	284.19
279.347	268.19
279.579	274.19
279.81	282.19
280.042	284.19
280.273	271.19
280.505	312.19
280.736	282.19
280.968	283.19
281.199	281.19
281.431	280.19
281.662	286.19
281.894	276.19
282.125	283.19
282.356	293.19
282.588	303.19
282.819	336.19
283.051	307.19
283.282	292.19
283.513	303.19
283.745	283.19
283.976	282.19
284.207	303.19
284.439	267.19
284.67	296.19
284.901	296.19
285.132	280.19
285.364	270.19
285.595	280.19
285.826	276.19
286.057	298.19
286.288	285.19
286.52	290.19
286.751	278.19
286.982	293.19
287.213	302.19
287.444	277.19
287.675	315.19
287.906	310.19
288.138	320.19
288.369	318.19
288.6	315.19
288.831	298.19
289.062	310.19
289.293	283.19
289.524	311.19
289.755	314.19
289.986	291.19
290.217	301.19
290.448	296.19
290.679	300.19
290.91	286.19
291.141	280.19
291.371	266.19
291.602	303.19
291.833	296.19
292.064	311.19
292.295	293.19
292.526	290.19
292.757	299.19
292.987	298.19
293.218	294.19
293.449	314.19
293.68	305.19
293.91	299.19
294.141	286.19
294.372	282.19
294.603	295.19
294.833	286.19
295.064	288.19
295.295	285.19
295.525	295.19
295.756	315.19
295.987	323.19
296.217	332.19
296.448	337.19
296.679	328.19
296.909	304.19
297.14	310.19
297.37	313.19
297.601	290.19
297.831	289.19
298.062	316.19
298.292	310.19
298.523	302.19
298.753	296.19
298.984	318.19
299.214	296.19
299.445	293.19
299.675	327.19
299.905	325.19
300.136	311.19
300.366	320.19
300.597	335.19
300.827	324.19
301.057	323.19
301.288	326.19
301.518	322.19
301.748	333.19
301.979	319.19
302.209	328.19
302.439	339.19
302.669	325.19
302.9	337.19
303.13	343.19
303.36	335.19
303.59	339.19
303.82	356.19
304.051	344.19
304.281	327.19
304.511	325.19
304.741	343.19
304.971	338.19
305.201	334.19
305.431	333.19
305.661	329.19
305.891	323.19
306.121	345.19
306.352	355.19
306.582	364.19
306.812	345.19
307.042	330.19
307.272	340.19
307.502	336.19
307.731	338.19
307.961	348.19
308.191	332.19
308.421	327.19
308.651	339.19
308.881	358.19
309.111	354.19
309.341	360.19
309.571	362.19
309.8	371.19
310.03	372.19
310.26	399.19
310.49	384.19
310.72	404.19
310.949	390.19
311.179	409.19
311.409	397.19
311.639	395.19
311.868	411.19
312.098	402.19
312.328	395.19
312.557	412.19
312.787	423.19
313.017	416.19
313.246	410.19
313.476	388.19
313.706	376.19
313.935	401.19
314.165	432.19
314.394	429.19
314.624	432.19
314.853	388.19
315.083	404.19
315.312	382.19
315.542	392.19
315.771	388.19
316.001	387.19
316.23	371.19
316.46	390.19
316.689	392.19
316.919	386.19
317.148	435.19
317.377	416.19
317.607	401.19
317.836	402.19
318.065	395.19
318.295	396.19
318.524	383.19
318.753	401.19
318.983	379.19
319.212	407.19
319.441	386.19
319.67	422.19
319.9	407.19
320.129	397.19
320.358	401.19
320.587	394.19
320.816	408.19
321.046	444.19
321.275	425.19
321.504	406.19
321.733	417.19
321.962	436.19
322.191	451.19
322.42	464.19
322.649	479.19
322.878	478.19
323.108	493.19
323.337	527.19
323.566	561.19
323.795	597.19
324.024	657.19
324.253	844.19
324.482	1192.19
324.71	1875.19
324.939	2492.19
325.168	2154.19
325.397	1141.19
325.626	762.19
325.855	640.19
326.084	586.19
326.313	520.19
326.542	576.19
326.77	653.19
326.999	745.19
327.228	1032.19
327.457	1563.19
327.686	1851.19
327.914	1259.19
328.143	809.19
328.372	699.19
328.6	658.19
328.829	644.19
329.058	627.19
329.287	649.19
329.515	602.19
329.744	572.19
329.972	539.19
330.201	579.19
330.43	624.19
330.658	665.19
330.887	676.19
331.115	668.19
331.344	598.19
331.572	503.19
331.801	518.19
332.03	521.19
332.258	493.19
332.486	471.19
332.715	470.19
332.943	458.19
333.172	463.19
333.4	458.19
333.629	497.19
333.857	461.19
334.085	491.19
334.314	498.19
334.542	514.19
334.771	542.19
334.999	509.19
335.227	464.19
335.455	456.19
335.684	442.19
335.912	448.19
336.14	449.19
336.369	452.19
336.597	460.19
336.825	444.19
337.053	434.19
337.281	430.19
337.51	467.19
337.738	448.19
337.966	442.19
338.194	440.19
338.422	434.19
338.65	446.19
338.878	422.19
339.106	422.19
339.334	448.19
339.562	417.19
339.79	433.19
340.018	435.19
340.246	435.19
340.474	432.19
340.702	442.19
340.93	440.19
341.158	433.19
341.386	434.19
341.614	403.19
341.842	438.19
342.07	422.19
342.298	423.19
342.526	408.19
342.754	416.19
342.981	399.19
343.209	421.19
343.437	423.19
343.665	414.19
343.893	402.19
344.12	432.19
344.348	424.19
344.576	428.19
344.804	444.19
345.031	459.19
345.259	437.19
345.487	440.19
345.714	439.19
345.942	420.19
346.17	448.19
346.397	420.19
346.625	416.19
346.853	422.19
347.08	408.19
347.308	422.19
347.535	422.19
347.763	433.19
347.99	439.19
348.218	424.19
348.445	412.19
348.673	418.19
348.9	406.19
349.128	421.19
349.355	413.19
349.583	399.19
349.81	410.19
350.037	400.19
350.265	388.19
350.492	398.19
350.72	412.19
350.947	415.19
351.174	420.19
351.402	421.19
351.629	432.19
351.856	409.19
352.083	430.19
352.311	430.19
352.538	427.19
352.765	435.19
352.992	423.19
353.22	405.19
353.447	393.19
353.674	388.19
353.901	387.19
354.128	394.19
354.355	380.19
354.583	381.19
354.81	387.19
355.037	363.19
355.264	375.19
355.491	366.19
355.718	379.19
355.945	365.19
356.172	372.19
356.399	369.19
356.626	372.19
356.853	378.19
357.08	352.19
357.307	381.19
357.534	371.19
357.761	357.19
357.988	363.19
358.215	368.19
358.441	370.19
358.668	390.19
358.895	386.19
359.122	380.19
359.349	403.19
359.576	405.19
359.802	462.19
360.029	444.19
360.256	481.19
360.483	436.19
360.709	410.19
360.936	414.19
361.163	412.19
361.39	387.19
361.616	400.19
361.843	393.19
362.07	432.19
362.296	386.19
362.523	386.19
362.749	403.19
362.976	404.19
363.203	385.19
363.429	370.19
363.656	386.19
363.882	382.19
364.109	380.19
364.335	373.19
364.562	390.19
364.788	386.19
365.015	391.19
365.241	371.19
365.468	382.19
365.694	396.19
365.92	392.19
366.147	382.19
366.373	371.19
366.599	381.19
366.826	374.19
367.052	379.19
367.278	396.19
367.505	374.19
367.731	386.19
367.957	379.19
368.184	384.19
368.41	381.19
368.636	400.19
368.862	380.19
369.089	383.19
369.315	356.19
369.541	365.19
369.767	387.19
369.993	379.19
370.219	380.19
370.445	358.19
370.672	370.19
370.898	348.19
371.124	370.19
371.35	364.19
371.576	368.19
371.802	360.19
372.028	378.19
372.254	372.19
372.48	378.19
372.706	362.19
372.932	376.19
373.158	367.19
373.384	366.19
373.61	378.19
373.835	356.19
374.061	351.19
374.287	399.19
374.513	365.19
374.739	385.19
374.965	377.19
375.191	352.19
375.416	370.19
375.642	368.19
375.868	365.19
376.094	348.19
376.319	337.19
376.545	359.19
376.771	353.19
376.997	342.19
377.222	353.19
377.448	356.19
377.674	358.19
377.899	345.19
378.125	327.19
378.35	350.19
378.576	362.19
378.802	329.19
379.027	383.19
379.253	370.19
379.478	340.19
379.704	349.19
379.929	351.19
380.155	367.19
380.38	362.19
380.606	360.19
380.831	340.19
381.057	353.19
381.282	351.19
381.507	348.19
381.733	348.19
381.958	361.19
382.184	348.19
382.409	347.19
382.634	379.19
382.86	340.19
383.085	342.19
383.31	350.19
383.535	362.19
383.761	349.19
383.986	363.19
384.211	363.19
384.436	363.19
384.662	340.19
384.887	355.19
385.112	374.19
385.337	381.19
385.562	366.19
385.787	364.19
386.013	386.19
386.238	368.19
386.463	353.19
386.688	395.19
386.913	371.19
387.138	363.19
387.363	375.19
387.588	356.19
387.813	380.19
388.038	387.19
388.263	347.19
388.488	362.19
388.713	373.19
388.938	386.19
389.163	389.19
389.387	378.19
389.612	371.19
389.837	367.19
390.062	353.19
390.287	347.19
390.512	375.19
390.736	366.19
390.961	368.19
391.186	372.19
391.411	353.19
391.636	371.19
391.86	375.19
392.085	382.19
392.31	363.19
392.534	374.19
392.759	377.19
392.984	364.19
393.208	367.19
393.433	349.19
393.658	384.19
393.882	368.19
394.107	380.19
394.331	378.19
394.556	363.19
394.78	377.19
395.005	371.19
395.229	361.19
395.454	369.19
395.678	372.19
395.903	372.19
396.127	392.19
396.352	407.19
396.576	386.19
396.801	380.19
397.025	400.19
397.249	394.19
397.474	381.19
397.698	379.19
397.922	391.19
398.147	408.19
398.371	409.19
398.595	388.19
398.82	400.19
399.044	414.19
399.268	408.19
399.492	423.19
399.717	460.19
399.941	465.19
400.165	498.19
400.389	502.19
400.613	456.19
400.837	416.19
401.062	408.19
401.286	414.19
401.51	413.19
401.734	419.19
401.958	413.19
402.182	408.19
402.406	435.19
402.63	421.19
402.854	435.19
403.078	427.19
403.302	436.19
403.526	419.19
403.75	426.19
403.974	428.19
404.198	410.19
404.422	426.19
404.645	444.19
404.869	444.19
405.093	470.19
405.317	505.19
405.541	522.19
405.765	488.19
405.988	459.19
406.212	468.19
406.436	483.19
406.66	487.19
406.883	476.19
407.107	486.19
407.331	522.19
407.555	584.19
407.778	575.19
408.002	526.19
408.226	452.19
408.449	480.19
408.673	474.19
408.896	496.19
409.12	521.19
409.344	504.19
409.567	448.19
409.791	433.19
410.014	424.19
410.238	434.19
410.461	411.19
410.685	444.19
410.908	434.19
411.132	451.19
411.355	496.19
411.578	476.19
411.802	448.19
412.025	430.19
412.249	440.19
412.472	459.19
412.695	498.19
412.919	482.19
413.142	429.19
413.365	404.19
413.589	404.19
413.812	404.19
414.035	410.19
414.258	422.19
414.482	412.19
414.705	396.19
414.928	387.19
415.151	407.19
415.374	389.19
415.597	384.19
415.821	400.19
416.044	394.19
416.267	390.19
416.49	397.19
416.713	392.19
416.936	405.19
417.159	417.19
417.382	409.19
417.605	392.19
417.828	411.19
418.051	417.19
418.274	409.19
418.497	412.19
418.72	392.19
418.943	403.19
419.166	431.19
419.389	417.19
419.611	433.19
419.834	427.19
420.057	447.19
420.28	427.19
420.503	418.19
420.726	446.19
420.948	440.19
421.171	481.19
421.394	517.19
421.617	446.19
421.839	415.19
422.062	428.19
422.285	438.19
422.507	488.19
422.73	557.19
422.953	539.19
423.175	470.19
423.398	449.19
423.621	428.19
423.843	470.19
424.066	464.19
424.288	484.19
424.511	467.19
424.733	537.19
424.956	602.19
425.178	596.19
425.401	568.19
425.623	583.19
425.846	511.19
426.068	473.19
426.291	459.19
426.513	449.19
426.735	472.19
426.958	506.19
427.18	594.19
427.402	714.19
427.625	752.19
427.847	692.19
428.069	596.19
428.292	524.19
428.514	467.19
428.736	452.19
428.958	438.19
429.181	460.19
429.403	442.19
429.625	440.19
429.847	495.19
430.069	536.19
430.292	536.19
430.514	453.19
430.736	424.19
430.958	435.19
431.18	429.19
431.402	420.19
431.624	410.19
431.846	396.19
432.068	393.19
432.29	386.19
432.512	409.19
432.734	408.19
432.956	411.19
433.178	437.19
433.4	422.19
433.622	431.19
433.844	388.19
434.066	400.19
434.287	389.19
434.509	410.19
434.731	409.19
434.953	401.19
435.175	406.19
435.397	472.19
435.618	491.19
435.84	510.19
436.062	606.19
436.284	679.19
436.505	564.19
436.727	500.19
436.949	461.19
437.17	437.19
437.392	459.19
437.614	453.19
437.835	507.19
438.057	575.19
438.278	687.19
438.5	670.19
438.721	709.19
438.943	686.19
439.165	543.19
439.386	495.19
439.608	488.19
439.829	476.19
440.05	536.19
440.272	560.19
440.493	509.19
440.715	492.19
440.936	439.19
441.158	452.19
441.379	445.19
441.6	452.19
441.822	475.19
442.043	513.19
442.264	595.19
442.486	627.19
442.707	532.19
442.928	487.19
443.149	487.19
443.371	514.19
443.592	552.19
443.813	635.19
444.034	686.19
444.255	555.19
444.476	492.19
444.698	455.19
444.919	468.19
445.14	569.19
445.361	541.19
445.582	534.19
445.803	582.19
446.024	651.19
446.245	701.19
446.466	633.19
446.687	542.19
446.908	463.19
447.129	461.19
447.35	455.19
447.571	450.19
447.792	449.19
448.013	457.19
448.234	470.19
448.455	538.19
448.675	621.19
448.896	711.19
449.117	628.19
449.338	586.19
449.559	658.19
449.779	752.19
450	602.19
450.221	482.19
450.442	450.19
450.662	434.19
450.883	438.19
451.104	459.19
451.324	454.19
451.545	414.19
451.766	410.19
451.986	402.19
452.207	384.19
452.428	390.19
452.648	393.19
452.869	378.19
453.089	396.19
453.31	419.19
453.53	391.19
453.751	387.19
453.971	393.19
454.192	407.19
454.412	424.19
454.633	403.19
454.853	388.19
455.073	403.19
455.294	421.19
455.514	497.19
455.734	463.19
455.955	402.19
456.175	377.19
456.395	392.19
456.616	361.19
456.836	369.19
457.056	355.19
457.276	345.19
457.497	362.19
457.717	366.19
457.937	370.19
458.157	375.19
458.377	404.19
458.598	411.19
458.818	457.19
459.038	526.19
459.258	566.19
459.478	465.19
459.698	420.19
459.918	398.19
460.138	412.19
460.358	403.19
460.578	397.19
460.798	403.19
461.018	379.19
461.238	392.19
461.458	386.19
461.678	380.19
461.898	404.19
462.118	405.19
462.338	392.19
462.558	403.19
462.777	410.19
462.997	406.19
463.217	415.19
463.437	405.19
463.657	406.19
463.876	404.19
464.096	409.19
464.316	390.19
464.536	411.19
464.755	404.19
464.975	426.19
465.195	503.19
465.414	555.19
465.634	476.19
465.854	426.19
466.073	427.19
466.293	410.19
466.512	398.19
466.732	396.19
466.951	394.19
467.171	386.19
467.391	399.19
467.61	393.19
467.829	411.19
468.049	408.19
468.268	392.19
468.488	391.19
468.707	387.19
468.927	372.19
469.146	390.19
469.365	380.19
469.585	378.19
469.804	382.19
470.023	401.19
470.243	378.19
470.462	388.19
470.681	396.19
470.901	418.19
471.12	417.19
471.339	383.19
471.558	409.19
471.777	392.19
471.997	384.19
472.216	413.19
472.435	434.19
472.654	424.19
472.873	406.19
473.092	394.19
473.311	378.19
473.53	393.19
473.749	420.19
473.968	465.19
474.187	551.19
474.406	580.19
474.625	449.19
474.844	410.19
475.063	405.19
475.282	389.19
475.501	403.19
475.72	413.19
475.939	393.19
476.158	414.19
476.377	432.19
476.596	419.19
476.814	425.19
477.033	448.19
477.252	426.19
477.471	419.19
477.69	407.19
477.908	428.19
478.127	435.19
478.346	412.19
478.564	448.19
478.783	434.19
479.002	418.19
479.22	452.19
479.439	478.19
479.658	475.19
479.876	463.19
480.095	482.19
480.313	497.19
480.532	487.19
480.751	507.19
480.969	496.19
481.188	534.19
481.406	585.19
481.624	529.19
481.843	470.19
482.061	481.19
482.28	459.19
482.498	472.19
482.717	464.19
482.935	450.19
483.153	474.19
483.372	458.19
483.59	448.19
483.808	478.19
484.027	466.19
484.245	472.19
484.463	443.19
484.681	491.19
484.9	478.19
485.118	462.19
485.336	479.19
485.554	508.19
485.772	505.19
485.99	479.19
486.209	475.19
486.427	479.19
486.645	494.19
486.863	508.19
487.081	504.19
487.299	493.19
487.517	499.19
487.735	476.19
487.953	499.19
488.171	508.19
488.389	518.19
488.607	499.19
488.825	506.19
489.043	502.19
489.261	503.19
489.479	494.19
489.696	481.19
489.914	504.19
490.132	505.19
490.35	512.19
490.568	533.19
490.786	558.19
491.003	562.19
491.221	536.19
491.439	556.19
491.657	579.19
491.874	579.19
492.092	561.19
492.31	596.19
492.527	579.19
492.745	568.19
492.963	589.19
493.18	592.19
493.398	597.19
493.615	611.19
493.833	600.19
494.05	604.19
494.268	585.19
494.485	578.19
494.703	609.19
494.92	610.19
495.138	594.19
495.355	592.19
495.573	591.19
495.79	592.19
496.008	595.19
496.225	601.19
496.442	600.19
496.66	604.19
496.877	596.19
497.094	593.19
497.312	610.19
497.529	590.19
497.746	603.19
497.963	616.19
498.181	635.19
498.398	610.19
498.615	642.19
498.832	652.19
499.049	634.19
499.267	676.19
499.484	663.19
499.701	675.19
499.918	696.19
500.135	712.19
500.352	722.19
500.569	716.19
500.786	703.19
501.003	724.19
501.22	728.19
501.437	694.19
501.654	689.19
501.871	734.19
502.088	700.19
502.305	687.19
502.522	636.19
502.739	648.19
502.956	639.19
503.172	632.19
503.389	623.19
503.606	646.19
503.823	616.19
504.04	610.19
504.256	609.19
504.473	577.19
504.69	566.19
504.907	596.19
505.123	603.19
505.34	601.19
505.557	607.19
505.773	585.19
505.99	580.19
506.207	596.19
506.423	588.19
506.64	576.19
506.856	564.19
507.073	557.19
507.289	566.19
507.506	574.19
507.722	589.19
507.939	601.19
508.155	586.19
508.372	542.19
508.588	552.19
508.805	558.19
509.021	543.19
509.238	581.19
509.454	586.19
509.67	598.19
509.887	572.19
510.103	585.19
510.319	579.19
510.536	692.19
510.752	1147.19
510.968	904.19
511.184	588.19
511.401	563.19
511.617	553.19
511.833	555.19
512.049	542.19
512.265	539.19
512.481	540.19
512.698	546.19
512.914	541.19
513.13	518.19
513.346	529.19
513.562	534.19
513.778	541.19
513.994	561.19
514.21	547.19
514.426	586.19
514.642	638.19
514.858	656.19
515.074	692.19
515.29	856.19
515.506	1282.19
515.721	1022.19
515.937	663.19
516.153	614.19
516.369	572.19
516.585	563.19
516.801	560.19
517.016	544.19
517.232	554.19
517.448	522.19
517.664	547.19
517.879	546.19
518.095	530.19
518.311	514.19
518.527	544.19
518.742	525.19
518.958	523.19
519.173	522.19
519.389	547.19
519.605	541.19
519.82	533.19
520.036	571.19
520.251	582.19
520.467	615.19
520.682	598.19
520.898	612.19
521.113	651.19
521.329	691.19
521.544	766.19
521.76	1022.19
521.975	1699.19
522.19	1645.19
522.406	872.19
522.621	628.19
522.836	583.19
523.052	536.19
523.267	528.19
523.482	511.19
523.698	486.19
523.913	486.19
524.128	517.19
524.343	492.19
524.559	467.19
524.774	476.19
524.989	483.19
525.204	488.19
525.419	488.19
525.634	460.19
525.849	455.19
526.064	451.19
526.28	451.19
526.495	439.19
526.71	445.19
526.925	426.19
527.14	422.19
527.355	452.19
527.57	426.19
527.785	450.19
527.999	438.19
528.214	411.19
528.429	433.19
528.644	418.19
528.859	427.19
529.074	423.19
529.289	457.19
529.503	538.19
529.718	547.19
529.933	454.19
530.148	442.19
530.363	434.19
530.577	425.19
530.792	404.19
531.007	396.19
531.221	412.19
531.436	416.19
531.651	399.19
531.865	382.19
532.08	393.19
532.295	415.19
532.509	409.19
532.724	417.19
532.938	413.19
533.153	395.19
533.367	399.19
533.582	403.19
533.796	395.19
534.011	407.19
534.225	380.19
534.44	396.19
534.654	412.19
534.868	392.19
535.083	392.19
535.297	420.19
535.511	408.19
535.726	419.19
535.94	407.19
536.154	402.19
536.369	409.19
536.583	390.19
536.797	387.19
537.011	398.19
537.225	394.19
537.44	398.19
537.654	381.19
537.868	375.19
538.082	399.19
538.296	402.19
538.51	402.19
538.724	393.19
538.938	404.19
539.153	384.19
539.367	392.19
539.581	406.19
539.795	383.19
540.009	384.19
540.222	394.19
540.436	393.19
540.65	381.19
540.864	406.19
541.078	401.19
541.292	413.19
541.506	383.19
541.72	369.19
541.934	377.19
542.147	378.19
542.361	374.19
542.575	390.19
542.789	387.19
543.002	403.19
543.216	388.19
543.43	403.19
543.644	391.19
543.857	403.19
544.071	395.19
544.285	396.19
544.498	385.19
544.712	386.19
544.925	378.19
545.139	379.19
545.352	378.19
545.566	388.19
545.779	362.19
545.993	375.19
546.206	366.19
546.42	374.19
546.633	377.19
546.847	369.19
547.06	357.19
547.274	347.19
547.487	356.19
547.7	362.19
547.914	359.19
548.127	363.19
548.34	377.19
548.554	352.19
548.767	358.19
548.98	352.19
549.193	345.19
549.407	343.19
549.62	352.19
549.833	354.19
550.046	355.19
550.259	347.19
550.473	344.19
550.686	345.19
550.899	352.19
551.112	346.19
551.325	367.19
551.538	334.19
551.751	378.19
551.964	361.19
552.177	364.19
552.39	358.19
552.603	347.19
552.816	344.19
553.029	346.19
553.242	336.19
553.455	375.19
553.667	376.19
553.88	376.19
554.093	381.19
554.306	394.19
554.519	367.19
554.732	361.19
554.944	344.19
555.157	356.19
555.37	328.19
555.583	347.19
555.795	342.19
556.008	346.19
556.221	330.19
556.433	333.19
556.646	323.19
556.859	330.19
557.071	326.19
557.284	341.19
557.496	317.19
557.709	316.19
557.921	313.19
558.134	316.19
558.346	318.19
558.559	323.19
558.771	309.19
558.984	339.19
559.196	325.19
559.409	327.19
559.621	330.19
559.833	315.19
560.046	320.19
560.258	327.19
560.47	326.19
560.683	322.19
560.895	328.19
561.107	314.19
561.32	314.19
561.532	335.19
561.744	334.19
561.956	323.19
562.168	340.19
562.381	332.19
562.593	319.19
562.805	326.19
563.017	324.19
563.229	320.19
563.441	318.19
563.653	318.19
563.865	310.19
564.077	317.19
564.289	328.19
564.501	338.19
564.713	313.19
564.925	310.19
565.137	343.19
565.349	334.19
565.561	332.19
565.773	339.19
565.985	346.19
566.197	344.19
566.408	338.19
566.62	347.19
566.832	351.19
567.044	355.19
567.255	362.19
567.467	370.19
567.679	371.19
567.891	375.19
568.102	340.19
568.314	336.19
568.526	358.19
568.737	352.19
568.949	334.19
569.161	338.19
569.372	334.19
569.584	304.19
569.795	319.19
570.007	333.19
570.218	374.19
570.43	360.19
570.641	331.19
570.853	305.19
571.064	313.19
571.276	303.19
571.487	318.19
571.698	314.19
571.91	307.19
572.121	282.19
572.333	307.19
572.544	292.19
572.755	275.19
572.966	296.19
573.178	279.19
573.389	288.19
573.6	286.19
573.811	283.19
574.023	272.19
574.234	301.19
574.445	303.19
574.656	296.19
574.867	272.19
575.078	275.19
575.289	276.19
575.501	268.19
575.712	277.19
575.923	289.19
576.134	275.19
576.345	283.19
576.556	273.19
576.767	290.19
576.978	276.19
577.188	267.19
577.399	282.19
577.61	280.19
577.821	277.19
578.032	283.19
578.243	313.19
578.454	533.19
578.665	401.19
578.875	310.19
579.086	281.19
579.297	274.19
579.508	277.19
579.718	258.19
579.929	266.19
580.14	273.19
580.35	261.19
580.561	263.19
580.772	248.19
580.982	262.19
581.193	277.19
581.403	269.19
581.614	258.19
581.825	264.19
582.035	264.19
582.246	279.19
582.456	259.19
582.667	266.19
582.877	237.19
583.087	251.19
583.298	247.19
583.508	262.19
583.719	248.19
583.929	262.19
584.139	258.19
584.35	266.19
584.56	255.19
584.77	247.19
584.981	251.19
585.191	254.19
585.401	243.19
585.611	244.19
585.821	238.19
586.032	251.19
586.242	247.19
586.452	263.19
586.662	270.19
586.872	275.19
587.082	241.19
587.292	254.19
587.502	238.19
587.713	248.19
587.923	256.19
588.133	250.19
588.343	252.19
588.553	241.19
588.762	238.19
588.972	232.19
589.182	255.19
589.392	243.19
589.602	252.19
589.812	256.19
590.022	250.19
590.232	246.19
590.441	240.19
590.651	251.19
590.861	237.19
591.071	248.19
591.281	237.19
591.49	234.19
591.7	243.19
591.91	262.19
592.119	249.19
592.329	274.19
592.539	237.19
592.748	252.19
592.958	255.19
593.167	266.19
593.377	229.19
593.587	252.19
593.796	246.19
594.006	251.19
594.215	234.19
594.424	240.19
594.634	235.19
594.843	247.19
595.053	242.19
595.262	233.19
595.472	241.19
595.681	223.19
595.89	235.19
596.1	240.19
596.309	250.19
596.518	231.19
596.727	254.19
596.937	234.19
597.146	216.19
597.355	237.19
597.564	246.19
597.774	228.19
597.983	216.19
598.192	211.19
598.401	224.19
598.61	223.19
598.819	219.19
599.028	215.19
599.237	210.19
599.446	240.19
599.655	220.19
599.864	212.19
600.073	209.19
600.282	226.19
600.491	225.19
600.7	197.19
600.909	198.19
601.118	218.19
601.327	224.19
601.536	220.19
601.745	210.19
601.953	222.19
602.162	210.19
602.371	222.19
602.58	198.19
602.789	220.19
602.997	228.19
603.206	224.19
603.415	215.19
603.623	219.19
603.832	222.19
604.041	200.19
604.249	220.19
604.458	199.19
604.666	215.19
604.875	214.19
605.084	219.19
605.292	219.19
605.501	214.19
605.709	218.19
605.918	203.19
606.126	206.19
606.334	206.19
606.543	213.19
606.751	206.19
606.96	204.19
607.168	208.19
607.376	196.19
607.585	216.19
607.793	213.19
608.001	190.19
608.21	209.19
608.418	195.19
608.626	207.19
608.834	210.19
609.043	205.19
609.251	200.19
609.459	198.19
609.667	201.19
609.875	208.19
610.083	211.19
610.291	217.19
610.499	209.19
610.707	221.19
610.916	213.19
611.124	204.19
611.332	227.19
611.54	204.19
611.748	209.19
611.955	205.19
612.163	204.19
612.371	197.19
612.579	200.19
612.787	199.19
612.995	211.19
613.203	219.19
613.411	209.19
613.618	199.19
613.826	210.19
614.034	194.19
614.242	201.19
614.449	196.19
614.657	194.19
614.865	194.19
615.072	193.19
615.28	215.19
615.488	214.19
615.695	203.19
615.903	194.19
616.111	206.19
616.318	215.19
616.526	175.19
616.733	208.19
616.941	208.19
617.148	195.19
617.356	203.19
617.563	205.19
617.771	199.19
617.978	182.19
618.185	195.19
618.393	196.19
618.6	194.19
618.807	204.19
619.015	201.19
619.222	195.19
619.429	196.19
619.637	200.19
619.844	211.19
620.051	202.19
620.258	195.19
620.466	198.19
620.673	184.19
620.88	186.19
621.087	204.19
621.294	199.19
621.501	206.19
621.708	181.19
621.915	195.19
622.122	204.19
622.329	209.19
622.536	186.19
622.743	190.19
622.95	191.19
623.157	190.19
623.364	200.19
623.571	210.19
623.778	182.19
623.985	176.19
624.192	209.19
624.399	187.19
624.606	178.19
624.812	190.19
625.019	188.19
625.226	185.19
625.433	178.19
625.639	190.19
625.846	186.19
626.053	185.19
626.259	182.19
626.466	192.19
626.673	185.19
626.879	172.19
627.086	190.19
627.293	174.19
627.499	181.19
627.706	182.19
627.912	184.19
628.119	188.19
628.325	175.19
628.532	176.19
628.738	172.19
628.945	167.19
629.151	171.19
629.357	164.19
629.564	168.19
629.77	170.19
629.976	180.19
630.183	186.19
630.389	170.19
630.595	162.19
630.802	161.19
631.008	166.19
631.214	179.19
631.42	167.19
631.627	174.19
631.833	157.19
632.039	169.19
632.245	164.19
632.451	184.19
632.657	169.19
632.863	170.19
633.069	169.19
633.275	173.19
633.481	170.19
633.688	176.19
633.893	175.19
634.099	165.19
634.305	164.19
634.511	175.19
634.717	174.19
634.923	144.19
635.129	157.19
635.335	158.19
635.541	156.19
635.747	166.19
635.952	158.19
636.158	156.19
636.364	167.19
636.57	165.19
636.775	161.19
636.981	173.19
637.187	160.19
637.392	175.19
637.598	162.19
637.804	159.19
638.009	162.19
638.215	156.19
638.421	147.19
638.626	155.19
638.832	154.19
639.037	142.19
639.243	159.19
639.448	172.19
639.654	160.19
639.859	149.19
640.065	164.19
640.27	153.19
640.475	175.19
640.681	156.19
640.886	158.19
641.091	156.19
641.297	166.19
641.502	151.19
641.707	156.19
641.913	158.19
642.118	152.19
642.323	156.19
642.528	143.19
642.733	152.19
642.939	164.19
643.144	152.19
643.349	157.19
643.554	155.19
643.759	161.19
643.964	168.19
644.169	140.19
644.374	140.19
644.579	165.19
644.784	141.19
644.989	154.19
645.194	152.19
645.399	162.19
645.604	139.19
645.809	172.19
646.014	153.19
646.219	153.19
646.423	154.19
646.628	157.19
646.833	146.19
647.038	140.19
647.243	135.19
647.447	157.19
647.652	145.19
647.857	143.19
648.062	147.19
648.266	145.19
648.471	139.19
648.676	152.19
648.88	146.19
649.085	166.19
649.289	160.19
649.494	150.19
649.698	183.19
649.903	182.19
650.107	152.19
650.312	153.19
650.516	156.19
650.721	146.19
650.925	141.19
651.13	140.19
651.334	130.19
651.539	126.19
651.743	138.19
651.947	129.19
652.152	129.19
652.356	135.19
652.56	147.19
652.764	148.19
652.969	132.19
653.173	129.19
653.377	130.19
653.581	130.19
653.785	127.19
653.99	132.19
654.194	130.19
654.398	132.19
654.602	127.19
654.806	124.19
655.01	142.19
655.214	135.19
655.418	136.19
655.622	145.19
655.826	128.19
656.03	137.19
656.234	129.19
656.438	131.19
656.642	126.19
656.846	136.19
657.049	130.19
657.253	122.19
657.457	129.19
657.661	106.19
657.865	102.19
658.068	98.19
658.272	106.19
658.476	98.19
658.68	105.19
658.883	111.19
659.087	110.19
659.291	104.19
659.494	89.19
659.698	91.19
659.901	100.19
660.105	114.19
660.309	98.19
660.512	94.19
660.716	123.19
660.919	104.19
661.123	99.19
661.326	91.19
661.53	90.19
661.733	102.19
661.936	104.19
662.14	105.19
662.343	94.19
662.546	86.19
662.75	88.19
662.953	100.19
663.156	85.19
663.36	77.19
663.563	80.19
663.766	84.19
663.969	96.19
664.173	96.19
664.376	87.19
664.579	93.19
664.782	83.19
664.985	84.19
665.188	107.19
665.391	81.19
665.594	76.19
665.797	73.19
666	91.19
666.203	93.19
666.406	82.19
666.609	99.19
666.812	91.19
667.015	103.19
667.218	97.19
667.421	77.19
667.624	79.19
667.827	83.19
668.03	91.19
668.232	77.19
668.435	96.19
668.638	90.19
668.841	101.19
669.043	88.19
669.246	80.19
669.449	71.19
669.651	79.19
669.854	91.19
670.057	82.19
670.259	89.19
670.462	96.19
670.665	88.19
670.867	80.19
671.07	83.19
671.272	82.19
671.475	75.19
671.677	92.19
671.88	83.19
672.082	77.19
672.284	95.19
672.487	102.19
672.689	93.19
672.892	82.19
