Data from 1981.PennyLincolnUp.Lamp.En5.5.200Scan.071819.P1_HRD10591_16-40-42-958.txt Node
Date: Thu Jul 18 16:40:42 EDT 2019
User: cochatt
Spectrometer: HR+D1059
Trigger mode: 1
Integration Time (sec): 1.000000E-1
Scans to average: 1
Electric dark correction enabled: true
Nonlinearity correction enabled: false
Boxcar width: 0
XAxis mode: Wavelengths
Number of Pixels in Spectrum: 2048
>>>>>Begin Spectral Data<<<<<
223.165	0.19
223.4	0.19
223.635	0.19
223.869	-15.81
224.104	-18.81
224.338	-15.81
224.573	-15.81
224.808	-15.81
225.042	-30.81
225.277	-9.81
225.511	0.19
225.746	5.19
225.98	15.19
226.215	16.19
226.449	12.19
226.683	22.19
226.918	26.19
227.152	25.19
227.387	36.19
227.621	38.19
227.856	46.19
228.09	54.19
228.324	66.19
228.559	57.19
228.793	55.19
229.027	95.19
229.262	102.19
229.496	100.19
229.73	119.19
229.964	133.19
230.199	118.19
230.433	100.19
230.667	94.19
230.901	100.19
231.136	93.19
231.37	94.19
231.604	102.19
231.838	97.19
232.072	99.19
232.306	101.19
232.541	102.19
232.775	116.19
233.009	119.19
233.243	114.19
233.477	112.19
233.711	108.19
233.945	119.19
234.179	107.19
234.413	106.19
234.647	117.19
234.881	117.19
235.115	107.19
235.349	110.19
235.583	129.19
235.817	120.19
236.051	118.19
236.285	107.19
236.519	118.19
236.753	126.19
236.987	124.19
237.221	155.19
237.455	206.19
237.689	173.19
237.922	135.19
238.156	128.19
238.39	112.19
238.624	103.19
238.858	109.19
239.091	121.19
239.325	110.19
239.559	116.19
239.793	114.19
240.027	129.19
240.26	136.19
240.494	136.19
240.728	137.19
240.961	139.19
241.195	131.19
241.429	125.19
241.662	124.19
241.896	125.19
242.13	123.19
242.363	117.19
242.597	136.19
242.83	134.19
243.064	124.19
243.298	126.19
243.531	111.19
243.765	122.19
243.998	154.19
244.232	128.19
244.465	140.19
244.699	148.19
244.932	136.19
245.166	114.19
245.399	149.19
245.633	136.19
245.866	112.19
246.099	140.19
246.333	142.19
246.566	142.19
246.8	139.19
247.033	160.19
247.266	148.19
247.5	153.19
247.733	140.19
247.966	164.19
248.2	151.19
248.433	148.19
248.666	173.19
248.899	173.19
249.133	181.19
249.366	197.19
249.599	196.19
249.832	155.19
250.066	164.19
250.299	167.19
250.532	169.19
250.765	185.19
250.998	197.19
251.231	195.19
251.465	196.19
251.698	187.19
251.931	188.19
252.164	169.19
252.397	172.19
252.63	176.19
252.863	190.19
253.096	194.19
253.329	203.19
253.562	198.19
253.795	207.19
254.028	201.19
254.261	206.19
254.494	207.19
254.727	230.19
254.96	243.19
255.193	229.19
255.426	215.19
255.659	217.19
255.892	216.19
256.124	226.19
256.357	225.19
256.59	196.19
256.823	200.19
257.056	190.19
257.289	184.19
257.521	197.19
257.754	182.19
257.987	198.19
258.22	211.19
258.452	176.19
258.685	195.19
258.918	178.19
259.151	199.19
259.383	209.19
259.616	204.19
259.849	192.19
260.081	206.19
260.314	205.19
260.547	218.19
260.779	212.19
261.012	200.19
261.244	210.19
261.477	205.19
261.71	197.19
261.942	195.19
262.175	216.19
262.407	204.19
262.64	189.19
262.872	206.19
263.105	199.19
263.337	206.19
263.57	197.19
263.802	195.19
264.035	182.19
264.267	204.19
264.499	194.19
264.732	200.19
264.964	203.19
265.197	193.19
265.429	194.19
265.661	206.19
265.894	200.19
266.126	192.19
266.358	194.19
266.591	199.19
266.823	202.19
267.055	215.19
267.287	202.19
267.52	210.19
267.752	205.19
267.984	215.19
268.216	198.19
268.448	206.19
268.681	204.19
268.913	219.19
269.145	235.19
269.377	235.19
269.609	247.19
269.841	252.19
270.073	237.19
270.306	270.19
270.538	287.19
270.77	288.19
271.002	264.19
271.234	258.19
271.466	261.19
271.698	265.19
271.93	277.19
272.162	294.19
272.394	286.19
272.626	276.19
272.858	259.19
273.09	264.19
273.322	249.19
273.553	236.19
273.785	220.19
274.017	233.19
274.249	249.19
274.481	254.19
274.713	232.19
274.945	236.19
275.176	244.19
275.408	237.19
275.64	262.19
275.872	240.19
276.104	212.19
276.335	223.19
276.567	240.19
276.799	246.19
277.031	276.19
277.262	289.19
277.494	281.19
277.726	270.19
277.957	247.19
278.189	243.19
278.421	220.19
278.652	247.19
278.884	245.19
279.115	237.19
279.347	222.19
279.579	251.19
279.81	242.19
280.042	243.19
280.273	250.19
280.505	227.19
280.736	251.19
280.968	240.19
281.199	235.19
281.431	233.19
281.662	230.19
281.894	247.19
282.125	246.19
282.356	251.19
282.588	264.19
282.819	262.19
283.051	267.19
283.282	247.19
283.513	246.19
283.745	240.19
283.976	250.19
284.207	226.19
284.439	256.19
284.67	234.19
284.901	228.19
285.132	230.19
285.364	245.19
285.595	261.19
285.826	258.19
286.057	255.19
286.288	235.19
286.52	250.19
286.751	248.19
286.982	260.19
287.213	242.19
287.444	268.19
287.675	252.19
287.906	245.19
288.138	256.19
288.369	242.19
288.6	267.19
288.831	273.19
289.062	266.19
289.293	269.19
289.524	258.19
289.755	263.19
289.986	247.19
290.217	241.19
290.448	253.19
290.679	261.19
290.91	241.19
291.141	234.19
291.371	262.19
291.602	262.19
291.833	259.19
292.064	269.19
292.295	265.19
292.526	264.19
292.757	254.19
292.987	257.19
293.218	249.19
293.449	250.19
293.68	251.19
293.91	242.19
294.141	263.19
294.372	244.19
294.603	246.19
294.833	261.19
295.064	262.19
295.295	253.19
295.525	236.19
295.756	244.19
295.987	276.19
296.217	296.19
296.448	290.19
296.679	260.19
296.909	244.19
297.14	254.19
297.37	265.19
297.601	265.19
297.831	260.19
298.062	249.19
298.292	257.19
298.523	276.19
298.753	256.19
298.984	245.19
299.214	262.19
299.445	272.19
299.675	250.19
299.905	288.19
300.136	275.19
300.366	270.19
300.597	253.19
300.827	275.19
301.057	264.19
301.288	282.19
301.518	281.19
301.748	267.19
301.979	271.19
302.209	292.19
302.439	284.19
302.669	288.19
302.9	289.19
303.13	265.19
303.36	302.19
303.59	273.19
303.82	282.19
304.051	305.19
304.281	283.19
304.511	291.19
304.741	281.19
304.971	279.19
305.201	281.19
305.431	290.19
305.661	284.19
305.891	276.19
306.121	269.19
306.352	279.19
306.582	277.19
306.812	286.19
307.042	305.19
307.272	292.19
307.502	290.19
307.731	285.19
307.961	308.19
308.191	291.19
308.421	297.19
308.651	293.19
308.881	283.19
309.111	288.19
309.341	276.19
309.571	284.19
309.8	316.19
310.03	325.19
310.26	333.19
310.49	318.19
310.72	327.19
310.949	339.19
311.179	348.19
311.409	320.19
311.639	328.19
311.868	319.19
312.098	332.19
312.328	332.19
312.557	344.19
312.787	356.19
313.017	375.19
313.246	354.19
313.476	333.19
313.706	317.19
313.935	322.19
314.165	350.19
314.394	340.19
314.624	317.19
314.853	328.19
315.083	330.19
315.312	332.19
315.542	327.19
315.771	307.19
316.001	336.19
316.23	334.19
316.46	330.19
316.689	320.19
316.919	336.19
317.148	327.19
317.377	326.19
317.607	331.19
317.836	311.19
318.065	343.19
318.295	337.19
318.524	321.19
318.753	325.19
318.983	327.19
319.212	330.19
319.441	332.19
319.67	341.19
319.9	345.19
320.129	345.19
320.358	337.19
320.587	358.19
320.816	333.19
321.046	370.19
321.275	338.19
321.504	334.19
321.733	361.19
321.962	340.19
322.191	364.19
322.42	372.19
322.649	384.19
322.878	403.19
323.108	402.19
323.337	418.19
323.566	452.19
323.795	469.19
324.024	490.19
324.253	581.19
324.482	841.19
324.71	1288.19
324.939	1818.19
325.168	1532.19
325.397	853.19
325.626	578.19
325.855	482.19
326.084	451.19
326.313	459.19
326.542	432.19
326.77	495.19
326.999	567.19
327.228	787.19
327.457	1164.19
327.686	1366.19
327.914	920.19
328.143	625.19
328.372	544.19
328.6	510.19
328.829	480.19
329.058	520.19
329.287	505.19
329.515	484.19
329.744	414.19
329.972	443.19
330.201	463.19
330.43	473.19
330.658	493.19
330.887	527.19
331.115	494.19
331.344	427.19
331.572	429.19
331.801	423.19
332.03	413.19
332.258	404.19
332.486	390.19
332.715	359.19
332.943	384.19
333.172	370.19
333.4	386.19
333.629	375.19
333.857	406.19
334.085	388.19
334.314	413.19
334.542	397.19
334.771	402.19
334.999	405.19
335.227	382.19
335.455	390.19
335.684	391.19
335.912	374.19
336.14	372.19
336.369	365.19
336.597	374.19
336.825	383.19
337.053	384.19
337.281	377.19
337.51	356.19
337.738	376.19
337.966	356.19
338.194	362.19
338.422	355.19
338.65	354.19
338.878	353.19
339.106	342.19
339.334	366.19
339.562	356.19
339.79	352.19
340.018	358.19
340.246	369.19
340.474	357.19
340.702	358.19
340.93	377.19
341.158	363.19
341.386	362.19
341.614	365.19
341.842	364.19
342.07	352.19
342.298	349.19
342.526	354.19
342.754	347.19
342.981	356.19
343.209	355.19
343.437	347.19
343.665	364.19
343.893	358.19
344.12	352.19
344.348	363.19
344.576	346.19
344.804	374.19
345.031	366.19
345.259	378.19
345.487	368.19
345.714	349.19
345.942	354.19
346.17	363.19
346.397	356.19
346.625	355.19
346.853	366.19
347.08	349.19
347.308	351.19
347.535	356.19
347.763	369.19
347.99	370.19
348.218	343.19
348.445	368.19
348.673	372.19
348.9	340.19
349.128	335.19
349.355	341.19
349.583	355.19
349.81	346.19
350.037	329.19
350.265	342.19
350.492	320.19
350.72	354.19
350.947	340.19
351.174	348.19
351.402	359.19
351.629	352.19
351.856	344.19
352.083	348.19
352.311	349.19
352.538	345.19
352.765	352.19
352.992	354.19
353.22	346.19
353.447	321.19
353.674	332.19
353.901	337.19
354.128	327.19
354.355	321.19
354.583	330.19
354.81	328.19
355.037	340.19
355.264	347.19
355.491	319.19
355.718	305.19
355.945	316.19
356.172	320.19
356.399	320.19
356.626	325.19
356.853	318.19
357.08	322.19
357.307	321.19
357.534	324.19
357.761	314.19
357.988	316.19
358.215	320.19
358.441	342.19
358.668	324.19
358.895	313.19
359.122	310.19
359.349	332.19
359.576	340.19
359.802	376.19
360.029	373.19
360.256	377.19
360.483	367.19
360.709	354.19
360.936	329.19
361.163	339.19
361.39	345.19
361.616	353.19
361.843	344.19
362.07	339.19
362.296	350.19
362.523	336.19
362.749	335.19
362.976	335.19
363.203	327.19
363.429	322.19
363.656	325.19
363.882	317.19
364.109	324.19
364.335	314.19
364.562	315.19
364.788	323.19
365.015	328.19
365.241	320.19
365.468	325.19
365.694	322.19
365.92	347.19
366.147	320.19
366.373	330.19
366.599	317.19
366.826	317.19
367.052	307.19
367.278	311.19
367.505	318.19
367.731	318.19
367.957	322.19
368.184	340.19
368.41	333.19
368.636	350.19
368.862	348.19
369.089	337.19
369.315	330.19
369.541	312.19
369.767	311.19
369.993	312.19
370.219	317.19
370.445	314.19
370.672	301.19
370.898	318.19
371.124	295.19
371.35	329.19
371.576	306.19
371.802	311.19
372.028	315.19
372.254	302.19
372.48	290.19
372.706	327.19
372.932	322.19
373.158	313.19
373.384	328.19
373.61	325.19
373.835	311.19
374.061	314.19
374.287	324.19
374.513	328.19
374.739	325.19
374.965	329.19
375.191	313.19
375.416	336.19
375.642	314.19
375.868	328.19
376.094	329.19
376.319	312.19
376.545	335.19
376.771	308.19
376.997	299.19
377.222	317.19
377.448	315.19
377.674	316.19
377.899	310.19
378.125	305.19
378.35	301.19
378.576	317.19
378.802	307.19
379.027	318.19
379.253	288.19
379.478	304.19
379.704	329.19
379.929	310.19
380.155	304.19
380.38	321.19
380.606	318.19
380.831	320.19
381.057	334.19
381.282	322.19
381.507	315.19
381.733	308.19
381.958	322.19
382.184	310.19
382.409	313.19
382.634	306.19
382.86	329.19
383.085	309.19
383.31	322.19
383.535	317.19
383.761	312.19
383.986	312.19
384.211	318.19
384.436	311.19
384.662	327.19
384.887	322.19
385.112	327.19
385.337	321.19
385.562	333.19
385.787	329.19
386.013	343.19
386.238	348.19
386.463	338.19
386.688	324.19
386.913	329.19
387.138	295.19
387.363	308.19
387.588	320.19
387.813	343.19
388.038	330.19
388.263	332.19
388.488	321.19
388.713	316.19
388.938	316.19
389.163	337.19
389.387	352.19
389.612	331.19
389.837	329.19
390.062	318.19
390.287	340.19
390.512	328.19
390.736	313.19
390.961	325.19
391.186	317.19
391.411	334.19
391.636	323.19
391.86	317.19
392.085	311.19
392.31	318.19
392.534	316.19
392.759	329.19
392.984	317.19
393.208	318.19
393.433	326.19
393.658	346.19
393.882	333.19
394.107	334.19
394.331	330.19
394.556	320.19
394.78	313.19
395.005	319.19
395.229	339.19
395.454	321.19
395.678	334.19
395.903	317.19
396.127	365.19
396.352	373.19
396.576	342.19
396.801	330.19
397.025	344.19
397.249	334.19
397.474	343.19
397.698	334.19
397.922	347.19
398.147	362.19
398.371	346.19
398.595	331.19
398.82	345.19
399.044	377.19
399.268	363.19
399.492	374.19
399.717	392.19
399.941	411.19
400.165	406.19
400.389	419.19
400.613	388.19
400.837	386.19
401.062	383.19
401.286	364.19
401.51	382.19
401.734	368.19
401.958	366.19
402.182	372.19
402.406	374.19
402.63	387.19
402.854	371.19
403.078	361.19
403.302	355.19
403.526	382.19
403.75	378.19
403.974	346.19
404.198	356.19
404.422	351.19
404.645	379.19
404.869	390.19
405.093	389.19
405.317	396.19
405.541	428.19
405.765	408.19
405.988	391.19
406.212	393.19
406.436	401.19
406.66	413.19
406.883	412.19
407.107	424.19
407.331	457.19
407.555	477.19
407.778	489.19
408.002	438.19
408.226	414.19
408.449	416.19
408.673	410.19
408.896	444.19
409.12	461.19
409.344	423.19
409.567	387.19
409.791	363.19
410.014	384.19
410.238	376.19
410.461	371.19
410.685	369.19
410.908	381.19
411.132	409.19
411.355	442.19
411.578	421.19
411.802	388.19
412.025	372.19
412.249	378.19
412.472	380.19
412.695	406.19
412.919	401.19
413.142	366.19
413.365	371.19
413.589	348.19
413.812	373.19
414.035	349.19
414.258	359.19
414.482	354.19
414.705	352.19
414.928	363.19
415.151	348.19
415.374	340.19
415.597	358.19
415.821	334.19
416.044	309.19
416.267	369.19
416.49	338.19
416.713	346.19
416.936	331.19
417.159	358.19
417.382	354.19
417.605	359.19
417.828	374.19
418.051	356.19
418.274	360.19
418.497	383.19
418.72	351.19
418.943	345.19
419.166	364.19
419.389	366.19
419.611	371.19
419.834	384.19
420.057	386.19
420.28	372.19
420.503	360.19
420.726	370.19
420.948	375.19
421.171	391.19
421.394	419.19
421.617	381.19
421.839	374.19
422.062	370.19
422.285	363.19
422.507	436.19
422.73	458.19
422.953	469.19
423.175	412.19
423.398	387.19
423.621	376.19
423.843	404.19
424.066	408.19
424.288	375.19
424.511	415.19
424.733	453.19
424.956	508.19
425.178	490.19
425.401	502.19
425.623	490.19
425.846	429.19
426.068	417.19
426.291	404.19
426.513	416.19
426.735	419.19
426.958	443.19
427.18	522.19
427.402	616.19
427.625	650.19
427.847	597.19
428.069	487.19
428.292	434.19
428.514	424.19
428.736	405.19
428.958	389.19
429.181	376.19
429.403	353.19
429.625	384.19
429.847	410.19
430.069	452.19
430.292	443.19
430.514	395.19
430.736	375.19
430.958	358.19
431.18	359.19
431.402	348.19
431.624	344.19
431.846	356.19
432.068	347.19
432.29	370.19
432.512	362.19
432.734	370.19
432.956	372.19
433.178	356.19
433.4	354.19
433.622	363.19
433.844	344.19
434.066	349.19
434.287	346.19
434.509	359.19
434.731	349.19
434.953	363.19
435.175	358.19
435.397	374.19
435.618	404.19
435.84	436.19
436.062	505.19
436.284	568.19
436.505	478.19
436.727	398.19
436.949	380.19
437.17	366.19
437.392	380.19
437.614	403.19
437.835	411.19
438.057	490.19
438.278	568.19
438.5	568.19
438.721	599.19
438.943	590.19
439.165	470.19
439.386	436.19
439.608	412.19
439.829	393.19
440.05	419.19
440.272	455.19
440.493	440.19
440.715	415.19
440.936	395.19
441.158	390.19
441.379	385.19
441.6	386.19
441.822	406.19
442.043	425.19
442.264	483.19
442.486	527.19
442.707	438.19
442.928	410.19
443.149	442.19
443.371	449.19
443.592	458.19
443.813	523.19
444.034	581.19
444.255	468.19
444.476	414.19
444.698	396.19
444.919	413.19
445.14	492.19
445.361	462.19
445.582	439.19
445.803	466.19
446.024	562.19
446.245	562.19
446.466	516.19
446.687	444.19
446.908	398.19
447.129	394.19
447.35	387.19
447.571	364.19
447.792	375.19
448.013	388.19
448.234	401.19
448.455	436.19
448.675	504.19
448.896	595.19
449.117	506.19
449.338	496.19
449.559	571.19
449.779	620.19
450	532.19
450.221	429.19
450.442	392.19
450.662	382.19
450.883	381.19
451.104	385.19
451.324	355.19
451.545	357.19
451.766	358.19
451.986	339.19
452.207	331.19
452.428	333.19
452.648	346.19
452.869	333.19
453.089	339.19
453.31	354.19
453.53	350.19
453.751	351.19
453.971	335.19
454.192	347.19
454.412	353.19
454.633	346.19
454.853	309.19
455.073	340.19
455.294	357.19
455.514	424.19
455.734	411.19
455.955	341.19
456.175	335.19
456.395	325.19
456.616	335.19
456.836	314.19
457.056	305.19
457.276	309.19
457.497	321.19
457.717	320.19
457.937	346.19
458.157	333.19
458.377	330.19
458.598	331.19
458.818	377.19
459.038	453.19
459.258	442.19
459.478	384.19
459.698	356.19
459.918	325.19
460.138	342.19
460.358	341.19
460.578	327.19
460.798	332.19
461.018	362.19
461.238	353.19
461.458	329.19
461.678	332.19
461.898	348.19
462.118	351.19
462.338	362.19
462.558	361.19
462.777	382.19
462.997	361.19
463.217	376.19
463.437	382.19
463.657	364.19
463.876	368.19
464.096	378.19
464.316	360.19
464.536	352.19
464.755	371.19
464.975	372.19
465.195	420.19
465.414	442.19
465.634	391.19
465.854	378.19
466.073	376.19
466.293	341.19
466.512	336.19
466.732	333.19
466.951	338.19
467.171	354.19
467.391	333.19
467.61	356.19
467.829	353.19
468.049	353.19
468.268	345.19
468.488	329.19
468.707	334.19
468.927	345.19
469.146	327.19
469.365	346.19
469.585	337.19
469.804	341.19
470.023	337.19
470.243	340.19
470.462	361.19
470.681	365.19
470.901	355.19
471.12	350.19
471.339	327.19
471.558	346.19
471.777	346.19
471.997	327.19
472.216	343.19
472.435	353.19
472.654	346.19
472.873	355.19
473.092	365.19
473.311	346.19
473.53	345.19
473.749	365.19
473.968	372.19
474.187	466.19
474.406	474.19
474.625	403.19
474.844	357.19
475.063	350.19
475.282	346.19
475.501	362.19
475.72	366.19
475.939	359.19
476.158	365.19
476.377	375.19
476.596	338.19
476.814	355.19
477.033	370.19
477.252	361.19
477.471	397.19
477.69	351.19
477.908	353.19
478.127	376.19
478.346	382.19
478.564	376.19
478.783	381.19
479.002	392.19
479.22	392.19
479.439	387.19
479.658	398.19
479.876	414.19
480.095	397.19
480.313	406.19
480.532	404.19
480.751	423.19
480.969	409.19
481.188	423.19
481.406	474.19
481.624	443.19
481.843	416.19
482.061	391.19
482.28	375.19
482.498	385.19
482.717	402.19
482.935	405.19
483.153	407.19
483.372	403.19
483.59	422.19
483.808	423.19
484.027	422.19
484.245	401.19
484.463	416.19
484.681	408.19
484.9	395.19
485.118	417.19
485.336	432.19
485.554	434.19
485.772	405.19
485.99	402.19
486.209	409.19
486.427	425.19
486.645	439.19
486.863	421.19
487.081	422.19
487.299	441.19
487.517	438.19
487.735	412.19
487.953	424.19
488.171	438.19
488.389	447.19
488.607	440.19
488.825	433.19
489.043	440.19
489.261	426.19
489.479	427.19
489.696	419.19
489.914	444.19
490.132	440.19
490.35	450.19
490.568	466.19
490.786	468.19
491.003	463.19
491.221	464.19
491.439	454.19
491.657	458.19
491.874	476.19
492.092	493.19
492.31	482.19
492.527	478.19
492.745	471.19
492.963	489.19
493.18	519.19
493.398	505.19
493.615	507.19
493.833	497.19
494.05	485.19
494.268	500.19
494.485	498.19
494.703	492.19
494.92	500.19
495.138	485.19
495.355	526.19
495.573	519.19
495.79	514.19
496.008	533.19
496.225	513.19
496.442	513.19
496.66	503.19
496.877	494.19
497.094	500.19
497.312	511.19
497.529	503.19
497.746	522.19
497.963	538.19
498.181	576.19
498.398	558.19
498.615	538.19
498.832	539.19
499.049	564.19
499.267	568.19
499.484	578.19
499.701	581.19
499.918	573.19
500.135	602.19
500.352	624.19
500.569	628.19
500.786	648.19
501.003	648.19
501.22	626.19
501.437	615.19
501.654	630.19
501.871	644.19
502.088	613.19
502.305	585.19
502.522	546.19
502.739	564.19
502.956	548.19
503.172	546.19
503.389	538.19
503.606	543.19
503.823	520.19
504.04	528.19
504.256	530.19
504.473	513.19
504.69	519.19
504.907	495.19
505.123	500.19
505.34	489.19
505.557	486.19
505.773	510.19
505.99	490.19
506.207	488.19
506.423	458.19
506.64	498.19
506.856	493.19
507.073	477.19
507.289	498.19
507.506	474.19
507.722	498.19
507.939	480.19
508.155	476.19
508.372	489.19
508.588	462.19
508.805	464.19
509.021	477.19
509.238	478.19
509.454	488.19
509.67	472.19
509.887	477.19
510.103	496.19
510.319	474.19
510.536	570.19
510.752	918.19
510.968	758.19
511.184	493.19
511.401	468.19
511.617	444.19
511.833	455.19
512.049	448.19
512.265	458.19
512.481	437.19
512.698	458.19
512.914	457.19
513.13	462.19
513.346	452.19
513.562	454.19
513.778	448.19
513.994	457.19
514.21	467.19
514.426	487.19
514.642	522.19
514.858	527.19
515.074	571.19
515.29	688.19
515.506	965.19
515.721	818.19
515.937	552.19
516.153	496.19
516.369	481.19
516.585	459.19
516.801	451.19
517.016	443.19
517.232	443.19
517.448	437.19
517.664	442.19
517.879	448.19
518.095	465.19
518.311	454.19
518.527	448.19
518.742	461.19
518.958	430.19
519.173	447.19
519.389	460.19
519.605	439.19
519.82	436.19
520.036	473.19
520.251	468.19
520.467	497.19
520.682	472.19
520.898	508.19
521.113	517.19
521.329	530.19
521.544	610.19
521.76	796.19
521.975	1282.19
522.19	1256.19
522.406	666.19
522.621	517.19
522.836	459.19
523.052	439.19
523.267	420.19
523.482	426.19
523.698	436.19
523.913	421.19
524.128	427.19
524.343	416.19
524.559	404.19
524.774	397.19
524.989	408.19
525.204	378.19
525.419	406.19
525.634	399.19
525.849	387.19
526.064	394.19
526.28	383.19
526.495	373.19
526.71	361.19
526.925	370.19
527.14	368.19
527.355	369.19
527.57	375.19
527.785	376.19
527.999	358.19
528.214	376.19
528.429	374.19
528.644	376.19
528.859	376.19
529.074	385.19
529.289	404.19
529.503	461.19
529.718	426.19
529.933	413.19
530.148	398.19
530.363	368.19
530.577	362.19
530.792	365.19
531.007	359.19
531.221	376.19
531.436	352.19
531.651	365.19
531.865	353.19
532.08	366.19
532.295	354.19
532.509	345.19
532.724	354.19
532.938	373.19
533.153	342.19
533.367	352.19
533.582	356.19
533.796	346.19
534.011	363.19
534.225	348.19
534.44	351.19
534.654	358.19
534.868	337.19
535.083	348.19
535.297	354.19
535.511	360.19
535.726	355.19
535.94	364.19
536.154	343.19
536.369	340.19
536.583	351.19
536.797	357.19
537.011	331.19
537.225	340.19
537.44	341.19
537.654	343.19
537.868	332.19
538.082	356.19
538.296	333.19
538.51	337.19
538.724	353.19
538.938	330.19
539.153	342.19
539.367	361.19
539.581	345.19
539.795	334.19
540.009	342.19
540.222	331.19
540.436	353.19
540.65	360.19
540.864	341.19
541.078	342.19
541.292	349.19
541.506	351.19
541.72	353.19
541.934	324.19
542.147	328.19
542.361	335.19
542.575	346.19
542.789	347.19
543.002	329.19
543.216	337.19
543.43	341.19
543.644	363.19
543.857	357.19
544.071	332.19
544.285	327.19
544.498	334.19
544.712	320.19
544.925	344.19
545.139	334.19
545.352	339.19
545.566	330.19
545.779	328.19
545.993	338.19
546.206	329.19
546.42	340.19
546.633	332.19
546.847	324.19
547.06	341.19
547.274	321.19
547.487	315.19
547.7	323.19
547.914	311.19
548.127	322.19
548.34	318.19
548.554	329.19
548.767	316.19
548.98	321.19
549.193	332.19
549.407	310.19
549.62	333.19
549.833	315.19
550.046	317.19
550.259	328.19
550.473	328.19
550.686	329.19
550.899	302.19
551.112	312.19
551.325	303.19
551.538	305.19
551.751	307.19
551.964	314.19
552.177	301.19
552.39	307.19
552.603	340.19
552.816	297.19
553.029	312.19
553.242	325.19
553.455	315.19
553.667	337.19
553.88	331.19
554.093	320.19
554.306	316.19
554.519	316.19
554.732	314.19
554.944	331.19
555.157	312.19
555.37	299.19
555.583	305.19
555.795	294.19
556.008	312.19
556.221	301.19
556.433	293.19
556.646	320.19
556.859	282.19
557.071	288.19
557.284	277.19
557.496	304.19
557.709	283.19
557.921	308.19
558.134	289.19
558.346	286.19
558.559	291.19
558.771	284.19
558.984	288.19
559.196	289.19
559.409	277.19
559.621	285.19
559.833	267.19
560.046	299.19
560.258	275.19
560.47	286.19
560.683	298.19
560.895	288.19
561.107	303.19
561.32	283.19
561.532	292.19
561.744	295.19
561.956	296.19
562.168	288.19
562.381	290.19
562.593	285.19
562.805	290.19
563.017	293.19
563.229	297.19
563.441	308.19
563.653	292.19
563.865	304.19
564.077	277.19
564.289	295.19
564.501	288.19
564.713	286.19
564.925	299.19
565.137	298.19
565.349	314.19
565.561	315.19
565.773	304.19
565.985	314.19
566.197	309.19
566.408	286.19
566.62	323.19
566.832	336.19
567.044	321.19
567.255	322.19
567.467	330.19
567.679	332.19
567.891	321.19
568.102	328.19
568.314	323.19
568.526	317.19
568.737	306.19
568.949	305.19
569.161	299.19
569.372	291.19
569.584	277.19
569.795	292.19
570.007	300.19
570.218	332.19
570.43	325.19
570.641	294.19
570.853	254.19
571.064	270.19
571.276	257.19
571.487	258.19
571.698	263.19
571.91	254.19
572.121	253.19
572.333	276.19
572.544	266.19
572.755	268.19
572.966	251.19
573.178	253.19
573.389	259.19
573.6	250.19
573.811	256.19
574.023	236.19
574.234	244.19
574.445	258.19
574.656	275.19
574.867	246.19
575.078	259.19
575.289	261.19
575.501	246.19
575.712	249.19
575.923	259.19
576.134	234.19
576.345	233.19
576.556	231.19
576.767	246.19
576.978	266.19
577.188	240.19
577.399	240.19
577.61	242.19
577.821	251.19
578.032	245.19
578.243	284.19
578.454	444.19
578.665	336.19
578.875	258.19
579.086	259.19
579.297	251.19
579.508	248.19
579.718	245.19
579.929	233.19
580.14	232.19
580.35	227.19
580.561	225.19
580.772	237.19
580.982	231.19
581.193	225.19
581.403	239.19
581.614	228.19
581.825	236.19
582.035	224.19
582.246	240.19
582.456	259.19
582.667	243.19
582.877	222.19
583.087	223.19
583.298	210.19
583.508	226.19
583.719	228.19
583.929	230.19
584.139	224.19
584.35	224.19
584.56	231.19
584.77	230.19
584.981	247.19
585.191	231.19
585.401	237.19
585.611	213.19
585.821	220.19
586.032	218.19
586.242	216.19
586.452	239.19
586.662	242.19
586.872	234.19
587.082	224.19
587.292	222.19
587.502	232.19
587.713	221.19
587.923	233.19
588.133	208.19
588.343	227.19
588.553	226.19
588.762	205.19
588.972	212.19
589.182	290.19
589.392	260.19
589.602	225.19
589.812	250.19
590.022	245.19
590.232	213.19
590.441	228.19
590.651	221.19
590.861	222.19
591.071	216.19
591.281	213.19
591.49	215.19
591.7	205.19
591.91	217.19
592.119	224.19
592.329	232.19
592.539	241.19
592.748	229.19
592.958	210.19
593.167	200.19
593.377	241.19
593.587	231.19
593.796	230.19
594.006	240.19
594.215	226.19
594.424	204.19
594.634	225.19
594.843	228.19
595.053	242.19
595.262	225.19
595.472	222.19
595.681	233.19
595.89	214.19
596.1	216.19
596.309	206.19
596.518	221.19
596.727	225.19
596.937	229.19
597.146	214.19
597.355	206.19
597.564	216.19
597.774	206.19
597.983	200.19
598.192	208.19
598.401	209.19
598.61	211.19
598.819	196.19
599.028	194.19
599.237	193.19
599.446	202.19
599.655	185.19
599.864	197.19
600.073	204.19
600.282	172.19
600.491	200.19
600.7	198.19
600.909	225.19
601.118	200.19
601.327	204.19
601.536	198.19
601.745	194.19
601.953	205.19
602.162	197.19
602.371	200.19
602.58	185.19
602.789	189.19
602.997	203.19
603.206	195.19
603.415	196.19
603.623	205.19
603.832	188.19
604.041	203.19
604.249	194.19
604.458	194.19
604.666	196.19
604.875	182.19
605.084	180.19
605.292	198.19
605.501	211.19
605.709	206.19
605.918	210.19
606.126	200.19
606.334	181.19
606.543	196.19
606.751	181.19
606.96	189.19
607.168	203.19
607.376	198.19
607.585	178.19
607.793	196.19
608.001	184.19
608.21	186.19
608.418	193.19
608.626	190.19
608.834	185.19
609.043	188.19
609.251	192.19
609.459	191.19
609.667	202.19
609.875	189.19
610.083	193.19
610.291	185.19
610.499	182.19
610.707	193.19
610.916	209.19
611.124	190.19
611.332	198.19
611.54	181.19
611.748	199.19
611.955	195.19
612.163	185.19
612.371	190.19
612.579	198.19
612.787	192.19
612.995	182.19
613.203	188.19
613.411	177.19
613.618	197.19
613.826	170.19
614.034	172.19
614.242	173.19
614.449	182.19
614.657	178.19
614.865	171.19
615.072	177.19
615.28	170.19
615.488	178.19
615.695	186.19
615.903	165.19
616.111	173.19
616.318	184.19
616.526	186.19
616.733	177.19
616.941	186.19
617.148	181.19
617.356	168.19
617.563	171.19
617.771	193.19
617.978	188.19
618.185	168.19
618.393	192.19
618.6	181.19
618.807	172.19
619.015	201.19
619.222	180.19
619.429	171.19
619.637	180.19
619.844	177.19
620.051	180.19
620.258	171.19
620.466	182.19
620.673	186.19
620.88	174.19
621.087	177.19
621.294	171.19
621.501	185.19
621.708	174.19
621.915	188.19
622.122	179.19
622.329	167.19
622.536	187.19
622.743	176.19
622.95	168.19
623.157	181.19
623.364	167.19
623.571	174.19
623.778	164.19
623.985	175.19
624.192	187.19
624.399	176.19
624.606	185.19
624.812	171.19
625.019	173.19
625.226	165.19
625.433	175.19
625.639	162.19
625.846	166.19
626.053	156.19
626.259	164.19
626.466	173.19
626.673	174.19
626.879	149.19
627.086	182.19
627.293	165.19
627.499	172.19
627.706	166.19
627.912	169.19
628.119	169.19
628.325	164.19
628.532	167.19
628.738	143.19
628.945	168.19
629.151	171.19
629.357	169.19
629.564	177.19
629.77	158.19
629.976	165.19
630.183	156.19
630.389	153.19
630.595	162.19
630.802	156.19
631.008	148.19
631.214	136.19
631.42	155.19
631.627	161.19
631.833	147.19
632.039	162.19
632.245	164.19
632.451	159.19
632.657	145.19
632.863	143.19
633.069	177.19
633.275	147.19
633.481	157.19
633.688	159.19
633.893	165.19
634.099	169.19
634.305	154.19
634.511	152.19
634.717	157.19
634.923	153.19
635.129	141.19
635.335	142.19
635.541	156.19
635.747	145.19
635.952	153.19
636.158	172.19
636.364	166.19
636.57	160.19
636.775	152.19
636.981	146.19
637.187	148.19
637.392	134.19
637.598	158.19
637.804	140.19
638.009	137.19
638.215	152.19
638.421	138.19
638.626	152.19
638.832	144.19
639.037	150.19
639.243	155.19
639.448	142.19
639.654	138.19
639.859	152.19
640.065	134.19
640.27	162.19
640.475	147.19
640.681	143.19
640.886	159.19
641.091	152.19
641.297	160.19
641.502	147.19
641.707	140.19
641.913	154.19
642.118	158.19
642.323	141.19
642.528	148.19
642.733	144.19
642.939	138.19
643.144	145.19
643.349	126.19
643.554	141.19
643.759	136.19
643.964	128.19
644.169	122.19
644.374	143.19
644.579	153.19
644.784	125.19
644.989	129.19
645.194	137.19
645.399	145.19
645.604	139.19
645.809	131.19
646.014	148.19
646.219	160.19
646.423	137.19
646.628	132.19
646.833	149.19
647.038	129.19
647.243	152.19
647.447	142.19
647.652	125.19
647.857	141.19
648.062	165.19
648.266	138.19
648.471	141.19
648.676	142.19
648.88	140.19
649.085	144.19
649.289	144.19
649.494	146.19
649.698	161.19
649.903	144.19
650.107	147.19
650.312	137.19
650.516	146.19
650.721	148.19
650.925	133.19
651.13	129.19
651.334	118.19
651.539	125.19
651.743	124.19
651.947	141.19
652.152	138.19
652.356	135.19
652.56	133.19
652.764	124.19
652.969	139.19
653.173	121.19
653.377	122.19
653.581	116.19
653.785	109.19
653.99	121.19
654.194	125.19
654.398	123.19
654.602	112.19
654.806	121.19
655.01	125.19
655.214	123.19
655.418	114.19
655.622	116.19
655.826	116.19
656.03	136.19
656.234	130.19
656.438	140.19
656.642	123.19
656.846	131.19
657.049	128.19
657.253	114.19
657.457	114.19
657.661	108.19
657.865	108.19
658.068	111.19
658.272	102.19
658.476	103.19
658.68	102.19
658.883	90.19
659.087	89.19
659.291	84.19
659.494	87.19
659.698	93.19
659.901	94.19
660.105	100.19
660.309	97.19
660.512	97.19
660.716	92.19
660.919	86.19
661.123	97.19
661.326	82.19
661.53	89.19
661.733	87.19
661.936	77.19
662.14	89.19
662.343	75.19
662.546	92.19
662.75	76.19
662.953	74.19
663.156	96.19
663.36	93.19
663.563	86.19
663.766	73.19
663.969	76.19
664.173	84.19
664.376	92.19
664.579	76.19
664.782	87.19
664.985	88.19
665.188	76.19
665.391	89.19
665.594	67.19
665.797	92.19
666	81.19
666.203	76.19
666.406	81.19
666.609	87.19
666.812	78.19
667.015	83.19
667.218	84.19
667.421	89.19
667.624	78.19
667.827	73.19
668.03	71.19
668.232	95.19
668.435	86.19
668.638	90.19
668.841	94.19
669.043	85.19
669.246	77.19
669.449	91.19
669.651	78.19
669.854	81.19
670.057	92.19
670.259	85.19
670.462	98.19
670.665	92.19
670.867	91.19
671.07	85.19
671.272	91.19
671.475	88.19
671.677	85.19
671.88	80.19
672.082	85.19
672.284	72.19
672.487	88.19
672.689	94.19
672.892	88.19
