Data from 1981.PennyLincolnUp.Lamp.En5.5.200Scan.071819.P1_HRD10591_16-40-46-959.txt Node
Date: Thu Jul 18 16:40:46 EDT 2019
User: cochatt
Spectrometer: HR+D1059
Trigger mode: 1
Integration Time (sec): 1.000000E-1
Scans to average: 1
Electric dark correction enabled: true
Nonlinearity correction enabled: false
Boxcar width: 0
XAxis mode: Wavelengths
Number of Pixels in Spectrum: 2048
>>>>>Begin Spectral Data<<<<<
223.165	-13.81
223.4	-13.81
223.635	-13.81
223.869	-14.81
224.104	-29.81
224.338	-13.81
224.573	-16.81
224.808	-9.81
225.042	8.19
225.277	-3.81
225.511	-2.81
225.746	-0.81
225.98	6.19
226.215	7.19
226.449	17.19
226.683	19.19
226.918	28.19
227.152	20.19
227.387	34.19
227.621	34.19
227.856	30.19
228.09	44.19
228.324	50.19
228.559	51.19
228.793	68.19
229.027	90.19
229.262	90.19
229.496	98.19
229.73	130.19
229.964	139.19
230.199	119.19
230.433	103.19
230.667	94.19
230.901	111.19
231.136	128.19
231.37	100.19
231.604	111.19
231.838	109.19
232.072	101.19
232.306	122.19
232.541	105.19
232.775	108.19
233.009	94.19
233.243	117.19
233.477	99.19
233.711	120.19
233.945	99.19
234.179	114.19
234.413	109.19
234.647	123.19
234.881	106.19
235.115	113.19
235.349	114.19
235.583	114.19
235.817	111.19
236.051	113.19
236.285	115.19
236.519	118.19
236.753	116.19
236.987	142.19
237.221	162.19
237.455	189.19
237.689	159.19
237.922	133.19
238.156	127.19
238.39	117.19
238.624	107.19
238.858	113.19
239.091	112.19
239.325	114.19
239.559	129.19
239.793	133.19
240.027	105.19
240.26	137.19
240.494	151.19
240.728	140.19
240.961	136.19
241.195	133.19
241.429	125.19
241.662	112.19
241.896	119.19
242.13	137.19
242.363	109.19
242.597	125.19
242.83	133.19
243.064	119.19
243.298	125.19
243.531	123.19
243.765	129.19
243.998	131.19
244.232	127.19
244.465	129.19
244.699	134.19
244.932	129.19
245.166	139.19
245.399	146.19
245.633	131.19
245.866	163.19
246.099	149.19
246.333	145.19
246.566	144.19
246.8	148.19
247.033	144.19
247.266	155.19
247.5	171.19
247.733	169.19
247.966	167.19
248.2	149.19
248.433	161.19
248.666	171.19
248.899	170.19
249.133	180.19
249.366	201.19
249.599	199.19
249.832	168.19
250.066	183.19
250.299	170.19
250.532	184.19
250.765	186.19
250.998	205.19
251.231	211.19
251.465	207.19
251.698	192.19
251.931	196.19
252.164	183.19
252.397	185.19
252.63	192.19
252.863	202.19
253.096	194.19
253.329	215.19
253.562	206.19
253.795	210.19
254.028	218.19
254.261	197.19
254.494	217.19
254.727	242.19
254.96	265.19
255.193	265.19
255.426	240.19
255.659	211.19
255.892	223.19
256.124	220.19
256.357	212.19
256.59	193.19
256.823	205.19
257.056	213.19
257.289	197.19
257.521	212.19
257.754	198.19
257.987	189.19
258.22	194.19
258.452	195.19
258.685	210.19
258.918	203.19
259.151	191.19
259.383	203.19
259.616	208.19
259.849	213.19
260.081	234.19
260.314	243.19
260.547	243.19
260.779	239.19
261.012	228.19
261.244	215.19
261.477	201.19
261.71	203.19
261.942	217.19
262.175	222.19
262.407	219.19
262.64	204.19
262.872	199.19
263.105	211.19
263.337	207.19
263.57	193.19
263.802	196.19
264.035	208.19
264.267	197.19
264.499	220.19
264.732	210.19
264.964	210.19
265.197	203.19
265.429	205.19
265.661	202.19
265.894	206.19
266.126	195.19
266.358	214.19
266.591	201.19
266.823	204.19
267.055	223.19
267.287	201.19
267.52	227.19
267.752	209.19
267.984	204.19
268.216	205.19
268.448	191.19
268.681	215.19
268.913	220.19
269.145	235.19
269.377	259.19
269.609	247.19
269.841	259.19
270.073	246.19
270.306	280.19
270.538	299.19
270.77	286.19
271.002	269.19
271.234	270.19
271.466	295.19
271.698	290.19
271.93	303.19
272.162	304.19
272.394	324.19
272.626	276.19
272.858	274.19
273.09	282.19
273.322	269.19
273.553	263.19
273.785	245.19
274.017	257.19
274.249	248.19
274.481	231.19
274.713	249.19
274.945	259.19
275.176	257.19
275.408	251.19
275.64	251.19
275.872	256.19
276.104	236.19
276.335	265.19
276.567	256.19
276.799	259.19
277.031	282.19
277.262	299.19
277.494	305.19
277.726	276.19
277.957	277.19
278.189	253.19
278.421	259.19
278.652	269.19
278.884	243.19
279.115	258.19
279.347	266.19
279.579	239.19
279.81	269.19
280.042	263.19
280.273	259.19
280.505	243.19
280.736	236.19
280.968	259.19
281.199	259.19
281.431	246.19
281.662	259.19
281.894	247.19
282.125	250.19
282.356	275.19
282.588	279.19
282.819	270.19
283.051	266.19
283.282	247.19
283.513	259.19
283.745	247.19
283.976	247.19
284.207	258.19
284.439	274.19
284.67	263.19
284.901	256.19
285.132	256.19
285.364	262.19
285.595	244.19
285.826	253.19
286.057	277.19
286.288	257.19
286.52	252.19
286.751	261.19
286.982	257.19
287.213	262.19
287.444	261.19
287.675	261.19
287.906	284.19
288.138	280.19
288.369	277.19
288.6	283.19
288.831	270.19
289.062	286.19
289.293	260.19
289.524	249.19
289.755	267.19
289.986	274.19
290.217	271.19
290.448	270.19
290.679	259.19
290.91	264.19
291.141	255.19
291.371	279.19
291.602	257.19
291.833	261.19
292.064	259.19
292.295	279.19
292.526	257.19
292.757	264.19
292.987	261.19
293.218	253.19
293.449	272.19
293.68	257.19
293.91	249.19
294.141	274.19
294.372	244.19
294.603	274.19
294.833	279.19
295.064	264.19
295.295	274.19
295.525	253.19
295.756	271.19
295.987	275.19
296.217	295.19
296.448	294.19
296.679	292.19
296.909	291.19
297.14	289.19
297.37	284.19
297.601	283.19
297.831	284.19
298.062	267.19
298.292	275.19
298.523	283.19
298.753	279.19
298.984	265.19
299.214	296.19
299.445	289.19
299.675	277.19
299.905	296.19
300.136	271.19
300.366	296.19
300.597	288.19
300.827	303.19
301.057	290.19
301.288	311.19
301.518	283.19
301.748	289.19
301.979	296.19
302.209	277.19
302.439	305.19
302.669	295.19
302.9	296.19
303.13	298.19
303.36	304.19
303.59	289.19
303.82	306.19
304.051	305.19
304.281	307.19
304.511	296.19
304.741	309.19
304.971	313.19
305.201	288.19
305.431	295.19
305.661	291.19
305.891	316.19
306.121	311.19
306.352	321.19
306.582	318.19
306.812	307.19
307.042	307.19
307.272	295.19
307.502	315.19
307.731	325.19
307.961	314.19
308.191	307.19
308.421	298.19
308.651	305.19
308.881	330.19
309.111	319.19
309.341	295.19
309.571	309.19
309.8	330.19
310.03	334.19
310.26	347.19
310.49	334.19
310.72	356.19
310.949	355.19
311.179	365.19
311.409	333.19
311.639	328.19
311.868	353.19
312.098	365.19
312.328	330.19
312.557	375.19
312.787	397.19
313.017	367.19
313.246	356.19
313.476	333.19
313.706	337.19
313.935	316.19
314.165	350.19
314.394	377.19
314.624	365.19
314.853	356.19
315.083	362.19
315.312	347.19
315.542	339.19
315.771	339.19
316.001	343.19
316.23	350.19
316.46	342.19
316.689	342.19
316.919	341.19
317.148	369.19
317.377	379.19
317.607	355.19
317.836	342.19
318.065	361.19
318.295	359.19
318.524	336.19
318.753	367.19
318.983	343.19
319.212	360.19
319.441	351.19
319.67	369.19
319.9	348.19
320.129	340.19
320.358	364.19
320.587	355.19
320.816	361.19
321.046	387.19
321.275	383.19
321.504	376.19
321.733	368.19
321.962	385.19
322.191	372.19
322.42	411.19
322.649	450.19
322.878	433.19
323.108	417.19
323.337	454.19
323.566	488.19
323.795	507.19
324.024	548.19
324.253	684.19
324.482	940.19
324.71	1444.19
324.939	1997.19
325.168	1681.19
325.397	914.19
325.626	617.19
325.855	534.19
326.084	498.19
326.313	491.19
326.542	488.19
326.77	540.19
326.999	624.19
327.228	872.19
327.457	1244.19
327.686	1446.19
327.914	995.19
328.143	675.19
328.372	571.19
328.6	523.19
328.829	521.19
329.058	519.19
329.287	530.19
329.515	495.19
329.744	477.19
329.972	455.19
330.201	473.19
330.43	480.19
330.658	532.19
330.887	556.19
331.115	538.19
331.344	471.19
331.572	451.19
331.801	442.19
332.03	421.19
332.258	431.19
332.486	393.19
332.715	409.19
332.943	407.19
333.172	399.19
333.4	403.19
333.629	429.19
333.857	433.19
334.085	427.19
334.314	427.19
334.542	443.19
334.771	444.19
334.999	419.19
335.227	425.19
335.455	387.19
335.684	391.19
335.912	416.19
336.14	374.19
336.369	392.19
336.597	419.19
336.825	394.19
337.053	398.19
337.281	389.19
337.51	390.19
337.738	393.19
337.966	411.19
338.194	396.19
338.422	385.19
338.65	387.19
338.878	376.19
339.106	385.19
339.334	375.19
339.562	359.19
339.79	373.19
340.018	375.19
340.246	373.19
340.474	388.19
340.702	400.19
340.93	372.19
341.158	374.19
341.386	374.19
341.614	393.19
341.842	383.19
342.07	396.19
342.298	367.19
342.526	371.19
342.754	377.19
342.981	379.19
343.209	376.19
343.437	379.19
343.665	367.19
343.893	373.19
344.12	372.19
344.348	379.19
344.576	380.19
344.804	407.19
345.031	401.19
345.259	426.19
345.487	387.19
345.714	386.19
345.942	378.19
346.17	379.19
346.397	362.19
346.625	374.19
346.853	375.19
347.08	368.19
347.308	376.19
347.535	393.19
347.763	372.19
347.99	394.19
348.218	385.19
348.445	399.19
348.673	372.19
348.9	375.19
349.128	359.19
349.355	356.19
349.583	345.19
349.81	348.19
350.037	350.19
350.265	357.19
350.492	345.19
350.72	376.19
350.947	370.19
351.174	373.19
351.402	378.19
351.629	361.19
351.856	372.19
352.083	383.19
352.311	393.19
352.538	380.19
352.765	391.19
352.992	381.19
353.22	391.19
353.447	377.19
353.674	345.19
353.901	349.19
354.128	377.19
354.355	348.19
354.583	356.19
354.81	345.19
355.037	346.19
355.264	339.19
355.491	323.19
355.718	348.19
355.945	348.19
356.172	344.19
356.399	348.19
356.626	344.19
356.853	322.19
357.08	328.19
357.307	358.19
357.534	344.19
357.761	348.19
357.988	338.19
358.215	331.19
358.441	348.19
358.668	354.19
358.895	344.19
359.122	331.19
359.349	349.19
359.576	376.19
359.802	397.19
360.029	391.19
360.256	401.19
360.483	403.19
360.709	381.19
360.936	368.19
361.163	364.19
361.39	372.19
361.616	367.19
361.843	356.19
362.07	362.19
362.296	384.19
362.523	355.19
362.749	338.19
362.976	336.19
363.203	332.19
363.429	347.19
363.656	354.19
363.882	355.19
364.109	346.19
364.335	331.19
364.562	337.19
364.788	339.19
365.015	366.19
365.241	347.19
365.468	332.19
365.694	322.19
365.92	344.19
366.147	346.19
366.373	347.19
366.599	318.19
366.826	343.19
367.052	347.19
367.278	331.19
367.505	334.19
367.731	328.19
367.957	341.19
368.184	339.19
368.41	345.19
368.636	365.19
368.862	367.19
369.089	325.19
369.315	337.19
369.541	348.19
369.767	337.19
369.993	347.19
370.219	348.19
370.445	333.19
370.672	332.19
370.898	336.19
371.124	338.19
371.35	341.19
371.576	328.19
371.802	340.19
372.028	323.19
372.254	340.19
372.48	332.19
372.706	319.19
372.932	345.19
373.158	325.19
373.384	324.19
373.61	329.19
373.835	345.19
374.061	338.19
374.287	327.19
374.513	347.19
374.739	342.19
374.965	332.19
375.191	355.19
375.416	324.19
375.642	346.19
375.868	332.19
376.094	322.19
376.319	315.19
376.545	354.19
376.771	332.19
376.997	332.19
377.222	310.19
377.448	343.19
377.674	323.19
377.899	338.19
378.125	317.19
378.35	319.19
378.576	339.19
378.802	323.19
379.027	326.19
379.253	324.19
379.478	330.19
379.704	326.19
379.929	332.19
380.155	318.19
380.38	323.19
380.606	320.19
380.831	331.19
381.057	317.19
381.282	321.19
381.507	347.19
381.733	335.19
381.958	336.19
382.184	333.19
382.409	335.19
382.634	347.19
382.86	333.19
383.085	330.19
383.31	342.19
383.535	341.19
383.761	351.19
383.986	343.19
384.211	329.19
384.436	355.19
384.662	344.19
384.887	347.19
385.112	327.19
385.337	347.19
385.562	348.19
385.787	338.19
386.013	358.19
386.238	342.19
386.463	343.19
386.688	355.19
386.913	340.19
387.138	363.19
387.363	350.19
387.588	355.19
387.813	352.19
388.038	344.19
388.263	323.19
388.488	343.19
388.713	356.19
388.938	352.19
389.163	351.19
389.387	354.19
389.612	336.19
389.837	343.19
390.062	336.19
390.287	343.19
390.512	342.19
390.736	341.19
390.961	333.19
391.186	343.19
391.411	337.19
391.636	332.19
391.86	346.19
392.085	331.19
392.31	346.19
392.534	325.19
392.759	361.19
392.984	355.19
393.208	339.19
393.433	349.19
393.658	341.19
393.882	346.19
394.107	328.19
394.331	356.19
394.556	342.19
394.78	343.19
395.005	335.19
395.229	337.19
395.454	345.19
395.678	345.19
395.903	370.19
396.127	374.19
396.352	370.19
396.576	378.19
396.801	362.19
397.025	371.19
397.249	355.19
397.474	355.19
397.698	374.19
397.922	381.19
398.147	381.19
398.371	372.19
398.595	387.19
398.82	386.19
399.044	389.19
399.268	377.19
399.492	397.19
399.717	421.19
399.941	421.19
400.165	469.19
400.389	491.19
400.613	418.19
400.837	385.19
401.062	398.19
401.286	387.19
401.51	398.19
401.734	378.19
401.958	379.19
402.182	396.19
402.406	376.19
402.63	406.19
402.854	384.19
403.078	392.19
403.302	381.19
403.526	406.19
403.75	383.19
403.974	387.19
404.198	380.19
404.422	387.19
404.645	393.19
404.869	409.19
405.093	405.19
405.317	435.19
405.541	465.19
405.765	443.19
405.988	412.19
406.212	438.19
406.436	439.19
406.66	425.19
406.883	429.19
407.107	439.19
407.331	460.19
407.555	527.19
407.778	515.19
408.002	469.19
408.226	427.19
408.449	460.19
408.673	428.19
408.896	448.19
409.12	495.19
409.344	474.19
409.567	430.19
409.791	403.19
410.014	425.19
410.238	397.19
410.461	392.19
410.685	391.19
410.908	411.19
411.132	441.19
411.355	457.19
411.578	437.19
411.802	427.19
412.025	389.19
412.249	395.19
412.472	417.19
412.695	453.19
412.919	446.19
413.142	375.19
413.365	384.19
413.589	374.19
413.812	383.19
414.035	359.19
414.258	373.19
414.482	388.19
414.705	364.19
414.928	394.19
415.151	367.19
415.374	373.19
415.597	367.19
415.821	385.19
416.044	359.19
416.267	380.19
416.49	362.19
416.713	371.19
416.936	347.19
417.159	375.19
417.382	364.19
417.605	364.19
417.828	383.19
418.051	376.19
418.274	383.19
418.497	363.19
418.72	377.19
418.943	359.19
419.166	397.19
419.389	395.19
419.611	391.19
419.834	379.19
420.057	377.19
420.28	386.19
420.503	391.19
420.726	379.19
420.948	398.19
421.171	441.19
421.394	468.19
421.617	396.19
421.839	401.19
422.062	382.19
422.285	418.19
422.507	439.19
422.73	507.19
422.953	486.19
423.175	419.19
423.398	407.19
423.621	411.19
423.843	402.19
424.066	448.19
424.288	428.19
424.511	447.19
424.733	478.19
424.956	552.19
425.178	527.19
425.401	520.19
425.623	540.19
425.846	437.19
426.068	435.19
426.291	417.19
426.513	419.19
426.735	452.19
426.958	474.19
427.18	527.19
427.402	613.19
427.625	689.19
427.847	610.19
428.069	517.19
428.292	467.19
428.514	417.19
428.736	415.19
428.958	415.19
429.181	389.19
429.403	396.19
429.625	402.19
429.847	444.19
430.069	465.19
430.292	470.19
430.514	420.19
430.736	398.19
430.958	383.19
431.18	377.19
431.402	390.19
431.624	349.19
431.846	367.19
432.068	383.19
432.29	390.19
432.512	368.19
432.734	372.19
432.956	376.19
433.178	380.19
433.4	380.19
433.622	368.19
433.844	373.19
434.066	370.19
434.287	387.19
434.509	379.19
434.731	386.19
434.953	372.19
435.175	390.19
435.397	421.19
435.618	452.19
435.84	459.19
436.062	535.19
436.284	593.19
436.505	488.19
436.727	435.19
436.949	411.19
437.17	400.19
437.392	396.19
437.614	425.19
437.835	443.19
438.057	515.19
438.278	613.19
438.5	623.19
438.721	651.19
438.943	607.19
439.165	498.19
439.386	459.19
439.608	426.19
439.829	441.19
440.05	443.19
440.272	504.19
440.493	458.19
440.715	419.19
440.936	423.19
441.158	403.19
441.379	393.19
441.6	422.19
441.822	402.19
442.043	443.19
442.264	517.19
442.486	555.19
442.707	456.19
442.928	443.19
443.149	462.19
443.371	475.19
443.592	502.19
443.813	552.19
444.034	612.19
444.255	503.19
444.476	440.19
444.698	443.19
444.919	439.19
445.14	549.19
445.361	492.19
445.582	463.19
445.803	506.19
446.024	616.19
446.245	613.19
446.466	543.19
446.687	482.19
446.908	426.19
447.129	412.19
447.35	412.19
447.571	413.19
447.792	413.19
448.013	402.19
448.234	422.19
448.455	465.19
448.675	569.19
448.896	650.19
449.117	529.19
449.338	525.19
449.559	626.19
449.779	649.19
450	554.19
450.221	451.19
450.442	417.19
450.662	391.19
450.883	409.19
451.104	415.19
451.324	404.19
451.545	376.19
451.766	371.19
451.986	373.19
452.207	366.19
452.428	367.19
452.648	354.19
452.869	345.19
453.089	355.19
453.31	385.19
453.53	377.19
453.751	354.19
453.971	360.19
454.192	373.19
454.412	348.19
454.633	364.19
454.853	360.19
455.073	335.19
455.294	374.19
455.514	427.19
455.734	429.19
455.955	364.19
456.175	367.19
456.395	345.19
456.616	333.19
456.836	341.19
457.056	314.19
457.276	319.19
457.497	328.19
457.717	341.19
457.937	331.19
458.157	353.19
458.377	345.19
458.598	356.19
458.818	412.19
459.038	465.19
459.258	499.19
459.478	413.19
459.698	372.19
459.918	371.19
460.138	358.19
460.358	357.19
460.578	395.19
460.798	383.19
461.018	358.19
461.238	372.19
461.458	353.19
461.678	365.19
461.898	380.19
462.118	377.19
462.338	370.19
462.558	360.19
462.777	358.19
462.997	375.19
463.217	391.19
463.437	389.19
463.657	391.19
463.876	378.19
464.096	394.19
464.316	369.19
464.536	397.19
464.755	385.19
464.975	387.19
465.195	418.19
465.414	487.19
465.634	409.19
465.854	402.19
466.073	392.19
466.293	362.19
466.512	353.19
466.732	351.19
466.951	356.19
467.171	356.19
467.391	358.19
467.61	375.19
467.829	364.19
468.049	366.19
468.268	374.19
468.488	357.19
468.707	335.19
468.927	369.19
469.146	347.19
469.365	358.19
469.585	335.19
469.804	368.19
470.023	363.19
470.243	377.19
470.462	376.19
470.681	378.19
470.901	384.19
471.12	374.19
471.339	367.19
471.558	355.19
471.777	343.19
471.997	363.19
472.216	367.19
472.435	387.19
472.654	375.19
472.873	356.19
473.092	356.19
473.311	375.19
473.53	369.19
473.749	375.19
473.968	406.19
474.187	493.19
474.406	513.19
474.625	431.19
474.844	369.19
475.063	371.19
475.282	377.19
475.501	366.19
475.72	372.19
475.939	368.19
476.158	392.19
476.377	377.19
476.596	373.19
476.814	375.19
477.033	388.19
477.252	392.19
477.471	385.19
477.69	378.19
477.908	371.19
478.127	369.19
478.346	385.19
478.564	393.19
478.783	380.19
479.002	387.19
479.22	403.19
479.439	432.19
479.658	441.19
479.876	439.19
480.095	429.19
480.313	443.19
480.532	435.19
480.751	446.19
480.969	451.19
481.188	449.19
481.406	472.19
481.624	457.19
481.843	431.19
482.061	420.19
482.28	414.19
482.498	416.19
482.717	407.19
482.935	427.19
483.153	441.19
483.372	407.19
483.59	435.19
483.808	428.19
484.027	412.19
484.245	416.19
484.463	431.19
484.681	443.19
484.9	417.19
485.118	435.19
485.336	435.19
485.554	429.19
485.772	443.19
485.99	422.19
486.209	426.19
486.427	439.19
486.645	436.19
486.863	464.19
487.081	459.19
487.299	444.19
487.517	473.19
487.735	469.19
487.953	461.19
488.171	469.19
488.389	463.19
488.607	446.19
488.825	460.19
489.043	460.19
489.261	470.19
489.479	478.19
489.696	444.19
489.914	457.19
490.132	477.19
490.35	471.19
490.568	465.19
490.786	496.19
491.003	481.19
491.221	491.19
491.439	500.19
491.657	493.19
491.874	515.19
492.092	503.19
492.31	523.19
492.527	521.19
492.745	512.19
492.963	515.19
493.18	536.19
493.398	545.19
493.615	531.19
493.833	531.19
494.05	531.19
494.268	547.19
494.485	517.19
494.703	533.19
494.92	545.19
495.138	531.19
495.355	553.19
495.573	534.19
495.79	518.19
496.008	516.19
496.225	551.19
496.442	545.19
496.66	533.19
496.877	545.19
497.094	536.19
497.312	549.19
497.529	531.19
497.746	581.19
497.963	567.19
498.181	581.19
498.398	573.19
498.615	578.19
498.832	592.19
499.049	585.19
499.267	602.19
499.484	631.19
499.701	667.19
499.918	616.19
500.135	667.19
500.352	703.19
500.569	681.19
500.786	679.19
501.003	677.19
501.22	670.19
501.437	635.19
501.654	657.19
501.871	651.19
502.088	637.19
502.305	616.19
502.522	613.19
502.739	593.19
502.956	570.19
503.172	579.19
503.389	565.19
503.606	549.19
503.823	572.19
504.04	551.19
504.256	556.19
504.473	536.19
504.69	536.19
504.907	545.19
505.123	545.19
505.34	532.19
505.557	521.19
505.773	523.19
505.99	520.19
506.207	529.19
506.423	541.19
506.64	541.19
506.856	507.19
507.073	509.19
507.289	522.19
507.506	515.19
507.722	510.19
507.939	554.19
508.155	523.19
508.372	487.19
508.588	516.19
508.805	504.19
509.021	492.19
509.238	502.19
509.454	537.19
509.67	518.19
509.887	504.19
510.103	487.19
510.319	513.19
510.536	599.19
510.752	982.19
510.968	793.19
511.184	519.19
511.401	506.19
511.617	501.19
511.833	465.19
512.049	467.19
512.265	489.19
512.481	498.19
512.698	472.19
512.914	462.19
513.13	473.19
513.346	472.19
513.562	469.19
513.778	489.19
513.994	483.19
514.21	493.19
514.426	520.19
514.642	538.19
514.858	564.19
515.074	597.19
515.29	730.19
515.506	1021.19
515.721	879.19
515.937	589.19
516.153	549.19
516.369	518.19
516.585	488.19
516.801	492.19
517.016	475.19
517.232	460.19
517.448	492.19
517.664	496.19
517.879	488.19
518.095	465.19
518.311	494.19
518.527	472.19
518.742	471.19
518.958	469.19
519.173	468.19
519.389	474.19
519.605	483.19
519.82	480.19
520.036	487.19
520.251	499.19
520.467	537.19
520.682	545.19
520.898	542.19
521.113	550.19
521.329	578.19
521.544	657.19
521.76	833.19
521.975	1389.19
522.19	1319.19
522.406	755.19
522.621	572.19
522.836	522.19
523.052	483.19
523.267	465.19
523.482	436.19
523.698	424.19
523.913	461.19
524.128	437.19
524.343	422.19
524.559	429.19
524.774	424.19
524.989	427.19
525.204	425.19
525.419	419.19
525.634	420.19
525.849	416.19
526.064	403.19
526.28	408.19
526.495	417.19
526.71	395.19
526.925	408.19
527.14	384.19
527.355	398.19
527.57	385.19
527.785	401.19
527.999	369.19
528.214	400.19
528.429	415.19
528.644	375.19
528.859	389.19
529.074	402.19
529.289	410.19
529.503	485.19
529.718	479.19
529.933	416.19
530.148	408.19
530.363	415.19
530.577	385.19
530.792	372.19
531.007	383.19
531.221	403.19
531.436	369.19
531.651	384.19
531.865	379.19
532.08	386.19
532.295	374.19
532.509	385.19
532.724	383.19
532.938	384.19
533.153	375.19
533.367	380.19
533.582	349.19
533.796	388.19
534.011	367.19
534.225	360.19
534.44	369.19
534.654	369.19
534.868	371.19
535.083	348.19
535.297	385.19
535.511	379.19
535.726	389.19
535.94	393.19
536.154	373.19
536.369	381.19
536.583	370.19
536.797	372.19
537.011	347.19
537.225	371.19
537.44	337.19
537.654	339.19
537.868	355.19
538.082	376.19
538.296	362.19
538.51	367.19
538.724	364.19
538.938	340.19
539.153	373.19
539.367	379.19
539.581	367.19
539.795	361.19
540.009	357.19
540.222	369.19
540.436	362.19
540.65	364.19
540.864	378.19
541.078	362.19
541.292	362.19
541.506	356.19
541.72	354.19
541.934	327.19
542.147	369.19
542.361	353.19
542.575	350.19
542.789	352.19
543.002	355.19
543.216	365.19
543.43	357.19
543.644	355.19
543.857	339.19
544.071	363.19
544.285	358.19
544.498	336.19
544.712	357.19
544.925	369.19
545.139	357.19
545.352	326.19
545.566	344.19
545.779	346.19
545.993	345.19
546.206	353.19
546.42	362.19
546.633	348.19
546.847	341.19
547.06	343.19
547.274	343.19
547.487	331.19
547.7	327.19
547.914	357.19
548.127	336.19
548.34	344.19
548.554	340.19
548.767	336.19
548.98	324.19
549.193	343.19
549.407	317.19
549.62	336.19
549.833	325.19
550.046	339.19
550.259	316.19
550.473	333.19
550.686	336.19
550.899	332.19
551.112	300.19
551.325	331.19
551.538	323.19
551.751	330.19
551.964	321.19
552.177	332.19
552.39	325.19
552.603	329.19
552.816	323.19
553.029	353.19
553.242	351.19
553.455	333.19
553.667	327.19
553.88	323.19
554.093	345.19
554.306	331.19
554.519	333.19
554.732	352.19
554.944	311.19
555.157	315.19
555.37	337.19
555.583	329.19
555.795	324.19
556.008	317.19
556.221	305.19
556.433	329.19
556.646	316.19
556.859	311.19
557.071	298.19
557.284	289.19
557.496	311.19
557.709	309.19
557.921	314.19
558.134	315.19
558.346	319.19
558.559	293.19
558.771	311.19
558.984	294.19
559.196	299.19
559.409	296.19
559.621	328.19
559.833	310.19
560.046	299.19
560.258	309.19
560.47	294.19
560.683	284.19
560.895	308.19
561.107	295.19
561.32	285.19
561.532	308.19
561.744	303.19
561.956	300.19
562.168	287.19
562.381	305.19
562.593	309.19
562.805	288.19
563.017	309.19
563.229	300.19
563.441	296.19
563.653	321.19
563.865	292.19
564.077	317.19
564.289	305.19
564.501	301.19
564.713	327.19
564.925	314.19
565.137	331.19
565.349	330.19
565.561	318.19
565.773	334.19
565.985	319.19
566.197	312.19
566.408	329.19
566.62	333.19
566.832	354.19
567.044	344.19
567.255	343.19
567.467	345.19
567.679	354.19
567.891	347.19
568.102	312.19
568.314	329.19
568.526	330.19
568.737	321.19
568.949	316.19
569.161	303.19
569.372	298.19
569.584	278.19
569.795	326.19
570.007	291.19
570.218	326.19
570.43	320.19
570.641	303.19
570.853	282.19
571.064	276.19
571.276	287.19
571.487	278.19
571.698	288.19
571.91	278.19
572.121	287.19
572.333	271.19
572.544	287.19
572.755	282.19
572.966	281.19
573.178	265.19
573.389	273.19
573.6	271.19
573.811	258.19
574.023	250.19
574.234	254.19
574.445	264.19
574.656	271.19
574.867	252.19
575.078	249.19
575.289	251.19
575.501	261.19
575.712	291.19
575.923	255.19
576.134	255.19
576.345	263.19
576.556	249.19
576.767	275.19
576.978	260.19
577.188	268.19
577.399	236.19
577.61	226.19
577.821	257.19
578.032	263.19
578.243	289.19
578.454	475.19
578.665	360.19
578.875	257.19
579.086	263.19
579.297	260.19
579.508	259.19
579.718	253.19
579.929	266.19
580.14	262.19
580.35	245.19
580.561	239.19
580.772	232.19
580.982	243.19
581.193	242.19
581.403	261.19
581.614	243.19
581.825	230.19
582.035	242.19
582.246	249.19
582.456	241.19
582.667	239.19
582.877	228.19
583.087	251.19
583.298	241.19
583.508	226.19
583.719	239.19
583.929	235.19
584.139	237.19
584.35	228.19
584.56	232.19
584.77	266.19
584.981	234.19
585.191	222.19
585.401	255.19
585.611	258.19
585.821	247.19
586.032	237.19
586.242	230.19
586.452	245.19
586.662	216.19
586.872	240.19
587.082	235.19
587.292	227.19
587.502	226.19
587.713	215.19
587.923	228.19
588.133	233.19
588.343	233.19
588.553	231.19
588.762	235.19
588.972	247.19
589.182	292.19
589.392	277.19
589.602	249.19
589.812	266.19
590.022	268.19
590.232	253.19
590.441	221.19
590.651	234.19
590.861	237.19
591.071	246.19
591.281	224.19
591.49	223.19
591.7	231.19
591.91	228.19
592.119	249.19
592.329	229.19
592.539	243.19
592.748	234.19
592.958	214.19
593.167	233.19
593.377	223.19
593.587	247.19
593.796	240.19
594.006	239.19
594.215	237.19
594.424	257.19
594.634	232.19
594.843	245.19
595.053	230.19
595.262	231.19
595.472	220.19
595.681	225.19
595.89	223.19
596.1	227.19
596.309	225.19
596.518	239.19
596.727	238.19
596.937	216.19
597.146	214.19
597.355	220.19
597.564	227.19
597.774	235.19
597.983	204.19
598.192	202.19
598.401	205.19
598.61	203.19
598.819	229.19
599.028	221.19
599.237	203.19
599.446	193.19
599.655	215.19
599.864	216.19
600.073	216.19
600.282	218.19
600.491	215.19
600.7	228.19
600.909	200.19
601.118	208.19
601.327	212.19
601.536	212.19
601.745	202.19
601.953	207.19
602.162	207.19
602.371	195.19
602.58	225.19
602.789	203.19
602.997	204.19
603.206	202.19
603.415	187.19
603.623	204.19
603.832	203.19
604.041	201.19
604.249	206.19
604.458	196.19
604.666	196.19
604.875	210.19
605.084	207.19
605.292	212.19
605.501	196.19
605.709	192.19
605.918	194.19
606.126	204.19
606.334	208.19
606.543	197.19
606.751	197.19
606.96	206.19
607.168	198.19
607.376	195.19
607.585	184.19
607.793	194.19
608.001	184.19
608.21	195.19
608.418	193.19
608.626	199.19
608.834	207.19
609.043	195.19
609.251	204.19
609.459	203.19
609.667	189.19
609.875	208.19
610.083	197.19
610.291	199.19
610.499	197.19
610.707	199.19
610.916	203.19
611.124	193.19
611.332	202.19
611.54	211.19
611.748	187.19
611.955	202.19
612.163	200.19
612.371	199.19
612.579	193.19
612.787	199.19
612.995	198.19
613.203	189.19
613.411	193.19
613.618	199.19
613.826	199.19
614.034	190.19
614.242	189.19
614.449	187.19
614.657	196.19
614.865	179.19
615.072	193.19
615.28	192.19
615.488	167.19
615.695	201.19
615.903	191.19
616.111	192.19
616.318	200.19
616.526	196.19
616.733	219.19
616.941	194.19
617.148	202.19
617.356	181.19
617.563	195.19
617.771	202.19
617.978	198.19
618.185	184.19
618.393	174.19
618.6	182.19
618.807	186.19
619.015	186.19
619.222	184.19
619.429	182.19
619.637	182.19
619.844	189.19
620.051	168.19
620.258	192.19
620.466	185.19
620.673	182.19
620.88	185.19
621.087	179.19
621.294	182.19
621.501	187.19
621.708	181.19
621.915	172.19
622.122	187.19
622.329	181.19
622.536	191.19
622.743	163.19
622.95	176.19
623.157	189.19
623.364	182.19
623.571	182.19
623.778	161.19
623.985	175.19
624.192	167.19
624.399	169.19
624.606	192.19
624.812	183.19
625.019	186.19
625.226	180.19
625.433	168.19
625.639	177.19
625.846	181.19
626.053	172.19
626.259	166.19
626.466	180.19
626.673	183.19
626.879	184.19
627.086	183.19
627.293	183.19
627.499	169.19
627.706	174.19
627.912	165.19
628.119	162.19
628.325	167.19
628.532	151.19
628.738	152.19
628.945	176.19
629.151	157.19
629.357	165.19
629.564	156.19
629.77	158.19
629.976	167.19
630.183	179.19
630.389	157.19
630.595	176.19
630.802	159.19
631.008	170.19
631.214	162.19
631.42	149.19
631.627	161.19
631.833	163.19
632.039	172.19
632.245	159.19
632.451	176.19
632.657	157.19
632.863	160.19
633.069	147.19
633.275	167.19
633.481	154.19
633.688	154.19
633.893	167.19
634.099	161.19
634.305	148.19
634.511	151.19
634.717	158.19
634.923	148.19
635.129	140.19
635.335	143.19
635.541	151.19
635.747	148.19
635.952	159.19
636.158	140.19
636.364	155.19
636.57	157.19
636.775	159.19
636.981	150.19
637.187	159.19
637.392	154.19
637.598	152.19
637.804	142.19
638.009	146.19
638.215	162.19
638.421	152.19
638.626	140.19
638.832	147.19
639.037	146.19
639.243	141.19
639.448	146.19
639.654	141.19
639.859	138.19
640.065	142.19
640.27	173.19
640.475	143.19
640.681	147.19
640.886	147.19
641.091	143.19
641.297	151.19
641.502	143.19
641.707	151.19
641.913	140.19
642.118	150.19
642.323	142.19
642.528	142.19
642.733	153.19
642.939	150.19
643.144	152.19
643.349	144.19
643.554	155.19
643.759	131.19
643.964	129.19
644.169	149.19
644.374	129.19
644.579	144.19
644.784	140.19
644.989	127.19
645.194	139.19
645.399	139.19
645.604	153.19
645.809	128.19
646.014	134.19
646.219	128.19
646.423	140.19
646.628	140.19
646.833	132.19
647.038	135.19
647.243	165.19
647.447	145.19
647.652	148.19
647.857	152.19
648.062	141.19
648.266	150.19
648.471	151.19
648.676	157.19
648.88	151.19
649.085	152.19
649.289	141.19
649.494	159.19
649.698	155.19
649.903	161.19
650.107	166.19
650.312	139.19
650.516	143.19
650.721	147.19
650.925	124.19
651.13	133.19
651.334	143.19
651.539	141.19
651.743	135.19
651.947	132.19
652.152	136.19
652.356	132.19
652.56	134.19
652.764	119.19
652.969	129.19
653.173	131.19
653.377	144.19
653.581	117.19
653.785	129.19
653.99	122.19
654.194	128.19
654.398	135.19
654.602	125.19
654.806	136.19
655.01	130.19
655.214	135.19
655.418	126.19
655.622	117.19
655.826	128.19
656.03	121.19
656.234	132.19
656.438	135.19
656.642	123.19
656.846	131.19
657.049	126.19
657.253	117.19
657.457	118.19
657.661	117.19
657.865	105.19
658.068	119.19
658.272	97.19
658.476	99.19
658.68	109.19
658.883	106.19
659.087	98.19
659.291	91.19
659.494	99.19
659.698	107.19
659.901	93.19
660.105	97.19
660.309	82.19
660.512	105.19
660.716	101.19
660.919	84.19
661.123	88.19
661.326	101.19
661.53	78.19
661.733	95.19
661.936	92.19
662.14	97.19
662.343	83.19
662.546	90.19
662.75	87.19
662.953	108.19
663.156	75.19
663.36	80.19
663.563	75.19
663.766	82.19
663.969	86.19
664.173	84.19
664.376	97.19
664.579	89.19
664.782	90.19
664.985	79.19
665.188	71.19
665.391	77.19
665.594	79.19
665.797	83.19
666	87.19
666.203	88.19
666.406	71.19
666.609	86.19
666.812	91.19
667.015	84.19
667.218	81.19
667.421	86.19
667.624	89.19
667.827	93.19
668.03	94.19
668.232	80.19
668.435	78.19
668.638	97.19
668.841	83.19
669.043	92.19
669.246	82.19
669.449	66.19
669.651	79.19
669.854	94.19
670.057	89.19
670.259	78.19
670.462	101.19
670.665	73.19
670.867	81.19
671.07	87.19
671.272	74.19
671.475	77.19
671.677	73.19
671.88	70.19
672.082	73.19
672.284	78.19
672.487	85.19
672.689	88.19
672.892	86.19
