Data from 1981.PennyLincolnUp.Lamp.En5.5.200Scan.071819.P1_HRD10591_16-40-52-959.txt Node
Date: Thu Jul 18 16:40:52 EDT 2019
User: cochatt
Spectrometer: HR+D1059
Trigger mode: 1
Integration Time (sec): 1.000000E-1
Scans to average: 1
Electric dark correction enabled: true
Nonlinearity correction enabled: false
Boxcar width: 0
XAxis mode: Wavelengths
Number of Pixels in Spectrum: 2048
>>>>>Begin Spectral Data<<<<<
223.165	-3.81
223.4	-3.81
223.635	-3.81
223.869	-31.81
224.104	-25.81
224.338	-19.81
224.573	-8.81
224.808	-10.81
225.042	-15.81
225.277	-3.81
225.511	3.19
225.746	6.19
225.98	6.19
226.215	17.19
226.449	14.19
226.683	10.19
226.918	19.19
227.152	44.19
227.387	40.19
227.621	38.19
227.856	38.19
228.09	44.19
228.324	42.19
228.559	49.19
228.793	65.19
229.027	89.19
229.262	88.19
229.496	84.19
229.73	107.19
229.964	137.19
230.199	110.19
230.433	106.19
230.667	112.19
230.901	104.19
231.136	116.19
231.37	116.19
231.604	108.19
231.838	104.19
232.072	102.19
232.306	108.19
232.541	113.19
232.775	101.19
233.009	116.19
233.243	107.19
233.477	108.19
233.711	107.19
233.945	121.19
234.179	104.19
234.413	123.19
234.647	128.19
234.881	100.19
235.115	97.19
235.349	123.19
235.583	99.19
235.817	119.19
236.051	120.19
236.285	101.19
236.519	105.19
236.753	125.19
236.987	138.19
237.221	164.19
237.455	209.19
237.689	177.19
237.922	130.19
238.156	130.19
238.39	117.19
238.624	132.19
238.858	124.19
239.091	116.19
239.325	135.19
239.559	118.19
239.793	116.19
240.027	122.19
240.26	124.19
240.494	143.19
240.728	135.19
240.961	137.19
241.195	138.19
241.429	139.19
241.662	130.19
241.896	128.19
242.13	120.19
242.363	117.19
242.597	129.19
242.83	138.19
243.064	135.19
243.298	117.19
243.531	128.19
243.765	132.19
243.998	132.19
244.232	113.19
244.465	146.19
244.699	133.19
244.932	155.19
245.166	142.19
245.399	147.19
245.633	123.19
245.866	137.19
246.099	141.19
246.333	139.19
246.566	147.19
246.8	137.19
247.033	161.19
247.266	157.19
247.5	169.19
247.733	153.19
247.966	166.19
248.2	154.19
248.433	161.19
248.666	158.19
248.899	191.19
249.133	197.19
249.366	207.19
249.599	184.19
249.832	177.19
250.066	180.19
250.299	184.19
250.532	186.19
250.765	205.19
250.998	192.19
251.231	212.19
251.465	209.19
251.698	188.19
251.931	199.19
252.164	196.19
252.397	192.19
252.63	199.19
252.863	189.19
253.096	211.19
253.329	216.19
253.562	220.19
253.795	203.19
254.028	225.19
254.261	222.19
254.494	203.19
254.727	241.19
254.96	254.19
255.193	257.19
255.426	237.19
255.659	210.19
255.892	212.19
256.124	221.19
256.357	205.19
256.59	205.19
256.823	215.19
257.056	220.19
257.289	216.19
257.521	198.19
257.754	195.19
257.987	202.19
258.22	202.19
258.452	197.19
258.685	209.19
258.918	204.19
259.151	208.19
259.383	216.19
259.616	214.19
259.849	221.19
260.081	240.19
260.314	237.19
260.547	238.19
260.779	234.19
261.012	219.19
261.244	205.19
261.477	236.19
261.71	221.19
261.942	218.19
262.175	219.19
262.407	200.19
262.64	218.19
262.872	196.19
263.105	186.19
263.337	216.19
263.57	200.19
263.802	197.19
264.035	206.19
264.267	195.19
264.499	191.19
264.732	208.19
264.964	204.19
265.197	201.19
265.429	209.19
265.661	190.19
265.894	202.19
266.126	197.19
266.358	204.19
266.591	211.19
266.823	204.19
267.055	202.19
267.287	215.19
267.52	209.19
267.752	219.19
267.984	225.19
268.216	209.19
268.448	226.19
268.681	227.19
268.913	216.19
269.145	254.19
269.377	255.19
269.609	243.19
269.841	253.19
270.073	250.19
270.306	257.19
270.538	283.19
270.77	288.19
271.002	287.19
271.234	270.19
271.466	280.19
271.698	287.19
271.93	304.19
272.162	289.19
272.394	294.19
272.626	286.19
272.858	268.19
273.09	273.19
273.322	260.19
273.553	239.19
273.785	261.19
274.017	244.19
274.249	265.19
274.481	268.19
274.713	258.19
274.945	239.19
275.176	269.19
275.408	244.19
275.64	234.19
275.872	244.19
276.104	260.19
276.335	256.19
276.567	264.19
276.799	245.19
277.031	277.19
277.262	293.19
277.494	301.19
277.726	272.19
277.957	271.19
278.189	258.19
278.421	264.19
278.652	270.19
278.884	231.19
279.115	246.19
279.347	260.19
279.579	242.19
279.81	250.19
280.042	241.19
280.273	263.19
280.505	245.19
280.736	260.19
280.968	258.19
281.199	260.19
281.431	261.19
281.662	248.19
281.894	247.19
282.125	242.19
282.356	270.19
282.588	307.19
282.819	280.19
283.051	267.19
283.282	260.19
283.513	249.19
283.745	255.19
283.976	248.19
284.207	257.19
284.439	257.19
284.67	264.19
284.901	266.19
285.132	278.19
285.364	267.19
285.595	248.19
285.826	256.19
286.057	253.19
286.288	260.19
286.52	274.19
286.751	262.19
286.982	259.19
287.213	262.19
287.444	267.19
287.675	274.19
287.906	285.19
288.138	293.19
288.369	285.19
288.6	276.19
288.831	274.19
289.062	264.19
289.293	260.19
289.524	282.19
289.755	262.19
289.986	284.19
290.217	277.19
290.448	276.19
290.679	251.19
290.91	252.19
291.141	273.19
291.371	278.19
291.602	258.19
291.833	274.19
292.064	259.19
292.295	242.19
292.526	264.19
292.757	275.19
292.987	256.19
293.218	261.19
293.449	269.19
293.68	264.19
293.91	263.19
294.141	259.19
294.372	254.19
294.603	266.19
294.833	268.19
295.064	273.19
295.295	272.19
295.525	281.19
295.756	285.19
295.987	277.19
296.217	302.19
296.448	315.19
296.679	280.19
296.909	292.19
297.14	274.19
297.37	271.19
297.601	272.19
297.831	270.19
298.062	280.19
298.292	288.19
298.523	270.19
298.753	278.19
298.984	298.19
299.214	273.19
299.445	289.19
299.675	281.19
299.905	268.19
300.136	257.19
300.366	271.19
300.597	282.19
300.827	301.19
301.057	289.19
301.288	301.19
301.518	296.19
301.748	297.19
301.979	292.19
302.209	292.19
302.439	292.19
302.669	273.19
302.9	297.19
303.13	297.19
303.36	305.19
303.59	295.19
303.82	306.19
304.051	305.19
304.281	304.19
304.511	308.19
304.741	293.19
304.971	298.19
305.201	289.19
305.431	308.19
305.661	302.19
305.891	279.19
306.121	310.19
306.352	311.19
306.582	317.19
306.812	309.19
307.042	320.19
307.272	312.19
307.502	317.19
307.731	311.19
307.961	296.19
308.191	310.19
308.421	299.19
308.651	322.19
308.881	317.19
309.111	326.19
309.341	320.19
309.571	319.19
309.8	317.19
310.03	334.19
310.26	334.19
310.49	355.19
310.72	344.19
310.949	344.19
311.179	373.19
311.409	344.19
311.639	342.19
311.868	331.19
312.098	355.19
312.328	360.19
312.557	382.19
312.787	373.19
313.017	369.19
313.246	352.19
313.476	344.19
313.706	331.19
313.935	342.19
314.165	338.19
314.394	356.19
314.624	360.19
314.853	354.19
315.083	345.19
315.312	348.19
315.542	352.19
315.771	345.19
316.001	333.19
316.23	340.19
316.46	359.19
316.689	352.19
316.919	360.19
317.148	350.19
317.377	370.19
317.607	365.19
317.836	366.19
318.065	356.19
318.295	345.19
318.524	347.19
318.753	336.19
318.983	341.19
319.212	344.19
319.441	356.19
319.67	368.19
319.9	364.19
320.129	368.19
320.358	369.19
320.587	333.19
320.816	379.19
321.046	372.19
321.275	375.19
321.504	365.19
321.733	364.19
321.962	364.19
322.191	382.19
322.42	396.19
322.649	401.19
322.878	414.19
323.108	428.19
323.337	445.19
323.566	448.19
323.795	486.19
324.024	546.19
324.253	662.19
324.482	946.19
324.71	1382.19
324.939	1886.19
325.168	1620.19
325.397	857.19
325.626	606.19
325.855	524.19
326.084	476.19
326.313	472.19
326.542	467.19
326.77	533.19
326.999	617.19
327.228	813.19
327.457	1216.19
327.686	1400.19
327.914	962.19
328.143	652.19
328.372	572.19
328.6	540.19
328.829	518.19
329.058	515.19
329.287	541.19
329.515	510.19
329.744	451.19
329.972	446.19
330.201	475.19
330.43	482.19
330.658	516.19
330.887	555.19
331.115	520.19
331.344	454.19
331.572	428.19
331.801	465.19
332.03	441.19
332.258	413.19
332.486	423.19
332.715	421.19
332.943	420.19
333.172	412.19
333.4	408.19
333.629	412.19
333.857	406.19
334.085	420.19
334.314	404.19
334.542	448.19
334.771	448.19
334.999	437.19
335.227	422.19
335.455	396.19
335.684	415.19
335.912	386.19
336.14	389.19
336.369	401.19
336.597	416.19
336.825	403.19
337.053	406.19
337.281	404.19
337.51	377.19
337.738	411.19
337.966	390.19
338.194	378.19
338.422	391.19
338.65	395.19
338.878	389.19
339.106	395.19
339.334	375.19
339.562	372.19
339.79	370.19
340.018	393.19
340.246	406.19
340.474	384.19
340.702	354.19
340.93	386.19
341.158	374.19
341.386	394.19
341.614	387.19
341.842	394.19
342.07	382.19
342.298	373.19
342.526	352.19
342.754	363.19
342.981	372.19
343.209	362.19
343.437	372.19
343.665	356.19
343.893	374.19
344.12	380.19
344.348	369.19
344.576	377.19
344.804	384.19
345.031	377.19
345.259	389.19
345.487	373.19
345.714	393.19
345.942	392.19
346.17	363.19
346.397	392.19
346.625	367.19
346.853	368.19
347.08	357.19
347.308	399.19
347.535	379.19
347.763	387.19
347.99	399.19
348.218	378.19
348.445	384.19
348.673	372.19
348.9	385.19
349.128	370.19
349.355	361.19
349.583	359.19
349.81	364.19
350.037	362.19
350.265	364.19
350.492	353.19
350.72	345.19
350.947	366.19
351.174	373.19
351.402	365.19
351.629	374.19
351.856	374.19
352.083	387.19
352.311	384.19
352.538	384.19
352.765	380.19
352.992	376.19
353.22	363.19
353.447	371.19
353.674	358.19
353.901	361.19
354.128	359.19
354.355	333.19
354.583	347.19
354.81	341.19
355.037	340.19
355.264	332.19
355.491	321.19
355.718	334.19
355.945	331.19
356.172	346.19
356.399	330.19
356.626	326.19
356.853	344.19
357.08	325.19
357.307	346.19
357.534	338.19
357.761	333.19
357.988	323.19
358.215	346.19
358.441	331.19
358.668	326.19
358.895	354.19
359.122	338.19
359.349	355.19
359.576	354.19
359.802	390.19
360.029	394.19
360.256	394.19
360.483	399.19
360.709	378.19
360.936	354.19
361.163	342.19
361.39	344.19
361.616	364.19
361.843	369.19
362.07	354.19
362.296	328.19
362.523	371.19
362.749	368.19
362.976	353.19
363.203	338.19
363.429	332.19
363.656	350.19
363.882	356.19
364.109	345.19
364.335	325.19
364.562	328.19
364.788	334.19
365.015	340.19
365.241	360.19
365.468	350.19
365.694	328.19
365.92	340.19
366.147	312.19
366.373	359.19
366.599	339.19
366.826	331.19
367.052	331.19
367.278	323.19
367.505	333.19
367.731	360.19
367.957	331.19
368.184	325.19
368.41	340.19
368.636	354.19
368.862	354.19
369.089	330.19
369.315	345.19
369.541	346.19
369.767	320.19
369.993	341.19
370.219	333.19
370.445	334.19
370.672	334.19
370.898	336.19
371.124	342.19
371.35	334.19
371.576	328.19
371.802	337.19
372.028	325.19
372.254	329.19
372.48	322.19
372.706	335.19
372.932	338.19
373.158	333.19
373.384	328.19
373.61	331.19
373.835	345.19
374.061	333.19
374.287	339.19
374.513	329.19
374.739	356.19
374.965	342.19
375.191	337.19
375.416	340.19
375.642	336.19
375.868	334.19
376.094	348.19
376.319	332.19
376.545	330.19
376.771	326.19
376.997	322.19
377.222	332.19
377.448	340.19
377.674	330.19
377.899	346.19
378.125	345.19
378.35	331.19
378.576	312.19
378.802	330.19
379.027	334.19
379.253	323.19
379.478	319.19
379.704	311.19
379.929	333.19
380.155	345.19
380.38	335.19
380.606	327.19
380.831	323.19
381.057	331.19
381.282	340.19
381.507	331.19
381.733	337.19
381.958	334.19
382.184	326.19
382.409	323.19
382.634	330.19
382.86	316.19
383.085	345.19
383.31	334.19
383.535	325.19
383.761	335.19
383.986	331.19
384.211	340.19
384.436	352.19
384.662	327.19
384.887	336.19
385.112	325.19
385.337	346.19
385.562	349.19
385.787	352.19
386.013	339.19
386.238	342.19
386.463	334.19
386.688	341.19
386.913	343.19
387.138	352.19
387.363	351.19
387.588	340.19
387.813	355.19
388.038	348.19
388.263	337.19
388.488	350.19
388.713	359.19
388.938	338.19
389.163	347.19
389.387	355.19
389.612	349.19
389.837	352.19
390.062	339.19
390.287	319.19
390.512	339.19
390.736	329.19
390.961	338.19
391.186	352.19
391.411	347.19
391.636	336.19
391.86	342.19
392.085	361.19
392.31	333.19
392.534	358.19
392.759	352.19
392.984	349.19
393.208	346.19
393.433	359.19
393.658	354.19
393.882	368.19
394.107	354.19
394.331	346.19
394.556	341.19
394.78	338.19
395.005	345.19
395.229	342.19
395.454	339.19
395.678	366.19
395.903	363.19
396.127	374.19
396.352	361.19
396.576	360.19
396.801	344.19
397.025	357.19
397.249	350.19
397.474	361.19
397.698	370.19
397.922	370.19
398.147	380.19
398.371	392.19
398.595	365.19
398.82	384.19
399.044	382.19
399.268	397.19
399.492	405.19
399.717	424.19
399.941	425.19
400.165	467.19
400.389	459.19
400.613	440.19
400.837	407.19
401.062	394.19
401.286	384.19
401.51	381.19
401.734	357.19
401.958	387.19
402.182	369.19
402.406	382.19
402.63	383.19
402.854	388.19
403.078	382.19
403.302	376.19
403.526	408.19
403.75	385.19
403.974	390.19
404.198	387.19
404.422	381.19
404.645	386.19
404.869	392.19
405.093	419.19
405.317	422.19
405.541	469.19
405.765	421.19
405.988	423.19
406.212	415.19
406.436	449.19
406.66	452.19
406.883	426.19
407.107	446.19
407.331	493.19
407.555	546.19
407.778	525.19
408.002	485.19
408.226	451.19
408.449	450.19
408.673	432.19
408.896	458.19
409.12	491.19
409.344	465.19
409.567	410.19
409.791	411.19
410.014	399.19
410.238	404.19
410.461	428.19
410.685	394.19
410.908	409.19
411.132	430.19
411.355	455.19
411.578	429.19
411.802	410.19
412.025	389.19
412.249	408.19
412.472	402.19
412.695	411.19
412.919	432.19
413.142	370.19
413.365	382.19
413.589	374.19
413.812	346.19
414.035	397.19
414.258	385.19
414.482	357.19
414.705	374.19
414.928	358.19
415.151	373.19
415.374	368.19
415.597	389.19
415.821	369.19
416.044	393.19
416.267	359.19
416.49	381.19
416.713	373.19
416.936	371.19
417.159	384.19
417.382	366.19
417.605	369.19
417.828	360.19
418.051	390.19
418.274	374.19
418.497	376.19
418.72	377.19
418.943	360.19
419.166	370.19
419.389	379.19
419.611	393.19
419.834	390.19
420.057	381.19
420.28	388.19
420.503	379.19
420.726	392.19
420.948	403.19
421.171	436.19
421.394	422.19
421.617	417.19
421.839	394.19
422.062	398.19
422.285	388.19
422.507	444.19
422.73	484.19
422.953	500.19
423.175	435.19
423.398	423.19
423.621	391.19
423.843	419.19
424.066	410.19
424.288	418.19
424.511	446.19
424.733	479.19
424.956	530.19
425.178	534.19
425.401	517.19
425.623	537.19
425.846	468.19
426.068	434.19
426.291	410.19
426.513	418.19
426.735	448.19
426.958	476.19
427.18	528.19
427.402	606.19
427.625	697.19
427.847	589.19
428.069	504.19
428.292	468.19
428.514	444.19
428.736	418.19
428.958	420.19
429.181	384.19
429.403	381.19
429.625	390.19
429.847	440.19
430.069	483.19
430.292	471.19
430.514	405.19
430.736	393.19
430.958	386.19
431.18	382.19
431.402	381.19
431.624	376.19
431.846	371.19
432.068	345.19
432.29	363.19
432.512	356.19
432.734	360.19
432.956	358.19
433.178	379.19
433.4	380.19
433.622	387.19
433.844	376.19
434.066	366.19
434.287	344.19
434.509	369.19
434.731	390.19
434.953	378.19
435.175	395.19
435.397	400.19
435.618	438.19
435.84	448.19
436.062	541.19
436.284	604.19
436.505	489.19
436.727	428.19
436.949	399.19
437.17	413.19
437.392	415.19
437.614	405.19
437.835	452.19
438.057	514.19
438.278	582.19
438.5	598.19
438.721	644.19
438.943	574.19
439.165	480.19
439.386	457.19
439.608	464.19
439.829	447.19
440.05	472.19
440.272	498.19
440.493	474.19
440.715	436.19
440.936	412.19
441.158	412.19
441.379	382.19
441.6	425.19
441.822	414.19
442.043	465.19
442.264	520.19
442.486	572.19
442.707	462.19
442.928	422.19
443.149	456.19
443.371	445.19
443.592	482.19
443.813	553.19
444.034	612.19
444.255	501.19
444.476	452.19
444.698	441.19
444.919	436.19
445.14	522.19
445.361	466.19
445.582	465.19
445.803	517.19
446.024	576.19
446.245	580.19
446.466	566.19
446.687	469.19
446.908	430.19
447.129	423.19
447.35	392.19
447.571	379.19
447.792	434.19
448.013	402.19
448.234	419.19
448.455	477.19
448.675	545.19
448.896	617.19
449.117	534.19
449.338	527.19
449.559	588.19
449.779	672.19
450	534.19
450.221	433.19
450.442	408.19
450.662	427.19
450.883	397.19
451.104	412.19
451.324	396.19
451.545	380.19
451.766	358.19
451.986	363.19
452.207	364.19
452.428	350.19
452.648	353.19
452.869	346.19
453.089	373.19
453.31	392.19
453.53	352.19
453.751	376.19
453.971	366.19
454.192	380.19
454.412	380.19
454.633	359.19
454.853	350.19
455.073	356.19
455.294	382.19
455.514	427.19
455.734	424.19
455.955	371.19
456.175	339.19
456.395	339.19
456.616	333.19
456.836	333.19
457.056	349.19
457.276	328.19
457.497	339.19
457.717	335.19
457.937	340.19
458.157	341.19
458.377	341.19
458.598	375.19
458.818	418.19
459.038	454.19
459.258	478.19
459.478	413.19
459.698	367.19
459.918	369.19
460.138	357.19
460.358	376.19
460.578	374.19
460.798	371.19
461.018	356.19
461.238	360.19
461.458	380.19
461.678	354.19
461.898	376.19
462.118	377.19
462.338	361.19
462.558	365.19
462.777	379.19
462.997	378.19
463.217	380.19
463.437	384.19
463.657	388.19
463.876	384.19
464.096	378.19
464.316	390.19
464.536	396.19
464.755	374.19
464.975	395.19
465.195	443.19
465.414	486.19
465.634	438.19
465.854	385.19
466.073	380.19
466.293	370.19
466.512	358.19
466.732	346.19
466.951	348.19
467.171	338.19
467.391	359.19
467.61	354.19
467.829	373.19
468.049	375.19
468.268	350.19
468.488	358.19
468.707	353.19
468.927	345.19
469.146	345.19
469.365	370.19
469.585	368.19
469.804	357.19
470.023	372.19
470.243	368.19
470.462	383.19
470.681	385.19
470.901	365.19
471.12	368.19
471.339	361.19
471.558	358.19
471.777	364.19
471.997	360.19
472.216	381.19
472.435	398.19
472.654	357.19
472.873	374.19
473.092	360.19
473.311	378.19
473.53	380.19
473.749	360.19
473.968	414.19
474.187	484.19
474.406	505.19
474.625	418.19
474.844	388.19
475.063	385.19
475.282	352.19
475.501	386.19
475.72	380.19
475.939	382.19
476.158	365.19
476.377	379.19
476.596	363.19
476.814	388.19
477.033	394.19
477.252	397.19
477.471	395.19
477.69	382.19
477.908	408.19
478.127	395.19
478.346	395.19
478.564	400.19
478.783	388.19
479.002	407.19
479.22	376.19
479.439	407.19
479.658	411.19
479.876	428.19
480.095	443.19
480.313	462.19
480.532	427.19
480.751	434.19
480.969	449.19
481.188	485.19
481.406	481.19
481.624	456.19
481.843	448.19
482.061	438.19
482.28	439.19
482.498	433.19
482.717	407.19
482.935	399.19
483.153	424.19
483.372	418.19
483.59	436.19
483.808	430.19
484.027	445.19
484.245	434.19
484.463	440.19
484.681	442.19
484.9	455.19
485.118	429.19
485.336	444.19
485.554	432.19
485.772	444.19
485.99	458.19
486.209	476.19
486.427	442.19
486.645	455.19
486.863	454.19
487.081	473.19
487.299	446.19
487.517	467.19
487.735	446.19
487.953	440.19
488.171	453.19
488.389	460.19
488.607	480.19
488.825	460.19
489.043	471.19
489.261	447.19
489.479	461.19
489.696	448.19
489.914	445.19
490.132	482.19
490.35	479.19
490.568	469.19
490.786	482.19
491.003	480.19
491.221	481.19
491.439	516.19
491.657	512.19
491.874	512.19
492.092	518.19
492.31	504.19
492.527	524.19
492.745	516.19
492.963	514.19
493.18	511.19
493.398	503.19
493.615	514.19
493.833	536.19
494.05	513.19
494.268	525.19
494.485	541.19
494.703	540.19
494.92	525.19
495.138	540.19
495.355	547.19
495.573	528.19
495.79	540.19
496.008	535.19
496.225	548.19
496.442	530.19
496.66	532.19
496.877	556.19
497.094	531.19
497.312	556.19
497.529	536.19
497.746	570.19
497.963	551.19
498.181	577.19
498.398	558.19
498.615	555.19
498.832	583.19
499.049	606.19
499.267	610.19
499.484	596.19
499.701	618.19
499.918	643.19
500.135	663.19
500.352	661.19
500.569	668.19
500.786	661.19
501.003	676.19
501.22	646.19
501.437	647.19
501.654	650.19
501.871	656.19
502.088	612.19
502.305	615.19
502.522	605.19
502.739	597.19
502.956	556.19
503.172	563.19
503.389	579.19
503.606	551.19
503.823	573.19
504.04	550.19
504.256	573.19
504.473	556.19
504.69	551.19
504.907	538.19
505.123	520.19
505.34	545.19
505.557	510.19
505.773	528.19
505.99	520.19
506.207	524.19
506.423	507.19
506.64	525.19
506.856	502.19
507.073	506.19
507.289	514.19
507.506	512.19
507.722	529.19
507.939	532.19
508.155	537.19
508.372	516.19
508.588	474.19
508.805	498.19
509.021	484.19
509.238	500.19
509.454	520.19
509.67	512.19
509.887	514.19
510.103	473.19
510.319	518.19
510.536	578.19
510.752	944.19
510.968	768.19
511.184	496.19
511.401	489.19
511.617	477.19
511.833	478.19
512.049	476.19
512.265	477.19
512.481	497.19
512.698	457.19
512.914	450.19
513.13	474.19
513.346	466.19
513.562	472.19
513.778	490.19
513.994	491.19
514.21	479.19
514.426	498.19
514.642	540.19
514.858	591.19
515.074	590.19
515.29	720.19
515.506	1056.19
515.721	867.19
515.937	579.19
516.153	522.19
516.369	500.19
516.585	488.19
516.801	492.19
517.016	505.19
517.232	486.19
517.448	504.19
517.664	477.19
517.879	493.19
518.095	475.19
518.311	489.19
518.527	471.19
518.742	480.19
518.958	482.19
519.173	458.19
519.389	467.19
519.605	458.19
519.82	471.19
520.036	458.19
520.251	523.19
520.467	504.19
520.682	548.19
520.898	512.19
521.113	562.19
521.329	576.19
521.544	640.19
521.76	840.19
521.975	1357.19
522.19	1352.19
522.406	770.19
522.621	571.19
522.836	495.19
523.052	478.19
523.267	460.19
523.482	416.19
523.698	455.19
523.913	439.19
524.128	457.19
524.343	440.19
524.559	435.19
524.774	439.19
524.989	418.19
525.204	414.19
525.419	420.19
525.634	404.19
525.849	412.19
526.064	404.19
526.28	392.19
526.495	388.19
526.71	408.19
526.925	411.19
527.14	397.19
527.355	388.19
527.57	385.19
527.785	389.19
527.999	386.19
528.214	380.19
528.429	384.19
528.644	397.19
528.859	386.19
529.074	373.19
529.289	418.19
529.503	481.19
529.718	471.19
529.933	407.19
530.148	386.19
530.363	400.19
530.577	412.19
530.792	378.19
531.007	381.19
531.221	363.19
531.436	364.19
531.651	373.19
531.865	365.19
532.08	362.19
532.295	378.19
532.509	388.19
532.724	372.19
532.938	363.19
533.153	400.19
533.367	382.19
533.582	395.19
533.796	360.19
534.011	359.19
534.225	359.19
534.44	358.19
534.654	385.19
534.868	378.19
535.083	381.19
535.297	372.19
535.511	354.19
535.726	380.19
535.94	387.19
536.154	381.19
536.369	368.19
536.583	378.19
536.797	373.19
537.011	350.19
537.225	349.19
537.44	377.19
537.654	355.19
537.868	372.19
538.082	368.19
538.296	369.19
538.51	378.19
538.724	362.19
538.938	357.19
539.153	370.19
539.367	372.19
539.581	364.19
539.795	372.19
540.009	371.19
540.222	345.19
540.436	355.19
540.65	337.19
540.864	355.19
541.078	374.19
541.292	363.19
541.506	366.19
541.72	362.19
541.934	376.19
542.147	339.19
542.361	354.19
542.575	377.19
542.789	360.19
543.002	374.19
543.216	356.19
543.43	364.19
543.644	376.19
543.857	374.19
544.071	361.19
544.285	361.19
544.498	344.19
544.712	356.19
544.925	347.19
545.139	345.19
545.352	346.19
545.566	356.19
545.779	344.19
545.993	350.19
546.206	364.19
546.42	342.19
546.633	341.19
546.847	350.19
547.06	345.19
547.274	350.19
547.487	352.19
547.7	338.19
547.914	342.19
548.127	349.19
548.34	337.19
548.554	333.19
548.767	332.19
548.98	342.19
549.193	337.19
549.407	345.19
549.62	336.19
549.833	337.19
550.046	338.19
550.259	334.19
550.473	342.19
550.686	328.19
550.899	314.19
551.112	325.19
551.325	316.19
551.538	321.19
551.751	319.19
551.964	332.19
552.177	334.19
552.39	315.19
552.603	326.19
552.816	332.19
553.029	336.19
553.242	321.19
553.455	331.19
553.667	353.19
553.88	333.19
554.093	351.19
554.306	341.19
554.519	342.19
554.732	317.19
554.944	310.19
555.157	329.19
555.37	311.19
555.583	313.19
555.795	309.19
556.008	331.19
556.221	298.19
556.433	309.19
556.646	324.19
556.859	313.19
557.071	316.19
557.284	290.19
557.496	304.19
557.709	311.19
557.921	318.19
558.134	287.19
558.346	304.19
558.559	289.19
558.771	311.19
558.984	285.19
559.196	301.19
559.409	296.19
559.621	314.19
559.833	292.19
560.046	287.19
560.258	305.19
560.47	292.19
560.683	298.19
560.895	286.19
561.107	294.19
561.32	314.19
561.532	297.19
561.744	296.19
561.956	299.19
562.168	300.19
562.381	294.19
562.593	302.19
562.805	298.19
563.017	297.19
563.229	293.19
563.441	301.19
563.653	319.19
563.865	301.19
564.077	310.19
564.289	314.19
564.501	310.19
564.713	305.19
564.925	308.19
565.137	318.19
565.349	353.19
565.561	328.19
565.773	317.19
565.985	329.19
566.197	332.19
566.408	347.19
566.62	321.19
566.832	348.19
567.044	341.19
567.255	355.19
567.467	346.19
567.679	356.19
567.891	335.19
568.102	337.19
568.314	340.19
568.526	320.19
568.737	326.19
568.949	310.19
569.161	298.19
569.372	306.19
569.584	319.19
569.795	307.19
570.007	318.19
570.218	354.19
570.43	329.19
570.641	302.19
570.853	284.19
571.064	290.19
571.276	293.19
571.487	285.19
571.698	287.19
571.91	262.19
572.121	284.19
572.333	274.19
572.544	292.19
572.755	271.19
572.966	273.19
573.178	269.19
573.389	268.19
573.6	271.19
573.811	267.19
574.023	273.19
574.234	257.19
574.445	258.19
574.656	268.19
574.867	236.19
575.078	273.19
575.289	279.19
575.501	258.19
575.712	248.19
575.923	262.19
576.134	263.19
576.345	242.19
576.556	245.19
576.767	243.19
576.978	274.19
577.188	268.19
577.399	265.19
577.61	245.19
577.821	255.19
578.032	274.19
578.243	284.19
578.454	478.19
578.665	352.19
578.875	264.19
579.086	242.19
579.297	234.19
579.508	247.19
579.718	246.19
579.929	260.19
580.14	241.19
580.35	248.19
580.561	229.19
580.772	241.19
580.982	241.19
581.193	238.19
581.403	256.19
581.614	246.19
581.825	229.19
582.035	248.19
582.246	232.19
582.456	243.19
582.667	230.19
582.877	249.19
583.087	252.19
583.298	236.19
583.508	227.19
583.719	231.19
583.929	257.19
584.139	263.19
584.35	240.19
584.56	236.19
584.77	229.19
584.981	230.19
585.191	247.19
585.401	234.19
585.611	228.19
585.821	240.19
586.032	224.19
586.242	236.19
586.452	236.19
586.662	254.19
586.872	236.19
587.082	232.19
587.292	254.19
587.502	229.19
587.713	237.19
587.923	232.19
588.133	237.19
588.343	214.19
588.553	231.19
588.762	234.19
588.972	259.19
589.182	268.19
589.392	281.19
589.602	251.19
589.812	266.19
590.022	252.19
590.232	248.19
590.441	235.19
590.651	226.19
590.861	229.19
591.071	232.19
591.281	229.19
591.49	247.19
591.7	240.19
591.91	238.19
592.119	237.19
592.329	224.19
592.539	249.19
592.748	234.19
592.958	224.19
593.167	232.19
593.377	230.19
593.587	240.19
593.796	242.19
594.006	230.19
594.215	237.19
594.424	240.19
594.634	230.19
594.843	241.19
595.053	231.19
595.262	235.19
595.472	237.19
595.681	228.19
595.89	217.19
596.1	228.19
596.309	233.19
596.518	214.19
596.727	213.19
596.937	228.19
597.146	216.19
597.355	221.19
597.564	218.19
597.774	225.19
597.983	208.19
598.192	216.19
598.401	213.19
598.61	214.19
598.819	242.19
599.028	207.19
599.237	200.19
599.446	217.19
599.655	198.19
599.864	196.19
600.073	211.19
600.282	203.19
600.491	191.19
600.7	196.19
600.909	218.19
601.118	196.19
601.327	218.19
601.536	194.19
601.745	189.19
601.953	227.19
602.162	205.19
602.371	213.19
602.58	211.19
602.789	213.19
602.997	209.19
603.206	206.19
603.415	213.19
603.623	205.19
603.832	214.19
604.041	190.19
604.249	180.19
604.458	195.19
604.666	187.19
604.875	204.19
605.084	191.19
605.292	183.19
605.501	187.19
605.709	199.19
605.918	197.19
606.126	211.19
606.334	209.19
606.543	198.19
606.751	201.19
606.96	191.19
607.168	192.19
607.376	196.19
607.585	193.19
607.793	182.19
608.001	189.19
608.21	189.19
608.418	185.19
608.626	205.19
608.834	202.19
609.043	198.19
609.251	198.19
609.459	196.19
609.667	195.19
609.875	195.19
610.083	185.19
610.291	196.19
610.499	202.19
610.707	190.19
610.916	190.19
611.124	214.19
611.332	185.19
611.54	198.19
611.748	214.19
611.955	206.19
612.163	191.19
612.371	210.19
612.579	196.19
612.787	203.19
612.995	203.19
613.203	195.19
613.411	195.19
613.618	210.19
613.826	183.19
614.034	188.19
614.242	190.19
614.449	180.19
614.657	183.19
614.865	201.19
615.072	192.19
615.28	203.19
615.488	190.19
615.695	190.19
615.903	190.19
616.111	196.19
616.318	190.19
616.526	183.19
616.733	182.19
616.941	184.19
617.148	178.19
617.356	205.19
617.563	189.19
617.771	200.19
617.978	194.19
618.185	183.19
618.393	177.19
618.6	180.19
618.807	184.19
619.015	183.19
619.222	188.19
619.429	186.19
619.637	177.19
619.844	183.19
620.051	195.19
620.258	179.19
620.466	180.19
620.673	191.19
620.88	196.19
621.087	195.19
621.294	196.19
621.501	182.19
621.708	199.19
621.915	179.19
622.122	184.19
622.329	165.19
622.536	182.19
622.743	190.19
622.95	181.19
623.157	182.19
623.364	181.19
623.571	176.19
623.778	181.19
623.985	172.19
624.192	184.19
624.399	169.19
624.606	190.19
624.812	172.19
625.019	153.19
625.226	171.19
625.433	186.19
625.639	169.19
625.846	164.19
626.053	169.19
626.259	180.19
626.466	178.19
626.673	170.19
626.879	179.19
627.086	187.19
627.293	182.19
627.499	165.19
627.706	180.19
627.912	160.19
628.119	173.19
628.325	176.19
628.532	168.19
628.738	159.19
628.945	163.19
629.151	166.19
629.357	169.19
629.564	164.19
629.77	154.19
629.976	163.19
630.183	165.19
630.389	162.19
630.595	163.19
630.802	171.19
631.008	179.19
631.214	158.19
631.42	178.19
631.627	187.19
631.833	159.19
632.039	164.19
632.245	166.19
632.451	163.19
632.657	149.19
632.863	140.19
633.069	166.19
633.275	149.19
633.481	156.19
633.688	173.19
633.893	166.19
634.099	156.19
634.305	152.19
634.511	158.19
634.717	154.19
634.923	165.19
635.129	164.19
635.335	168.19
635.541	161.19
635.747	147.19
635.952	146.19
636.158	148.19
636.364	162.19
636.57	155.19
636.775	166.19
636.981	160.19
637.187	165.19
637.392	150.19
637.598	142.19
637.804	144.19
638.009	158.19
638.215	150.19
638.421	132.19
638.626	155.19
638.832	134.19
639.037	150.19
639.243	143.19
639.448	167.19
639.654	143.19
639.859	159.19
640.065	146.19
640.27	140.19
640.475	158.19
640.681	160.19
640.886	145.19
641.091	139.19
641.297	156.19
641.502	140.19
641.707	145.19
641.913	140.19
642.118	165.19
642.323	140.19
642.528	144.19
642.733	139.19
642.939	155.19
643.144	146.19
643.349	149.19
643.554	140.19
643.759	152.19
643.964	155.19
644.169	153.19
644.374	143.19
644.579	144.19
644.784	156.19
644.989	148.19
645.194	160.19
645.399	152.19
645.604	143.19
645.809	137.19
646.014	124.19
646.219	135.19
646.423	137.19
646.628	152.19
646.833	143.19
647.038	142.19
647.243	151.19
647.447	150.19
647.652	134.19
647.857	141.19
648.062	149.19
648.266	153.19
648.471	153.19
648.676	153.19
648.88	151.19
649.085	145.19
649.289	152.19
649.494	150.19
649.698	171.19
649.903	158.19
650.107	145.19
650.312	149.19
650.516	145.19
650.721	153.19
650.925	140.19
651.13	141.19
651.334	131.19
651.539	121.19
651.743	141.19
651.947	138.19
652.152	139.19
652.356	130.19
652.56	132.19
652.764	121.19
652.969	129.19
653.173	122.19
653.377	128.19
653.581	130.19
653.785	139.19
653.99	121.19
654.194	138.19
654.398	125.19
654.602	126.19
654.806	123.19
655.01	134.19
655.214	136.19
655.418	131.19
655.622	112.19
655.826	126.19
656.03	124.19
656.234	126.19
656.438	123.19
656.642	114.19
656.846	113.19
657.049	128.19
657.253	103.19
657.457	116.19
657.661	115.19
657.865	109.19
658.068	110.19
658.272	104.19
658.476	103.19
658.68	105.19
658.883	98.19
659.087	96.19
659.291	93.19
659.494	86.19
659.698	100.19
659.901	111.19
660.105	101.19
660.309	94.19
660.512	90.19
660.716	90.19
660.919	90.19
661.123	83.19
661.326	97.19
661.53	102.19
661.733	94.19
661.936	76.19
662.14	93.19
662.343	91.19
662.546	99.19
662.75	86.19
662.953	80.19
663.156	90.19
663.36	91.19
663.563	92.19
663.766	91.19
663.969	89.19
664.173	80.19
664.376	73.19
664.579	90.19
664.782	79.19
664.985	80.19
665.188	91.19
665.391	89.19
665.594	76.19
665.797	81.19
666	95.19
666.203	90.19
666.406	75.19
666.609	88.19
666.812	72.19
667.015	96.19
667.218	90.19
667.421	90.19
667.624	89.19
667.827	79.19
668.03	81.19
668.232	77.19
668.435	73.19
668.638	74.19
668.841	67.19
669.043	74.19
669.246	79.19
669.449	73.19
669.651	78.19
669.854	73.19
670.057	84.19
670.259	89.19
670.462	93.19
670.665	89.19
670.867	88.19
671.07	83.19
671.272	86.19
671.475	92.19
671.677	87.19
671.88	85.19
672.082	92.19
672.284	93.19
672.487	91.19
672.689	90.19
672.892	76.19
