Data from 1982.PennyLincolnUp.Lamp.En5.5.200Scan.071819.P1_HRD10591_16-46-15-962.txt Node
Date: Thu Jul 18 16:46:15 EDT 2019
User: cochatt
Spectrometer: HR+D1059
Trigger mode: 1
Integration Time (sec): 1.000000E-1
Scans to average: 1
Electric dark correction enabled: true
Nonlinearity correction enabled: false
Boxcar width: 0
XAxis mode: Wavelengths
Number of Pixels in Spectrum: 2048
>>>>>Begin Spectral Data<<<<<
223.165	-6.81
223.4	-6.81
223.635	-6.81
223.869	-21.81
224.104	-12.81
224.338	-4.81
224.573	-23.81
224.808	-17.81
225.042	5.19
225.277	-6.81
225.511	-8.81
225.746	6.19
225.98	6.19
226.215	-1.81
226.449	11.19
226.683	16.19
226.918	34.19
227.152	26.19
227.387	11.19
227.621	33.19
227.856	48.19
228.09	54.19
228.324	55.19
228.559	62.19
228.793	74.19
229.027	77.19
229.262	103.19
229.496	100.19
229.73	121.19
229.964	132.19
230.199	104.19
230.433	117.19
230.667	105.19
230.901	91.19
231.136	104.19
231.37	96.19
231.604	96.19
231.838	102.19
232.072	104.19
232.306	109.19
232.541	112.19
232.775	92.19
233.009	106.19
233.243	119.19
233.477	110.19
233.711	100.19
233.945	103.19
234.179	104.19
234.413	114.19
234.647	108.19
234.881	120.19
235.115	113.19
235.349	110.19
235.583	112.19
235.817	116.19
236.051	112.19
236.285	115.19
236.519	119.19
236.753	120.19
236.987	135.19
237.221	145.19
237.455	190.19
237.689	145.19
237.922	123.19
238.156	117.19
238.39	94.19
238.624	117.19
238.858	124.19
239.091	101.19
239.325	115.19
239.559	97.19
239.793	105.19
240.027	133.19
240.26	128.19
240.494	129.19
240.728	126.19
240.961	135.19
241.195	123.19
241.429	127.19
241.662	125.19
241.896	111.19
242.13	121.19
242.363	112.19
242.597	117.19
242.83	133.19
243.064	119.19
243.298	128.19
243.531	105.19
243.765	112.19
243.998	117.19
244.232	121.19
244.465	128.19
244.699	131.19
244.932	117.19
245.166	118.19
245.399	137.19
245.633	125.19
245.866	119.19
246.099	110.19
246.333	134.19
246.566	109.19
246.8	115.19
247.033	121.19
247.266	117.19
247.5	133.19
247.733	140.19
247.966	123.19
248.2	139.19
248.433	152.19
248.666	152.19
248.899	153.19
249.133	165.19
249.366	167.19
249.599	148.19
249.832	136.19
250.066	157.19
250.299	149.19
250.532	152.19
250.765	165.19
250.998	181.19
251.231	195.19
251.465	173.19
251.698	156.19
251.931	171.19
252.164	164.19
252.397	158.19
252.63	169.19
252.863	167.19
253.096	182.19
253.329	176.19
253.562	160.19
253.795	167.19
254.028	181.19
254.261	183.19
254.494	197.19
254.727	214.19
254.96	220.19
255.193	191.19
255.426	208.19
255.659	180.19
255.892	182.19
256.124	195.19
256.357	182.19
256.59	181.19
256.823	173.19
257.056	179.19
257.289	179.19
257.521	166.19
257.754	180.19
257.987	166.19
258.22	164.19
258.452	168.19
258.685	177.19
258.918	182.19
259.151	169.19
259.383	184.19
259.616	171.19
259.849	180.19
260.081	182.19
260.314	193.19
260.547	195.19
260.779	219.19
261.012	182.19
261.244	192.19
261.477	184.19
261.71	159.19
261.942	156.19
262.175	181.19
262.407	193.19
262.64	172.19
262.872	191.19
263.105	187.19
263.337	173.19
263.57	166.19
263.802	180.19
264.035	167.19
264.267	182.19
264.499	151.19
264.732	167.19
264.964	163.19
265.197	160.19
265.429	170.19
265.661	186.19
265.894	166.19
266.126	173.19
266.358	172.19
266.591	171.19
266.823	169.19
267.055	185.19
267.287	174.19
267.52	176.19
267.752	184.19
267.984	161.19
268.216	175.19
268.448	198.19
268.681	192.19
268.913	207.19
269.145	197.19
269.377	215.19
269.609	205.19
269.841	213.19
270.073	219.19
270.306	222.19
270.538	250.19
270.77	253.19
271.002	230.19
271.234	229.19
271.466	225.19
271.698	238.19
271.93	249.19
272.162	243.19
272.394	245.19
272.626	247.19
272.858	227.19
273.09	222.19
273.322	193.19
273.553	205.19
273.785	214.19
274.017	217.19
274.249	209.19
274.481	218.19
274.713	229.19
274.945	203.19
275.176	202.19
275.408	221.19
275.64	202.19
275.872	203.19
276.104	203.19
276.335	200.19
276.567	231.19
276.799	219.19
277.031	260.19
277.262	263.19
277.494	247.19
277.726	247.19
277.957	236.19
278.189	223.19
278.421	233.19
278.652	210.19
278.884	204.19
279.115	198.19
279.347	207.19
279.579	213.19
279.81	199.19
280.042	226.19
280.273	191.19
280.505	200.19
280.736	228.19
280.968	212.19
281.199	232.19
281.431	212.19
281.662	214.19
281.894	222.19
282.125	223.19
282.356	228.19
282.588	229.19
282.819	250.19
283.051	215.19
283.282	207.19
283.513	210.19
283.745	219.19
283.976	213.19
284.207	229.19
284.439	220.19
284.67	215.19
284.901	224.19
285.132	217.19
285.364	217.19
285.595	208.19
285.826	202.19
286.057	215.19
286.288	227.19
286.52	209.19
286.751	213.19
286.982	224.19
287.213	213.19
287.444	212.19
287.675	220.19
287.906	226.19
288.138	235.19
288.369	223.19
288.6	232.19
288.831	229.19
289.062	238.19
289.293	219.19
289.524	215.19
289.755	215.19
289.986	245.19
290.217	224.19
290.448	215.19
290.679	221.19
290.91	221.19
291.141	217.19
291.371	211.19
291.602	222.19
291.833	223.19
292.064	225.19
292.295	231.19
292.526	231.19
292.757	227.19
292.987	220.19
293.218	229.19
293.449	225.19
293.68	215.19
293.91	217.19
294.141	222.19
294.372	224.19
294.603	233.19
294.833	219.19
295.064	224.19
295.295	224.19
295.525	243.19
295.756	228.19
295.987	235.19
296.217	234.19
296.448	253.19
296.679	232.19
296.909	224.19
297.14	232.19
297.37	240.19
297.601	216.19
297.831	230.19
298.062	232.19
298.292	231.19
298.523	244.19
298.753	231.19
298.984	232.19
299.214	243.19
299.445	240.19
299.675	218.19
299.905	240.19
300.136	251.19
300.366	258.19
300.597	245.19
300.827	244.19
301.057	237.19
301.288	255.19
301.518	251.19
301.748	237.19
301.979	239.19
302.209	247.19
302.439	249.19
302.669	244.19
302.9	238.19
303.13	253.19
303.36	263.19
303.59	261.19
303.82	263.19
304.051	250.19
304.281	260.19
304.511	245.19
304.741	269.19
304.971	272.19
305.201	238.19
305.431	238.19
305.661	254.19
305.891	257.19
306.121	226.19
306.352	259.19
306.582	252.19
306.812	253.19
307.042	260.19
307.272	247.19
307.502	261.19
307.731	245.19
307.961	243.19
308.191	236.19
308.421	247.19
308.651	254.19
308.881	253.19
309.111	281.19
309.341	257.19
309.571	280.19
309.8	278.19
310.03	284.19
310.26	272.19
310.49	286.19
310.72	300.19
310.949	304.19
311.179	301.19
311.409	298.19
311.639	295.19
311.868	301.19
312.098	283.19
312.328	302.19
312.557	325.19
312.787	285.19
313.017	292.19
313.246	301.19
313.476	264.19
313.706	303.19
313.935	309.19
314.165	309.19
314.394	301.19
314.624	325.19
314.853	290.19
315.083	300.19
315.312	264.19
315.542	283.19
315.771	299.19
316.001	276.19
316.23	302.19
316.46	287.19
316.689	274.19
316.919	271.19
317.148	287.19
317.377	309.19
317.607	312.19
317.836	313.19
318.065	300.19
318.295	266.19
318.524	280.19
318.753	286.19
318.983	308.19
319.212	303.19
319.441	313.19
319.67	293.19
319.9	290.19
320.129	292.19
320.358	295.19
320.587	295.19
320.816	295.19
321.046	315.19
321.275	324.19
321.504	315.19
321.733	322.19
321.962	312.19
322.191	331.19
322.42	331.19
322.649	378.19
322.878	335.19
323.108	371.19
323.337	415.19
323.566	416.19
323.795	454.19
324.024	505.19
324.253	597.19
324.482	898.19
324.71	1335.19
324.939	1757.19
325.168	1407.19
325.397	768.19
325.626	523.19
325.855	439.19
326.084	410.19
326.313	405.19
326.542	401.19
326.77	478.19
326.999	562.19
327.228	801.19
327.457	1148.19
327.686	1267.19
327.914	837.19
328.143	571.19
328.372	499.19
328.6	480.19
328.829	470.19
329.058	464.19
329.287	469.19
329.515	437.19
329.744	416.19
329.972	407.19
330.201	416.19
330.43	460.19
330.658	461.19
330.887	481.19
331.115	473.19
331.344	399.19
331.572	378.19
331.801	369.19
332.03	374.19
332.258	359.19
332.486	352.19
332.715	344.19
332.943	350.19
333.172	337.19
333.4	365.19
333.629	347.19
333.857	361.19
334.085	381.19
334.314	376.19
334.542	393.19
334.771	389.19
334.999	369.19
335.227	350.19
335.455	342.19
335.684	349.19
335.912	334.19
336.14	342.19
336.369	319.19
336.597	341.19
336.825	334.19
337.053	348.19
337.281	324.19
337.51	329.19
337.738	331.19
337.966	323.19
338.194	334.19
338.422	320.19
338.65	318.19
338.878	326.19
339.106	329.19
339.334	330.19
339.562	309.19
339.79	312.19
340.018	309.19
340.246	332.19
340.474	313.19
340.702	312.19
340.93	313.19
341.158	301.19
341.386	305.19
341.614	316.19
341.842	320.19
342.07	344.19
342.298	311.19
342.526	317.19
342.754	290.19
342.981	295.19
343.209	314.19
343.437	305.19
343.665	305.19
343.893	345.19
344.12	309.19
344.348	330.19
344.576	337.19
344.804	318.19
345.031	324.19
345.259	340.19
345.487	347.19
345.714	328.19
345.942	307.19
346.17	317.19
346.397	324.19
346.625	307.19
346.853	291.19
347.08	297.19
347.308	320.19
347.535	332.19
347.763	303.19
347.99	332.19
348.218	332.19
348.445	322.19
348.673	335.19
348.9	299.19
349.128	293.19
349.355	295.19
349.583	308.19
349.81	289.19
350.037	303.19
350.265	293.19
350.492	303.19
350.72	287.19
350.947	295.19
351.174	325.19
351.402	327.19
351.629	298.19
351.856	309.19
352.083	322.19
352.311	326.19
352.538	339.19
352.765	325.19
352.992	326.19
353.22	310.19
353.447	305.19
353.674	297.19
353.901	270.19
354.128	283.19
354.355	291.19
354.583	302.19
354.81	295.19
355.037	287.19
355.264	268.19
355.491	299.19
355.718	271.19
355.945	283.19
356.172	285.19
356.399	282.19
356.626	290.19
356.853	302.19
357.08	274.19
357.307	267.19
357.534	272.19
357.761	298.19
357.988	295.19
358.215	279.19
358.441	296.19
358.668	286.19
358.895	275.19
359.122	297.19
359.349	310.19
359.576	311.19
359.802	329.19
360.029	353.19
360.256	348.19
360.483	337.19
360.709	310.19
360.936	309.19
361.163	318.19
361.39	287.19
361.616	283.19
361.843	296.19
362.07	313.19
362.296	309.19
362.523	304.19
362.749	302.19
362.976	315.19
363.203	294.19
363.429	289.19
363.656	287.19
363.882	286.19
364.109	278.19
364.335	283.19
364.562	284.19
364.788	277.19
365.015	287.19
365.241	265.19
365.468	310.19
365.694	304.19
365.92	299.19
366.147	275.19
366.373	296.19
366.599	285.19
366.826	283.19
367.052	300.19
367.278	291.19
367.505	282.19
367.731	289.19
367.957	281.19
368.184	295.19
368.41	258.19
368.636	288.19
368.862	285.19
369.089	282.19
369.315	288.19
369.541	278.19
369.767	292.19
369.993	281.19
370.219	290.19
370.445	288.19
370.672	264.19
370.898	271.19
371.124	266.19
371.35	280.19
371.576	278.19
371.802	278.19
372.028	283.19
372.254	271.19
372.48	283.19
372.706	279.19
372.932	285.19
373.158	274.19
373.384	285.19
373.61	273.19
373.835	293.19
374.061	267.19
374.287	267.19
374.513	286.19
374.739	278.19
374.965	286.19
375.191	286.19
375.416	279.19
375.642	266.19
375.868	286.19
376.094	284.19
376.319	277.19
376.545	273.19
376.771	265.19
376.997	259.19
377.222	289.19
377.448	260.19
377.674	269.19
377.899	265.19
378.125	253.19
378.35	260.19
378.576	280.19
378.802	253.19
379.027	257.19
379.253	286.19
379.478	268.19
379.704	254.19
379.929	264.19
380.155	276.19
380.38	268.19
380.606	280.19
380.831	277.19
381.057	280.19
381.282	283.19
381.507	265.19
381.733	259.19
381.958	265.19
382.184	265.19
382.409	275.19
382.634	288.19
382.86	279.19
383.085	294.19
383.31	283.19
383.535	277.19
383.761	270.19
383.986	281.19
384.211	289.19
384.436	284.19
384.662	293.19
384.887	304.19
385.112	284.19
385.337	285.19
385.562	293.19
385.787	295.19
386.013	293.19
386.238	309.19
386.463	286.19
386.688	277.19
386.913	286.19
387.138	288.19
387.363	282.19
387.588	280.19
387.813	284.19
388.038	288.19
388.263	269.19
388.488	260.19
388.713	281.19
388.938	272.19
389.163	282.19
389.387	277.19
389.612	286.19
389.837	267.19
390.062	294.19
390.287	294.19
390.512	279.19
390.736	286.19
390.961	288.19
391.186	267.19
391.411	278.19
391.636	279.19
391.86	292.19
392.085	279.19
392.31	288.19
392.534	292.19
392.759	300.19
392.984	277.19
393.208	267.19
393.433	284.19
393.658	292.19
393.882	299.19
394.107	292.19
394.331	278.19
394.556	283.19
394.78	284.19
395.005	284.19
395.229	278.19
395.454	306.19
395.678	299.19
395.903	301.19
396.127	301.19
396.352	304.19
396.576	298.19
396.801	292.19
397.025	286.19
397.249	297.19
397.474	274.19
397.698	301.19
397.922	319.19
398.147	296.19
398.371	303.19
398.595	308.19
398.82	319.19
399.044	324.19
399.268	325.19
399.492	318.19
399.717	343.19
399.941	351.19
400.165	381.19
400.389	371.19
400.613	349.19
400.837	321.19
401.062	323.19
401.286	322.19
401.51	336.19
401.734	313.19
401.958	323.19
402.182	317.19
402.406	314.19
402.63	300.19
402.854	315.19
403.078	319.19
403.302	324.19
403.526	337.19
403.75	332.19
403.974	323.19
404.198	343.19
404.422	322.19
404.645	324.19
404.869	336.19
405.093	358.19
405.317	378.19
405.541	391.19
405.765	387.19
405.988	362.19
406.212	351.19
406.436	376.19
406.66	355.19
406.883	341.19
407.107	368.19
407.331	376.19
407.555	419.19
407.778	419.19
408.002	400.19
408.226	357.19
408.449	357.19
408.673	346.19
408.896	382.19
409.12	395.19
409.344	360.19
409.567	343.19
409.791	343.19
410.014	318.19
410.238	317.19
410.461	321.19
410.685	324.19
410.908	342.19
411.132	375.19
411.355	371.19
411.578	353.19
411.802	316.19
412.025	325.19
412.249	333.19
412.472	351.19
412.695	371.19
412.919	381.19
413.142	327.19
413.365	317.19
413.589	304.19
413.812	313.19
414.035	287.19
414.258	295.19
414.482	299.19
414.705	293.19
414.928	312.19
415.151	299.19
415.374	307.19
415.597	303.19
415.821	304.19
416.044	318.19
416.267	328.19
416.49	316.19
416.713	299.19
416.936	308.19
417.159	296.19
417.382	305.19
417.605	325.19
417.828	340.19
418.051	336.19
418.274	319.19
418.497	302.19
418.72	323.19
418.943	322.19
419.166	303.19
419.389	323.19
419.611	321.19
419.834	324.19
420.057	313.19
420.28	318.19
420.503	332.19
420.726	337.19
420.948	345.19
421.171	345.19
421.394	350.19
421.617	343.19
421.839	318.19
422.062	327.19
422.285	338.19
422.507	369.19
422.73	404.19
422.953	404.19
423.175	356.19
423.398	333.19
423.621	328.19
423.843	359.19
424.066	349.19
424.288	337.19
424.511	373.19
424.733	401.19
424.956	439.19
425.178	428.19
425.401	427.19
425.623	448.19
425.846	379.19
426.068	361.19
426.291	353.19
426.513	351.19
426.735	365.19
426.958	388.19
427.18	451.19
427.402	529.19
427.625	565.19
427.847	508.19
428.069	429.19
428.292	397.19
428.514	365.19
428.736	333.19
428.958	339.19
429.181	347.19
429.403	327.19
429.625	345.19
429.847	372.19
430.069	385.19
430.292	380.19
430.514	345.19
430.736	329.19
430.958	305.19
431.18	323.19
431.402	300.19
431.624	297.19
431.846	305.19
432.068	312.19
432.29	311.19
432.512	302.19
432.734	305.19
432.956	321.19
433.178	329.19
433.4	318.19
433.622	323.19
433.844	308.19
434.066	298.19
434.287	313.19
434.509	320.19
434.731	318.19
434.953	328.19
435.175	333.19
435.397	354.19
435.618	351.19
435.84	390.19
436.062	449.19
436.284	459.19
436.505	399.19
436.727	375.19
436.949	350.19
437.17	337.19
437.392	345.19
437.614	342.19
437.835	369.19
438.057	419.19
438.278	488.19
438.5	484.19
438.721	508.19
438.943	490.19
439.165	398.19
439.386	354.19
439.608	359.19
439.829	359.19
440.05	376.19
440.272	413.19
440.493	394.19
440.715	355.19
440.936	335.19
441.158	339.19
441.379	322.19
441.6	328.19
441.822	354.19
442.043	373.19
442.264	441.19
442.486	443.19
442.707	377.19
442.928	367.19
443.149	356.19
443.371	361.19
443.592	401.19
443.813	464.19
444.034	483.19
444.255	396.19
444.476	359.19
444.698	359.19
444.919	326.19
445.14	407.19
445.361	383.19
445.582	381.19
445.803	432.19
446.024	495.19
446.245	500.19
446.466	463.19
446.687	409.19
446.908	379.19
447.129	337.19
447.35	324.19
447.571	336.19
447.792	312.19
448.013	311.19
448.234	325.19
448.455	374.19
448.675	449.19
448.896	522.19
449.117	444.19
449.338	429.19
449.559	525.19
449.779	541.19
450	423.19
450.221	353.19
450.442	343.19
450.662	308.19
450.883	341.19
451.104	344.19
451.324	340.19
451.545	315.19
451.766	303.19
451.986	304.19
452.207	311.19
452.428	297.19
452.648	307.19
452.869	317.19
453.089	304.19
453.31	320.19
453.53	291.19
453.751	301.19
453.971	319.19
454.192	319.19
454.412	311.19
454.633	310.19
454.853	284.19
455.073	297.19
455.294	320.19
455.514	350.19
455.734	330.19
455.955	284.19
456.175	291.19
456.395	281.19
456.616	279.19
456.836	273.19
457.056	287.19
457.276	294.19
457.497	273.19
457.717	284.19
457.937	281.19
458.157	303.19
458.377	287.19
458.598	314.19
458.818	334.19
459.038	424.19
459.258	406.19
459.478	334.19
459.698	309.19
459.918	303.19
460.138	303.19
460.358	291.19
460.578	303.19
460.798	299.19
461.018	302.19
461.238	305.19
461.458	327.19
461.678	297.19
461.898	296.19
462.118	297.19
462.338	297.19
462.558	322.19
462.777	314.19
462.997	317.19
463.217	323.19
463.437	311.19
463.657	337.19
463.876	321.19
464.096	314.19
464.316	310.19
464.536	323.19
464.755	336.19
464.975	338.19
465.195	375.19
465.414	410.19
465.634	372.19
465.854	329.19
466.073	325.19
466.293	315.19
466.512	305.19
466.732	296.19
466.951	308.19
467.171	317.19
467.391	307.19
467.61	316.19
467.829	318.19
468.049	311.19
468.268	299.19
468.488	311.19
468.707	291.19
468.927	297.19
469.146	299.19
469.365	294.19
469.585	292.19
469.804	314.19
470.023	309.19
470.243	300.19
470.462	316.19
470.681	298.19
470.901	318.19
471.12	307.19
471.339	303.19
471.558	301.19
471.777	309.19
471.997	293.19
472.216	327.19
472.435	333.19
472.654	328.19
472.873	308.19
473.092	305.19
473.311	285.19
473.53	315.19
473.749	304.19
473.968	330.19
474.187	396.19
474.406	405.19
474.625	337.19
474.844	310.19
475.063	327.19
475.282	305.19
475.501	297.19
475.72	315.19
475.939	315.19
476.158	326.19
476.377	312.19
476.596	310.19
476.814	308.19
477.033	319.19
477.252	329.19
477.471	319.19
477.69	331.19
477.908	315.19
478.127	333.19
478.346	305.19
478.564	346.19
478.783	340.19
479.002	336.19
479.22	354.19
479.439	353.19
479.658	353.19
479.876	355.19
480.095	364.19
480.313	388.19
480.532	377.19
480.751	350.19
480.969	377.19
481.188	430.19
481.406	447.19
481.624	359.19
481.843	377.19
482.061	361.19
482.28	344.19
482.498	333.19
482.717	347.19
482.935	369.19
483.153	344.19
483.372	350.19
483.59	344.19
483.808	362.19
484.027	349.19
484.245	344.19
484.463	347.19
484.681	374.19
484.9	353.19
485.118	364.19
485.336	360.19
485.554	357.19
485.772	347.19
485.99	351.19
486.209	352.19
486.427	354.19
486.645	381.19
486.863	375.19
487.081	365.19
487.299	348.19
487.517	374.19
487.735	356.19
487.953	359.19
488.171	379.19
488.389	368.19
488.607	373.19
488.825	361.19
489.043	393.19
489.261	391.19
489.479	381.19
489.696	387.19
489.914	372.19
490.132	369.19
490.35	374.19
490.568	386.19
490.786	413.19
491.003	412.19
491.221	406.19
491.439	419.19
491.657	416.19
491.874	409.19
492.092	422.19
492.31	424.19
492.527	435.19
492.745	433.19
492.963	433.19
493.18	433.19
493.398	421.19
493.615	442.19
493.833	415.19
494.05	423.19
494.268	445.19
494.485	427.19
494.703	453.19
494.92	430.19
495.138	430.19
495.355	442.19
495.573	440.19
495.79	441.19
496.008	441.19
496.225	448.19
496.442	426.19
496.66	442.19
496.877	462.19
497.094	461.19
497.312	442.19
497.529	440.19
497.746	458.19
497.963	442.19
498.181	478.19
498.398	461.19
498.615	464.19
498.832	491.19
499.049	467.19
499.267	483.19
499.484	471.19
499.701	502.19
499.918	511.19
500.135	533.19
500.352	552.19
500.569	548.19
500.786	566.19
501.003	533.19
501.22	534.19
501.437	535.19
501.654	536.19
501.871	541.19
502.088	516.19
502.305	490.19
502.522	481.19
502.739	458.19
502.956	438.19
503.172	459.19
503.389	456.19
503.606	450.19
503.823	442.19
504.04	460.19
504.256	411.19
504.473	421.19
504.69	439.19
504.907	434.19
505.123	431.19
505.34	428.19
505.557	421.19
505.773	430.19
505.99	417.19
506.207	411.19
506.423	406.19
506.64	418.19
506.856	414.19
507.073	421.19
507.289	409.19
507.506	417.19
507.722	423.19
507.939	441.19
508.155	420.19
508.372	420.19
508.588	409.19
508.805	390.19
509.021	396.19
509.238	432.19
509.454	401.19
509.67	408.19
509.887	413.19
510.103	421.19
510.319	431.19
510.536	507.19
510.752	807.19
510.968	628.19
511.184	431.19
511.401	411.19
511.617	419.19
511.833	386.19
512.049	389.19
512.265	379.19
512.481	384.19
512.698	394.19
512.914	378.19
513.13	383.19
513.346	388.19
513.562	367.19
513.778	391.19
513.994	413.19
514.21	426.19
514.426	430.19
514.642	445.19
514.858	454.19
515.074	480.19
515.29	614.19
515.506	881.19
515.721	701.19
515.937	472.19
516.153	435.19
516.369	450.19
516.585	413.19
516.801	393.19
517.016	412.19
517.232	406.19
517.448	384.19
517.664	406.19
517.879	394.19
518.095	388.19
518.311	393.19
518.527	386.19
518.742	382.19
518.958	392.19
519.173	383.19
519.389	393.19
519.605	405.19
519.82	398.19
520.036	393.19
520.251	448.19
520.467	451.19
520.682	415.19
520.898	452.19
521.113	437.19
521.329	516.19
521.544	570.19
521.76	730.19
521.975	1189.19
522.19	1106.19
522.406	608.19
522.621	468.19
522.836	421.19
523.052	404.19
523.267	371.19
523.482	378.19
523.698	360.19
523.913	366.19
524.128	361.19
524.343	353.19
524.559	354.19
524.774	360.19
524.989	360.19
525.204	356.19
525.419	341.19
525.634	326.19
525.849	344.19
526.064	352.19
526.28	332.19
526.495	331.19
526.71	328.19
526.925	321.19
527.14	323.19
527.355	321.19
527.57	319.19
527.785	332.19
527.999	292.19
528.214	323.19
528.429	315.19
528.644	319.19
528.859	334.19
529.074	320.19
529.289	341.19
529.503	407.19
529.718	381.19
529.933	340.19
530.148	344.19
530.363	327.19
530.577	307.19
530.792	321.19
531.007	320.19
531.221	313.19
531.436	315.19
531.651	305.19
531.865	305.19
532.08	308.19
532.295	304.19
532.509	303.19
532.724	294.19
532.938	294.19
533.153	288.19
533.367	300.19
533.582	309.19
533.796	310.19
534.011	298.19
534.225	289.19
534.44	297.19
534.654	314.19
534.868	299.19
535.083	294.19
535.297	300.19
535.511	313.19
535.726	314.19
535.94	320.19
536.154	312.19
536.369	297.19
536.583	288.19
536.797	289.19
537.011	278.19
537.225	291.19
537.44	296.19
537.654	301.19
537.868	295.19
538.082	299.19
538.296	315.19
538.51	294.19
538.724	294.19
538.938	281.19
539.153	307.19
539.367	312.19
539.581	303.19
539.795	300.19
540.009	298.19
540.222	295.19
540.436	284.19
540.65	293.19
540.864	308.19
541.078	304.19
541.292	313.19
541.506	295.19
541.72	311.19
541.934	284.19
542.147	286.19
542.361	300.19
542.575	297.19
542.789	274.19
543.002	279.19
543.216	290.19
543.43	307.19
543.644	297.19
543.857	302.19
544.071	296.19
544.285	316.19
544.498	316.19
544.712	290.19
544.925	296.19
545.139	287.19
545.352	288.19
545.566	285.19
545.779	276.19
545.993	275.19
546.206	275.19
546.42	278.19
546.633	283.19
546.847	294.19
547.06	293.19
547.274	272.19
547.487	283.19
547.7	268.19
547.914	257.19
548.127	277.19
548.34	272.19
548.554	276.19
548.767	293.19
548.98	267.19
549.193	282.19
549.407	254.19
549.62	274.19
549.833	279.19
550.046	280.19
550.259	270.19
550.473	271.19
550.686	281.19
550.899	275.19
551.112	280.19
551.325	284.19
551.538	251.19
551.751	273.19
551.964	277.19
552.177	281.19
552.39	280.19
552.603	277.19
552.816	268.19
553.029	265.19
553.242	288.19
553.455	290.19
553.667	286.19
553.88	279.19
554.093	281.19
554.306	275.19
554.519	272.19
554.732	269.19
554.944	256.19
555.157	260.19
555.37	292.19
555.583	259.19
555.795	267.19
556.008	265.19
556.221	252.19
556.433	256.19
556.646	246.19
556.859	244.19
557.071	273.19
557.284	270.19
557.496	243.19
557.709	236.19
557.921	252.19
558.134	248.19
558.346	236.19
558.559	262.19
558.771	248.19
558.984	246.19
559.196	241.19
559.409	252.19
559.621	243.19
559.833	257.19
560.046	239.19
560.258	274.19
560.47	255.19
560.683	246.19
560.895	244.19
561.107	249.19
561.32	247.19
561.532	238.19
561.744	235.19
561.956	239.19
562.168	253.19
562.381	222.19
562.593	238.19
562.805	231.19
563.017	238.19
563.229	245.19
563.441	250.19
563.653	247.19
563.865	243.19
564.077	249.19
564.289	259.19
564.501	221.19
564.713	253.19
564.925	266.19
565.137	272.19
565.349	263.19
565.561	277.19
565.773	267.19
565.985	245.19
566.197	252.19
566.408	260.19
566.62	255.19
566.832	286.19
567.044	280.19
567.255	276.19
567.467	281.19
567.679	264.19
567.891	301.19
568.102	285.19
568.314	288.19
568.526	279.19
568.737	265.19
568.949	255.19
569.161	240.19
569.372	263.19
569.584	252.19
569.795	245.19
570.007	256.19
570.218	279.19
570.43	261.19
570.641	259.19
570.853	234.19
571.064	240.19
571.276	225.19
571.487	233.19
571.698	220.19
571.91	238.19
572.121	235.19
572.333	235.19
572.544	228.19
572.755	233.19
572.966	223.19
573.178	228.19
573.389	225.19
573.6	217.19
573.811	225.19
574.023	206.19
574.234	208.19
574.445	217.19
574.656	208.19
574.867	216.19
575.078	206.19
575.289	219.19
575.501	204.19
575.712	213.19
575.923	210.19
576.134	234.19
576.345	221.19
576.556	197.19
576.767	209.19
576.978	217.19
577.188	216.19
577.399	220.19
577.61	215.19
577.821	226.19
578.032	207.19
578.243	248.19
578.454	418.19
578.665	308.19
578.875	220.19
579.086	202.19
579.297	191.19
579.508	203.19
579.718	215.19
579.929	212.19
580.14	207.19
580.35	219.19
580.561	200.19
580.772	189.19
580.982	202.19
581.193	200.19
581.403	203.19
581.614	217.19
581.825	202.19
582.035	214.19
582.246	208.19
582.456	198.19
582.667	203.19
582.877	206.19
583.087	207.19
583.298	195.19
583.508	216.19
583.719	209.19
583.929	217.19
584.139	187.19
584.35	188.19
584.56	196.19
584.77	205.19
584.981	216.19
585.191	203.19
585.401	203.19
585.611	206.19
585.821	205.19
586.032	198.19
586.242	199.19
586.452	198.19
586.662	196.19
586.872	190.19
587.082	201.19
587.292	214.19
587.502	205.19
587.713	213.19
587.923	204.19
588.133	191.19
588.343	195.19
588.553	201.19
588.762	212.19
588.972	197.19
589.182	222.19
589.392	213.19
589.602	195.19
589.812	215.19
590.022	191.19
590.232	199.19
590.441	207.19
590.651	199.19
590.861	196.19
591.071	203.19
591.281	188.19
591.49	204.19
591.7	200.19
591.91	211.19
592.119	207.19
592.329	198.19
592.539	184.19
592.748	184.19
592.958	191.19
593.167	189.19
593.377	198.19
593.587	200.19
593.796	205.19
594.006	216.19
594.215	200.19
594.424	169.19
594.634	216.19
594.843	203.19
595.053	211.19
595.262	197.19
595.472	195.19
595.681	191.19
595.89	194.19
596.1	196.19
596.309	193.19
596.518	172.19
596.727	196.19
596.937	180.19
597.146	200.19
597.355	188.19
597.564	189.19
597.774	187.19
597.983	172.19
598.192	187.19
598.401	181.19
598.61	180.19
598.819	184.19
599.028	183.19
599.237	184.19
599.446	188.19
599.655	191.19
599.864	169.19
600.073	182.19
600.282	187.19
600.491	184.19
600.7	185.19
600.909	177.19
601.118	172.19
601.327	166.19
601.536	170.19
601.745	174.19
601.953	191.19
602.162	166.19
602.371	174.19
602.58	180.19
602.789	186.19
602.997	165.19
603.206	159.19
603.415	179.19
603.623	169.19
603.832	164.19
604.041	188.19
604.249	175.19
604.458	164.19
604.666	178.19
604.875	174.19
605.084	169.19
605.292	181.19
605.501	158.19
605.709	188.19
605.918	172.19
606.126	197.19
606.334	165.19
606.543	164.19
606.751	168.19
606.96	170.19
607.168	177.19
607.376	170.19
607.585	177.19
607.793	168.19
608.001	176.19
608.21	173.19
608.418	155.19
608.626	176.19
608.834	156.19
609.043	166.19
609.251	167.19
609.459	163.19
609.667	187.19
609.875	190.19
610.083	181.19
610.291	175.19
610.499	171.19
610.707	156.19
610.916	181.19
611.124	175.19
611.332	185.19
611.54	176.19
611.748	181.19
611.955	176.19
612.163	160.19
612.371	168.19
612.579	181.19
612.787	172.19
612.995	173.19
613.203	193.19
613.411	166.19
613.618	169.19
613.826	160.19
614.034	160.19
614.242	164.19
614.449	159.19
614.657	171.19
614.865	175.19
615.072	163.19
615.28	170.19
615.488	161.19
615.695	181.19
615.903	166.19
616.111	179.19
616.318	187.19
616.526	161.19
616.733	179.19
616.941	173.19
617.148	167.19
617.356	179.19
617.563	182.19
617.771	165.19
617.978	171.19
618.185	165.19
618.393	168.19
618.6	152.19
618.807	152.19
619.015	163.19
619.222	175.19
619.429	165.19
619.637	172.19
619.844	173.19
620.051	175.19
620.258	166.19
620.466	169.19
620.673	181.19
620.88	152.19
621.087	159.19
621.294	165.19
621.501	159.19
621.708	155.19
621.915	161.19
622.122	163.19
622.329	151.19
622.536	145.19
622.743	165.19
622.95	168.19
623.157	162.19
623.364	155.19
623.571	179.19
623.778	149.19
623.985	154.19
624.192	171.19
624.399	158.19
624.606	170.19
624.812	162.19
625.019	156.19
625.226	160.19
625.433	155.19
625.639	147.19
625.846	152.19
626.053	149.19
626.259	157.19
626.466	147.19
626.673	149.19
626.879	152.19
627.086	156.19
627.293	153.19
627.499	154.19
627.706	155.19
627.912	152.19
628.119	151.19
628.325	155.19
628.532	155.19
628.738	155.19
628.945	140.19
629.151	155.19
629.357	157.19
629.564	145.19
629.77	150.19
629.976	144.19
630.183	141.19
630.389	160.19
630.595	144.19
630.802	139.19
631.008	151.19
631.214	160.19
631.42	162.19
631.627	157.19
631.833	144.19
632.039	151.19
632.245	143.19
632.451	164.19
632.657	139.19
632.863	153.19
633.069	148.19
633.275	153.19
633.481	141.19
633.688	149.19
633.893	146.19
634.099	157.19
634.305	141.19
634.511	143.19
634.717	159.19
634.923	151.19
635.129	136.19
635.335	131.19
635.541	132.19
635.747	142.19
635.952	146.19
636.158	135.19
636.364	150.19
636.57	133.19
636.775	144.19
636.981	140.19
637.187	142.19
637.392	140.19
637.598	135.19
637.804	152.19
638.009	144.19
638.215	137.19
638.421	131.19
638.626	123.19
638.832	136.19
639.037	125.19
639.243	124.19
639.448	122.19
639.654	148.19
639.859	138.19
640.065	131.19
640.27	150.19
640.475	149.19
640.681	150.19
640.886	146.19
641.091	138.19
641.297	135.19
641.502	127.19
641.707	130.19
641.913	137.19
642.118	149.19
642.323	129.19
642.528	125.19
642.733	137.19
642.939	148.19
643.144	116.19
643.349	135.19
643.554	140.19
643.759	125.19
643.964	129.19
644.169	148.19
644.374	133.19
644.579	131.19
644.784	123.19
644.989	133.19
645.194	143.19
645.399	126.19
645.604	129.19
645.809	140.19
646.014	138.19
646.219	140.19
646.423	138.19
646.628	142.19
646.833	130.19
647.038	143.19
647.243	139.19
647.447	135.19
647.652	146.19
647.857	133.19
648.062	139.19
648.266	125.19
648.471	131.19
648.676	127.19
648.88	138.19
649.085	136.19
649.289	124.19
649.494	125.19
649.698	145.19
649.903	151.19
650.107	153.19
650.312	132.19
650.516	142.19
650.721	126.19
650.925	127.19
651.13	120.19
651.334	122.19
651.539	131.19
651.743	125.19
651.947	122.19
652.152	118.19
652.356	122.19
652.56	124.19
652.764	132.19
652.969	107.19
653.173	120.19
653.377	119.19
653.581	107.19
653.785	122.19
653.99	129.19
654.194	117.19
654.398	123.19
654.602	96.19
654.806	121.19
655.01	124.19
655.214	131.19
655.418	115.19
655.622	122.19
655.826	115.19
656.03	122.19
656.234	135.19
656.438	111.19
656.642	125.19
656.846	121.19
657.049	117.19
657.253	118.19
657.457	116.19
657.661	107.19
657.865	101.19
658.068	111.19
658.272	103.19
658.476	108.19
658.68	101.19
658.883	100.19
659.087	102.19
659.291	109.19
659.494	99.19
659.698	124.19
659.901	102.19
660.105	94.19
660.309	98.19
660.512	97.19
660.716	107.19
660.919	94.19
661.123	93.19
661.326	89.19
661.53	91.19
661.733	90.19
661.936	104.19
662.14	92.19
662.343	94.19
662.546	86.19
662.75	97.19
662.953	78.19
663.156	83.19
663.36	91.19
663.563	79.19
663.766	89.19
663.969	87.19
664.173	79.19
664.376	93.19
664.579	98.19
664.782	79.19
664.985	92.19
665.188	77.19
665.391	73.19
665.594	89.19
665.797	89.19
666	103.19
666.203	90.19
666.406	91.19
666.609	95.19
666.812	80.19
667.015	89.19
667.218	85.19
667.421	92.19
667.624	81.19
667.827	89.19
668.03	86.19
668.232	94.19
668.435	69.19
668.638	93.19
668.841	100.19
669.043	83.19
669.246	96.19
669.449	71.19
669.651	90.19
669.854	88.19
670.057	88.19
670.259	96.19
670.462	89.19
670.665	88.19
670.867	90.19
671.07	82.19
671.272	99.19
671.475	99.19
671.677	82.19
671.88	78.19
672.082	104.19
672.284	87.19
672.487	78.19
672.689	73.19
672.892	81.19
