Data from 1982.PennyLincolnUp.Lamp.En5.5.200Scan.071819.P1_HRD10591_16-46-46-962.txt Node
Date: Thu Jul 18 16:46:46 EDT 2019
User: cochatt
Spectrometer: HR+D1059
Trigger mode: 1
Integration Time (sec): 1.000000E-1
Scans to average: 1
Electric dark correction enabled: true
Nonlinearity correction enabled: false
Boxcar width: 0
XAxis mode: Wavelengths
Number of Pixels in Spectrum: 2048
>>>>>Begin Spectral Data<<<<<
223.165	-9
223.4	-9
223.635	-9
223.869	-3
224.104	-25
224.338	-8
224.573	-21
224.808	-25
225.042	-12
225.277	-5
225.511	-3
225.746	17
225.98	-2
226.215	22
226.449	13
226.683	22
226.918	14
227.152	25
227.387	23
227.621	46
227.856	40
228.09	54
228.324	39
228.559	48
228.793	72
229.027	90
229.262	100
229.496	111
229.73	120
229.964	117
230.199	115
230.433	105
230.667	107
230.901	107
231.136	100
231.37	101
231.604	112
231.838	110
232.072	106
232.306	107
232.541	97
232.775	103
233.009	100
233.243	98
233.477	107
233.711	112
233.945	106
234.179	113
234.413	104
234.647	109
234.881	100
235.115	105
235.349	112
235.583	109
235.817	88
236.051	113
236.285	109
236.519	97
236.753	112
236.987	130
237.221	156
237.455	187
237.689	148
237.922	117
238.156	106
238.39	105
238.624	100
238.858	112
239.091	116
239.325	102
239.559	105
239.793	104
240.027	102
240.26	116
240.494	101
240.728	131
240.961	129
241.195	137
241.429	122
241.662	103
241.896	97
242.13	118
242.363	118
242.597	118
242.83	118
243.064	116
243.298	132
243.531	119
243.765	116
243.998	120
244.232	111
244.465	130
244.699	128
244.932	123
245.166	122
245.399	116
245.633	117
245.866	112
246.099	116
246.333	131
246.566	126
246.8	124
247.033	131
247.266	120
247.5	134
247.733	140
247.966	142
248.2	145
248.433	139
248.666	134
248.899	149
249.133	166
249.366	165
249.599	162
249.832	165
250.066	134
250.299	168
250.532	158
250.765	152
250.998	172
251.231	186
251.465	171
251.698	184
251.931	168
252.164	158
252.397	166
252.63	164
252.863	163
253.096	176
253.329	177
253.562	165
253.795	185
254.028	175
254.261	174
254.494	197
254.727	210
254.96	222
255.193	200
255.426	194
255.659	180
255.892	198
256.124	192
256.357	171
256.59	162
256.823	177
257.056	157
257.289	172
257.521	157
257.754	169
257.987	169
258.22	174
258.452	155
258.685	165
258.918	167
259.151	147
259.383	169
259.616	158
259.849	186
260.081	183
260.314	200
260.547	189
260.779	189
261.012	194
261.244	170
261.477	166
261.71	187
261.942	170
262.175	190
262.407	179
262.64	170
262.872	174
263.105	166
263.337	161
263.57	169
263.802	168
264.035	178
264.267	163
264.499	184
264.732	187
264.964	159
265.197	158
265.429	176
265.661	178
265.894	136
266.126	169
266.358	168
266.591	177
266.823	184
267.055	173
267.287	171
267.52	178
267.752	196
267.984	172
268.216	178
268.448	183
268.681	182
268.913	185
269.145	202
269.377	211
269.609	240
269.841	206
270.073	215
270.306	230
270.538	243
270.77	229
271.002	244
271.234	213
271.466	236
271.698	220
271.93	257
272.162	246
272.394	265
272.626	235
272.858	225
273.09	225
273.322	220
273.553	230
273.785	204
274.017	203
274.249	201
274.481	200
274.713	209
274.945	216
275.176	194
275.408	194
275.64	201
275.872	189
276.104	203
276.335	195
276.567	195
276.799	219
277.031	229
277.262	245
277.494	243
277.726	236
277.957	216
278.189	221
278.421	218
278.652	227
278.884	208
279.115	193
279.347	200
279.579	214
279.81	196
280.042	219
280.273	189
280.505	213
280.736	192
280.968	208
281.199	205
281.431	195
281.662	197
281.894	196
282.125	210
282.356	222
282.588	230
282.819	242
283.051	202
283.282	214
283.513	210
283.745	221
283.976	217
284.207	210
284.439	225
284.67	207
284.901	204
285.132	218
285.364	222
285.595	216
285.826	216
286.057	216
286.288	215
286.52	217
286.751	221
286.982	227
287.213	205
287.444	202
287.675	219
287.906	227
288.138	224
288.369	229
288.6	210
288.831	222
289.062	218
289.293	218
289.524	214
289.755	206
289.986	197
290.217	219
290.448	224
290.679	216
290.91	215
291.141	202
291.371	213
291.602	218
291.833	211
292.064	210
292.295	201
292.526	214
292.757	212
292.987	193
293.218	217
293.449	240
293.68	216
293.91	210
294.141	225
294.372	216
294.603	213
294.833	214
295.064	212
295.295	225
295.525	212
295.756	217
295.987	241
296.217	266
296.448	229
296.679	224
296.909	225
297.14	211
297.37	212
297.601	224
297.831	219
298.062	220
298.292	205
298.523	222
298.753	222
298.984	226
299.214	219
299.445	227
299.675	225
299.905	237
300.136	226
300.366	227
300.597	231
300.827	249
301.057	244
301.288	245
301.518	233
301.748	233
301.979	245
302.209	224
302.439	236
302.669	261
302.9	248
303.13	242
303.36	232
303.59	224
303.82	244
304.051	253
304.281	236
304.511	246
304.741	233
304.971	241
305.201	241
305.431	267
305.661	247
305.891	230
306.121	227
306.352	251
306.582	245
306.812	246
307.042	244
307.272	262
307.502	272
307.731	247
307.961	251
308.191	257
308.421	227
308.651	253
308.881	259
309.111	259
309.341	256
309.571	260
309.8	276
310.03	282
310.26	287
310.49	277
310.72	292
310.949	292
311.179	306
311.409	268
311.639	282
311.868	293
312.098	277
312.328	276
312.557	290
312.787	309
313.017	320
313.246	313
313.476	308
313.706	302
313.935	288
314.165	279
314.394	314
314.624	298
314.853	300
315.083	277
315.312	282
315.542	268
315.771	281
316.001	266
316.23	271
316.46	280
316.689	305
316.919	280
317.148	276
317.377	281
317.607	301
317.836	287
318.065	273
318.295	265
318.524	272
318.753	280
318.983	287
319.212	306
319.441	302
319.67	304
319.9	304
320.129	280
320.358	280
320.587	307
320.816	270
321.046	296
321.275	296
321.504	298
321.733	307
321.962	320
322.191	318
322.42	316
322.649	348
322.878	340
323.108	355
323.337	390
323.566	391
323.795	424
324.024	461
324.253	604
324.482	874
324.71	1300
324.939	1684
325.168	1396
325.397	726
325.626	521
325.855	426
326.084	413
326.313	396
326.542	390
326.77	439
326.999	532
327.228	756
327.457	1082
327.686	1237
327.914	819
328.143	581
328.372	490
328.6	460
328.829	424
329.058	443
329.287	417
329.515	398
329.744	396
329.972	391
330.201	399
330.43	450
330.658	468
330.887	460
331.115	452
331.344	384
331.572	360
331.801	372
332.03	339
332.258	358
332.486	315
332.715	332
332.943	336
333.172	348
333.4	324
333.629	340
333.857	348
334.085	354
334.314	391
334.542	388
334.771	376
334.999	364
335.227	356
335.455	328
335.684	335
335.912	308
336.14	326
336.369	325
336.597	324
336.825	312
337.053	328
337.281	326
337.51	313
337.738	316
337.966	307
338.194	322
338.422	337
338.65	298
338.878	304
339.106	290
339.334	288
339.562	305
339.79	313
340.018	313
340.246	318
340.474	312
340.702	325
340.93	292
341.158	300
341.386	327
341.614	308
341.842	307
342.07	311
342.298	280
342.526	286
342.754	292
342.981	298
343.209	279
343.437	304
343.665	302
343.893	307
344.12	317
344.348	306
344.576	296
344.804	322
345.031	315
345.259	327
345.487	330
345.714	293
345.942	312
346.17	296
346.397	304
346.625	292
346.853	292
347.08	293
347.308	319
347.535	324
347.763	304
347.99	300
348.218	320
348.445	322
348.673	323
348.9	277
349.128	283
349.355	271
349.583	295
349.81	285
350.037	294
350.265	294
350.492	291
350.72	303
350.947	289
351.174	314
351.402	329
351.629	299
351.856	310
352.083	295
352.311	328
352.538	314
352.765	323
352.992	317
353.22	305
353.447	306
353.674	287
353.901	292
354.128	288
354.355	292
354.583	281
354.81	278
355.037	276
355.264	273
355.491	277
355.718	286
355.945	268
356.172	266
356.399	289
356.626	289
356.853	256
357.08	273
357.307	253
357.534	267
357.761	278
357.988	271
358.215	281
358.441	275
358.668	279
358.895	279
359.122	289
359.349	295
359.576	311
359.802	334
360.029	330
360.256	338
360.483	312
360.709	287
360.936	296
361.163	299
361.39	273
361.616	288
361.843	286
362.07	296
362.296	286
362.523	300
362.749	280
362.976	292
363.203	298
363.429	279
363.656	263
363.882	271
364.109	285
364.335	281
364.562	288
364.788	288
365.015	266
365.241	285
365.468	274
365.694	286
365.92	277
366.147	285
366.373	282
366.599	270
366.826	280
367.052	252
367.278	282
367.505	273
367.731	267
367.957	283
368.184	276
368.41	286
368.636	277
368.862	302
369.089	265
369.315	266
369.541	288
369.767	257
369.993	270
370.219	263
370.445	263
370.672	265
370.898	261
371.124	268
371.35	254
371.576	250
371.802	265
372.028	268
372.254	283
372.48	253
372.706	269
372.932	280
373.158	262
373.384	276
373.61	274
373.835	255
374.061	286
374.287	287
374.513	278
374.739	285
374.965	283
375.191	280
375.416	285
375.642	263
375.868	266
376.094	274
376.319	248
376.545	271
376.771	268
376.997	272
377.222	270
377.448	266
377.674	263
377.899	276
378.125	262
378.35	267
378.576	261
378.802	259
379.027	260
379.253	273
379.478	278
379.704	274
379.929	266
380.155	267
380.38	264
380.606	268
380.831	268
381.057	261
381.282	282
381.507	235
381.733	259
381.958	252
382.184	262
382.409	284
382.634	281
382.86	268
383.085	276
383.31	272
383.535	257
383.761	283
383.986	280
384.211	259
384.436	304
384.662	275
384.887	274
385.112	268
385.337	269
385.562	299
385.787	271
386.013	282
386.238	283
386.463	294
386.688	278
386.913	280
387.138	278
387.363	294
387.588	271
387.813	278
388.038	276
388.263	294
388.488	285
388.713	267
388.938	281
389.163	298
389.387	276
389.612	277
389.837	281
390.062	275
390.287	278
390.512	235
390.736	266
390.961	273
391.186	283
391.411	283
391.636	284
391.86	272
392.085	290
392.31	274
392.534	269
392.759	276
392.984	265
393.208	252
393.433	278
393.658	276
393.882	284
394.107	261
394.331	260
394.556	256
394.78	271
395.005	269
395.229	276
395.454	287
395.678	274
395.903	265
396.127	281
396.352	299
396.576	289
396.801	288
397.025	256
397.249	270
397.474	278
397.698	281
397.922	299
398.147	297
398.371	314
398.595	295
398.82	304
399.044	301
399.268	338
399.492	330
399.717	324
399.941	334
400.165	343
400.389	357
400.613	350
400.837	321
401.062	305
401.286	295
401.51	316
401.734	300
401.958	321
402.182	299
402.406	310
402.63	319
402.854	329
403.078	313
403.302	312
403.526	311
403.75	317
403.974	309
404.198	292
404.422	315
404.645	314
404.869	327
405.093	341
405.317	351
405.541	375
405.765	347
405.988	332
406.212	339
406.436	334
406.66	371
406.883	348
407.107	373
407.331	348
407.555	406
407.778	407
408.002	379
408.226	335
408.449	331
408.673	340
408.896	368
409.12	381
409.344	382
409.567	331
409.791	333
410.014	306
410.238	325
410.461	324
410.685	314
410.908	325
411.132	354
411.355	373
411.578	364
411.802	304
412.025	320
412.249	323
412.472	328
412.695	336
412.919	352
413.142	316
413.365	326
413.589	297
413.812	295
414.035	284
414.258	296
414.482	291
414.705	309
414.928	275
415.151	299
415.374	296
415.597	288
415.821	300
416.044	304
416.267	301
416.49	291
416.713	324
416.936	289
417.159	280
417.382	297
417.605	325
417.828	313
418.051	300
418.274	312
418.497	294
418.72	298
418.943	299
419.166	311
419.389	295
419.611	303
419.834	313
420.057	312
420.28	310
420.503	317
420.726	331
420.948	325
421.171	345
421.394	337
421.617	312
421.839	288
422.062	302
422.285	329
422.507	364
422.73	404
422.953	397
423.175	362
423.398	322
423.621	323
423.843	301
424.066	335
424.288	339
424.511	361
424.733	393
424.956	412
425.178	428
425.401	412
425.623	409
425.846	363
426.068	352
426.291	363
426.513	340
426.735	357
426.958	389
427.18	428
427.402	497
427.625	552
427.847	491
428.069	434
428.292	372
428.514	352
428.736	325
428.958	325
429.181	326
429.403	296
429.625	337
429.847	351
430.069	400
430.292	368
430.514	326
430.736	317
430.958	310
431.18	306
431.402	298
431.624	295
431.846	289
432.068	293
432.29	295
432.512	285
432.734	299
432.956	299
433.178	303
433.4	298
433.622	313
433.844	293
434.066	289
434.287	296
434.509	311
434.731	289
434.953	312
435.175	318
435.397	345
435.618	354
435.84	363
436.062	430
436.284	452
436.505	381
436.727	349
436.949	330
437.17	313
437.392	323
437.614	323
437.835	358
438.057	421
438.278	477
438.5	461
438.721	494
438.943	483
439.165	385
439.386	359
439.608	350
439.829	341
440.05	364
440.272	425
440.493	361
440.715	356
440.936	325
441.158	325
441.379	325
441.6	330
441.822	333
442.043	367
442.264	427
442.486	433
442.707	368
442.928	352
443.149	340
443.371	364
443.592	379
443.813	438
444.034	472
444.255	406
444.476	361
444.698	366
444.919	341
445.14	411
445.361	372
445.582	364
445.803	410
446.024	459
446.245	472
446.466	444
446.687	376
446.908	363
447.129	329
447.35	325
447.571	325
447.792	310
448.013	333
448.234	347
448.455	383
448.675	438
448.896	499
449.117	435
449.338	410
449.559	480
449.779	509
450	402
450.221	345
450.442	326
450.662	314
450.883	331
451.104	333
451.324	324
451.545	315
451.766	304
451.986	297
452.207	291
452.428	302
452.648	293
452.869	290
453.089	302
453.31	304
453.53	306
453.751	295
453.971	289
454.192	299
454.412	304
454.633	285
454.853	271
455.073	296
455.294	295
455.514	363
455.734	341
455.955	297
456.175	268
456.395	268
456.616	278
456.836	276
457.056	264
457.276	262
457.497	269
457.717	265
457.937	266
458.157	287
458.377	288
458.598	298
458.818	342
459.038	377
459.258	398
459.478	320
459.698	310
459.918	295
460.138	282
460.358	289
460.578	306
460.798	280
461.018	286
461.238	289
461.458	296
461.678	309
461.898	307
462.118	282
462.338	293
462.558	300
462.777	300
462.997	307
463.217	293
463.437	306
463.657	316
463.876	307
464.096	309
464.316	311
464.536	308
464.755	312
464.975	309
465.195	344
465.414	386
465.634	334
465.854	320
466.073	298
466.293	302
466.512	292
466.732	297
466.951	295
467.171	281
467.391	286
467.61	291
467.829	300
468.049	272
468.268	315
468.488	297
468.707	274
468.927	282
469.146	289
469.365	285
469.585	285
469.804	301
470.023	284
470.243	289
470.462	311
470.681	307
470.901	328
471.12	280
471.339	312
471.558	293
471.777	313
471.997	295
472.216	304
472.435	316
472.654	307
472.873	304
473.092	295
473.311	289
473.53	283
473.749	302
473.968	344
474.187	400
474.406	420
474.625	347
474.844	306
475.063	299
475.282	284
475.501	302
475.72	293
475.939	292
476.158	294
476.377	296
476.596	297
476.814	312
477.033	313
477.252	301
477.471	299
477.69	317
477.908	329
478.127	309
478.346	312
478.564	310
478.783	313
479.002	323
479.22	328
479.439	326
479.658	339
479.876	341
480.095	346
480.313	361
480.532	338
480.751	354
480.969	360
481.188	402
481.406	418
481.624	388
481.843	353
482.061	361
482.28	354
482.498	333
482.717	352
482.935	343
483.153	325
483.372	348
483.59	342
483.808	342
484.027	339
484.245	371
484.463	326
484.681	348
484.9	347
485.118	340
485.336	339
485.554	347
485.772	329
485.99	356
486.209	347
486.427	352
486.645	358
486.863	354
487.081	364
487.299	374
487.517	369
487.735	350
487.953	364
488.171	361
488.389	364
488.607	373
488.825	358
489.043	363
489.261	354
489.479	349
489.696	359
489.914	369
490.132	360
490.35	355
490.568	396
490.786	388
491.003	378
491.221	415
491.439	402
491.657	410
491.874	409
492.092	396
492.31	391
492.527	411
492.745	415
492.963	422
493.18	435
493.398	427
493.615	450
493.833	416
494.05	426
494.268	434
494.485	419
494.703	420
494.92	424
495.138	422
495.355	420
495.573	443
495.79	414
496.008	432
496.225	447
496.442	445
496.66	435
496.877	430
497.094	438
497.312	418
497.529	434
497.746	434
497.963	444
498.181	459
498.398	463
498.615	451
498.832	464
499.049	472
499.267	458
499.484	470
499.701	474
499.918	500
500.135	498
500.352	527
500.569	519
500.786	542
501.003	507
501.22	496
501.437	502
501.654	509
501.871	491
502.088	502
502.305	479
502.522	468
502.739	466
502.956	472
503.172	435
503.389	440
503.606	450
503.823	452
504.04	440
504.256	437
504.473	426
504.69	421
504.907	412
505.123	429
505.34	408
505.557	406
505.773	428
505.99	428
506.207	436
506.423	438
506.64	412
506.856	408
507.073	410
507.289	397
507.506	396
507.722	406
507.939	426
508.155	416
508.372	389
508.588	389
508.805	409
509.021	416
509.238	408
509.454	414
509.67	422
509.887	404
510.103	412
510.319	421
510.536	502
510.752	789
510.968	624
511.184	418
511.401	385
511.617	392
511.833	376
512.049	379
512.265	376
512.481	370
512.698	381
512.914	372
513.13	391
513.346	377
513.562	404
513.778	394
513.994	402
514.21	427
514.426	435
514.642	429
514.858	458
515.074	474
515.29	597
515.506	825
515.721	674
515.937	472
516.153	417
516.369	401
516.585	408
516.801	388
517.016	368
517.232	398
517.448	371
517.664	362
517.879	386
518.095	388
518.311	369
518.527	386
518.742	376
518.958	394
519.173	395
519.389	371
519.605	383
519.82	383
520.036	395
520.251	411
520.467	433
520.682	444
520.898	440
521.113	433
521.329	490
521.544	548
521.76	707
521.975	1133
522.19	1088
522.406	574
522.621	466
522.836	408
523.052	391
523.267	390
523.482	347
523.698	346
523.913	344
524.128	361
524.343	352
524.559	340
524.774	337
524.989	330
525.204	334
525.419	352
525.634	332
525.849	337
526.064	321
526.28	315
526.495	307
526.71	308
526.925	311
527.14	312
527.355	326
527.57	307
527.785	312
527.999	325
528.214	301
528.429	299
528.644	301
528.859	324
529.074	313
529.289	321
529.503	396
529.718	384
529.933	345
530.148	328
530.363	315
530.577	306
530.792	303
531.007	301
531.221	310
531.436	311
531.651	298
531.865	290
532.08	296
532.295	300
532.509	297
532.724	280
532.938	293
533.153	309
533.367	293
533.582	296
533.796	296
534.011	314
534.225	284
534.44	283
534.654	303
534.868	279
535.083	309
535.297	287
535.511	292
535.726	318
535.94	324
536.154	308
536.369	280
536.583	276
536.797	276
537.011	284
537.225	274
537.44	301
537.654	291
537.868	280
538.082	282
538.296	294
538.51	285
538.724	270
538.938	284
539.153	313
539.367	294
539.581	296
539.795	296
540.009	287
540.222	292
540.436	282
540.65	292
540.864	286
541.078	289
541.292	300
541.506	278
541.72	290
541.934	280
542.147	278
542.361	293
542.575	280
542.789	272
543.002	283
543.216	286
543.43	297
543.644	293
543.857	283
544.071	289
544.285	283
544.498	275
544.712	286
544.925	268
545.139	292
545.352	277
545.566	282
545.779	276
545.993	296
546.206	290
546.42	286
546.633	274
546.847	254
547.06	251
547.274	269
547.487	274
547.7	268
547.914	277
548.127	247
548.34	265
548.554	283
548.767	280
548.98	263
549.193	261
549.407	260
549.62	272
549.833	266
550.046	252
550.259	251
550.473	273
550.686	271
550.899	256
551.112	257
551.325	264
551.538	265
551.751	266
551.964	254
552.177	273
552.39	270
552.603	267
552.816	269
553.029	263
553.242	277
553.455	277
553.667	292
553.88	277
554.093	275
554.306	286
554.519	265
554.732	261
554.944	268
555.157	248
555.37	265
555.583	258
555.795	242
556.008	260
556.221	250
556.433	250
556.646	250
556.859	254
557.071	250
557.284	246
557.496	205
557.709	239
557.921	216
558.134	241
558.346	233
558.559	249
558.771	249
558.984	240
559.196	242
559.409	263
559.621	227
559.833	240
560.046	232
560.258	231
560.47	221
560.683	245
560.895	244
561.107	234
561.32	244
561.532	231
561.744	235
561.956	263
562.168	240
562.381	231
562.593	247
562.805	238
563.017	261
563.229	257
563.441	228
563.653	231
563.865	243
564.077	241
564.289	232
564.501	256
564.713	235
564.925	247
565.137	256
565.349	268
565.561	248
565.773	258
565.985	261
566.197	247
566.408	261
566.62	267
566.832	264
567.044	256
567.255	261
567.467	276
567.679	272
567.891	257
568.102	275
568.314	269
568.526	229
568.737	272
568.949	253
569.161	256
569.372	262
569.584	242
569.795	229
570.007	242
570.218	259
570.43	274
570.641	233
570.853	236
571.064	228
571.276	238
571.487	234
571.698	219
571.91	233
572.121	216
572.333	237
572.544	216
572.755	209
572.966	222
573.178	217
573.389	232
573.6	206
573.811	201
574.023	224
574.234	210
574.445	194
574.656	224
574.867	220
575.078	210
575.289	203
575.501	204
575.712	201
575.923	196
576.134	201
576.345	218
576.556	214
576.767	212
576.978	219
577.188	202
577.399	202
577.61	205
577.821	218
578.032	202
578.243	250
578.454	390
578.665	284
578.875	226
579.086	196
579.297	194
579.508	196
579.718	203
579.929	201
580.14	205
580.35	179
580.561	210
580.772	194
580.982	191
581.193	185
581.403	217
581.614	198
581.825	199
582.035	192
582.246	199
582.456	191
582.667	187
582.877	200
583.087	199
583.298	202
583.508	204
583.719	195
583.929	208
584.139	192
584.35	189
584.56	194
584.77	191
584.981	201
585.191	193
585.401	202
585.611	194
585.821	209
586.032	194
586.242	202
586.452	193
586.662	187
586.872	197
587.082	190
587.292	188
587.502	194
587.713	196
587.923	202
588.133	195
588.343	189
588.553	178
588.762	197
588.972	195
589.182	200
589.392	206
589.602	189
589.812	193
590.022	181
590.232	184
590.441	187
590.651	185
590.861	212
591.071	192
591.281	205
591.49	195
591.7	201
591.91	204
592.119	208
592.329	209
592.539	205
592.748	199
592.958	191
593.167	194
593.377	212
593.587	197
593.796	199
594.006	200
594.215	192
594.424	185
594.634	184
594.843	193
595.053	184
595.262	172
595.472	202
595.681	205
595.89	189
596.1	188
596.309	190
596.518	196
596.727	173
596.937	178
597.146	182
597.355	191
597.564	173
597.774	163
597.983	176
598.192	172
598.401	187
598.61	176
598.819	162
599.028	170
599.237	180
599.446	180
599.655	187
599.864	167
600.073	165
600.282	162
600.491	173
600.7	173
600.909	177
601.118	180
601.327	181
601.536	173
601.745	176
601.953	169
602.162	180
602.371	176
602.58	174
602.789	168
602.997	174
603.206	183
603.415	162
603.623	176
603.832	179
604.041	166
604.249	185
604.458	183
604.666	172
604.875	166
605.084	173
605.292	151
605.501	163
605.709	168
605.918	164
606.126	158
606.334	171
606.543	177
606.751	176
606.96	162
607.168	154
607.376	160
607.585	157
607.793	157
608.001	183
608.21	154
608.418	168
608.626	155
608.834	164
609.043	182
609.251	168
609.459	169
609.667	180
609.875	165
610.083	176
610.291	162
610.499	157
610.707	167
610.916	167
611.124	169
611.332	170
611.54	178
611.748	151
611.955	156
612.163	155
612.371	172
612.579	161
612.787	162
612.995	168
613.203	169
613.411	156
613.618	144
613.826	162
614.034	178
614.242	157
614.449	149
614.657	176
614.865	150
615.072	160
615.28	157
615.488	157
615.695	156
615.903	158
616.111	161
616.318	168
616.526	152
616.733	162
616.941	174
617.148	165
617.356	167
617.563	152
617.771	156
617.978	156
618.185	151
618.393	164
618.6	156
618.807	162
619.015	148
619.222	159
619.429	153
619.637	149
619.844	147
620.051	156
620.258	170
620.466	148
620.673	158
620.88	151
621.087	154
621.294	143
621.501	160
621.708	155
621.915	165
622.122	166
622.329	170
622.536	159
622.743	165
622.95	144
623.157	144
623.364	137
623.571	152
623.778	148
623.985	153
624.192	155
624.399	166
624.606	153
624.812	158
625.019	163
625.226	168
625.433	176
625.639	150
625.846	142
626.053	138
626.259	135
626.466	141
626.673	145
626.879	148
627.086	151
627.293	143
627.499	166
627.706	151
627.912	140
628.119	155
628.325	154
628.532	137
628.738	166
628.945	138
629.151	141
629.357	150
629.564	146
629.77	133
629.976	148
630.183	138
630.389	135
630.595	147
630.802	138
631.008	149
631.214	148
631.42	133
631.627	125
631.833	133
632.039	132
632.245	145
632.451	142
632.657	126
632.863	143
633.069	129
633.275	124
633.481	130
633.688	125
633.893	136
634.099	125
634.305	136
634.511	134
634.717	135
634.923	129
635.129	150
635.335	146
635.541	128
635.747	146
635.952	125
636.158	138
636.364	144
636.57	138
636.775	135
636.981	137
637.187	136
637.392	132
637.598	132
637.804	129
638.009	137
638.215	142
638.421	136
638.626	135
638.832	133
639.037	115
639.243	124
639.448	140
639.654	138
639.859	135
640.065	145
640.27	144
640.475	142
640.681	140
640.886	135
641.091	148
641.297	123
641.502	130
641.707	134
641.913	125
642.118	130
642.323	127
642.528	128
642.733	125
642.939	146
643.144	138
643.349	125
643.554	137
643.759	143
643.964	122
644.169	125
644.374	140
644.579	125
644.784	131
644.989	122
645.194	138
645.399	134
645.604	119
645.809	122
646.014	126
646.219	128
646.423	127
646.628	135
646.833	124
647.038	146
647.243	150
647.447	139
647.652	131
647.857	129
648.062	132
648.266	121
648.471	125
648.676	122
648.88	129
649.085	144
649.289	144
649.494	136
649.698	123
649.903	144
650.107	142
650.312	127
650.516	127
650.721	126
650.925	104
651.13	123
651.334	130
651.539	122
651.743	124
651.947	135
652.152	120
652.356	125
652.56	113
652.764	123
652.969	144
653.173	114
653.377	106
653.581	128
653.785	123
653.99	124
654.194	121
654.398	103
654.602	109
654.806	112
655.01	120
655.214	123
655.418	122
655.622	119
655.826	114
656.03	120
656.234	115
656.438	107
656.642	107
656.846	113
657.049	114
657.253	117
657.457	95
657.661	112
657.865	92
658.068	102
658.272	96
658.476	97
658.68	96
658.883	96
659.087	93
659.291	97
659.494	107
659.698	103
659.901	106
660.105	86
660.309	95
660.512	84
660.716	97
660.919	87
661.123	77
661.326	81
661.53	90
661.733	92
661.936	96
662.14	96
662.343	83
662.546	71
662.75	102
662.953	79
663.156	96
663.36	86
663.563	71
663.766	84
663.969	80
664.173	81
664.376	92
664.579	82
664.782	76
664.985	78
665.188	78
665.391	82
665.594	83
665.797	82
666	79
666.203	91
666.406	76
666.609	78
666.812	83
667.015	77
667.218	93
667.421	90
667.624	99
667.827	88
668.03	86
668.232	96
668.435	85
668.638	93
668.841	89
669.043	84
669.246	83
669.449	89
669.651	93
669.854	92
670.057	93
670.259	81
670.462	85
670.665	74
670.867	99
671.07	86
671.272	88
671.475	81
671.677	77
671.88	73
672.082	71
672.284	85
672.487	90
672.689	75
672.892	78
