Data from 1982.PennyLincolnUp.Lamp.En5.5.200Scan.071819.P1_HRD10591_16-46-02-961.txt Node
Date: Thu Jul 18 16:46:02 EDT 2019
User: cochatt
Spectrometer: HR+D1059
Trigger mode: 1
Integration Time (sec): 1.000000E-1
Scans to average: 1
Electric dark correction enabled: true
Nonlinearity correction enabled: false
Boxcar width: 0
XAxis mode: Wavelengths
Number of Pixels in Spectrum: 2048
>>>>>Begin Spectral Data<<<<<
223.165	-15
223.4	-15
223.635	-15
223.869	-26
224.104	-21
224.338	-23
224.573	-6
224.808	0
225.042	-4
225.277	-4
225.511	2
225.746	-3
225.98	5
226.215	12
226.449	6
226.683	29
226.918	25
227.152	23
227.387	30
227.621	34
227.856	55
228.09	52
228.324	40
228.559	59
228.793	64
229.027	85
229.262	97
229.496	103
229.73	104
229.964	127
230.199	102
230.433	100
230.667	102
230.901	92
231.136	96
231.37	95
231.604	101
231.838	116
232.072	95
232.306	103
232.541	109
232.775	98
233.009	87
233.243	106
233.477	108
233.711	117
233.945	103
234.179	98
234.413	103
234.647	92
234.881	103
235.115	108
235.349	110
235.583	113
235.817	89
236.051	100
236.285	118
236.519	125
236.753	122
236.987	103
237.221	144
237.455	173
237.689	158
237.922	118
238.156	105
238.39	122
238.624	109
238.858	116
239.091	107
239.325	110
239.559	103
239.793	100
240.027	114
240.26	113
240.494	109
240.728	114
240.961	117
241.195	114
241.429	107
241.662	118
241.896	84
242.13	106
242.363	121
242.597	117
242.83	106
243.064	126
243.298	108
243.531	115
243.765	116
243.998	111
244.232	122
244.465	124
244.699	111
244.932	124
245.166	126
245.399	124
245.633	112
245.866	136
246.099	124
246.333	108
246.566	117
246.8	131
247.033	136
247.266	131
247.5	130
247.733	142
247.966	143
248.2	143
248.433	134
248.666	154
248.899	154
249.133	164
249.366	167
249.599	168
249.832	153
250.066	148
250.299	144
250.532	163
250.765	161
250.998	192
251.231	153
251.465	153
251.698	162
251.931	149
252.164	160
252.397	166
252.63	155
252.863	144
253.096	171
253.329	173
253.562	180
253.795	176
254.028	153
254.261	165
254.494	166
254.727	183
254.96	204
255.193	207
255.426	209
255.659	176
255.892	180
256.124	169
256.357	178
256.59	190
256.823	173
257.056	162
257.289	169
257.521	171
257.754	166
257.987	161
258.22	154
258.452	155
258.685	162
258.918	164
259.151	171
259.383	168
259.616	173
259.849	180
260.081	200
260.314	182
260.547	188
260.779	188
261.012	155
261.244	162
261.477	172
261.71	168
261.942	185
262.175	176
262.407	178
262.64	151
262.872	181
263.105	169
263.337	172
263.57	166
263.802	162
264.035	177
264.267	158
264.499	172
264.732	172
264.964	163
265.197	162
265.429	157
265.661	164
265.894	170
266.126	169
266.358	166
266.591	161
266.823	166
267.055	173
267.287	187
267.52	186
267.752	186
267.984	182
268.216	182
268.448	181
268.681	191
268.913	192
269.145	191
269.377	206
269.609	212
269.841	187
270.073	246
270.306	236
270.538	254
270.77	235
271.002	236
271.234	214
271.466	218
271.698	221
271.93	237
272.162	248
272.394	237
272.626	220
272.858	211
273.09	206
273.322	215
273.553	195
273.785	186
274.017	206
274.249	206
274.481	207
274.713	197
274.945	215
275.176	225
275.408	217
275.64	209
275.872	203
276.104	225
276.335	215
276.567	222
276.799	240
277.031	216
277.262	236
277.494	237
277.726	232
277.957	217
278.189	215
278.421	199
278.652	197
278.884	198
279.115	214
279.347	196
279.579	208
279.81	186
280.042	209
280.273	198
280.505	188
280.736	204
280.968	211
281.199	203
281.431	199
281.662	205
281.894	202
282.125	221
282.356	248
282.588	233
282.819	236
283.051	207
283.282	195
283.513	202
283.745	204
283.976	211
284.207	215
284.439	206
284.67	225
284.901	207
285.132	214
285.364	220
285.595	213
285.826	197
286.057	215
286.288	206
286.52	198
286.751	205
286.982	201
287.213	232
287.444	223
287.675	194
287.906	236
288.138	233
288.369	228
288.6	232
288.831	216
289.062	214
289.293	229
289.524	219
289.755	216
289.986	226
290.217	221
290.448	205
290.679	212
290.91	208
291.141	207
291.371	210
291.602	214
291.833	196
292.064	210
292.295	216
292.526	212
292.757	221
292.987	212
293.218	218
293.449	222
293.68	209
293.91	202
294.141	200
294.372	212
294.603	210
294.833	216
295.064	234
295.295	220
295.525	225
295.756	216
295.987	217
296.217	231
296.448	233
296.679	226
296.909	195
297.14	235
297.37	233
297.601	232
297.831	230
298.062	221
298.292	226
298.523	225
298.753	219
298.984	198
299.214	226
299.445	226
299.675	232
299.905	258
300.136	237
300.366	223
300.597	225
300.827	252
301.057	244
301.288	253
301.518	218
301.748	243
301.979	242
302.209	242
302.439	237
302.669	254
302.9	229
303.13	244
303.36	241
303.59	227
303.82	259
304.051	237
304.281	246
304.511	235
304.741	228
304.971	231
305.201	237
305.431	240
305.661	238
305.891	253
306.121	225
306.352	241
306.582	234
306.812	250
307.042	265
307.272	232
307.502	236
307.731	251
307.961	239
308.191	260
308.421	236
308.651	246
308.881	245
309.111	255
309.341	263
309.571	267
309.8	281
310.03	284
310.26	281
310.49	281
310.72	284
310.949	293
311.179	290
311.409	286
311.639	296
311.868	282
312.098	265
312.328	290
312.557	289
312.787	286
313.017	308
313.246	282
313.476	282
313.706	290
313.935	289
314.165	277
314.394	295
314.624	296
314.853	276
315.083	298
315.312	272
315.542	270
315.771	274
316.001	284
316.23	281
316.46	258
316.689	267
316.919	260
317.148	297
317.377	298
317.607	262
317.836	307
318.065	282
318.295	279
318.524	277
318.753	291
318.983	284
319.212	284
319.441	282
319.67	283
319.9	281
320.129	278
320.358	282
320.587	296
320.816	296
321.046	297
321.275	300
321.504	285
321.733	292
321.962	293
322.191	307
322.42	319
322.649	328
322.878	346
323.108	355
323.337	342
323.566	385
323.795	393
324.024	455
324.253	593
324.482	841
324.71	1254
324.939	1619
325.168	1322
325.397	721
325.626	497
325.855	404
326.084	386
326.313	376
326.542	379
326.77	434
326.999	531
327.228	758
327.457	1082
327.686	1161
327.914	794
328.143	558
328.372	477
328.6	448
328.829	427
329.058	416
329.287	442
329.515	404
329.744	375
329.972	387
330.201	387
330.43	418
330.658	426
330.887	447
331.115	424
331.344	376
331.572	376
331.801	355
332.03	363
332.258	327
332.486	334
332.715	328
332.943	321
333.172	313
333.4	324
333.629	322
333.857	348
334.085	322
334.314	354
334.542	392
334.771	390
334.999	341
335.227	317
335.455	322
335.684	308
335.912	308
336.14	317
336.369	321
336.597	324
336.825	319
337.053	316
337.281	298
337.51	322
337.738	309
337.966	308
338.194	305
338.422	299
338.65	288
338.878	309
339.106	304
339.334	300
339.562	317
339.79	312
340.018	320
340.246	309
340.474	340
340.702	310
340.93	288
341.158	304
341.386	286
341.614	314
341.842	307
342.07	286
342.298	307
342.526	300
342.754	289
342.981	278
343.209	293
343.437	308
343.665	287
343.893	292
344.12	311
344.348	312
344.576	284
344.804	307
345.031	325
345.259	324
345.487	319
345.714	298
345.942	301
346.17	298
346.397	288
346.625	291
346.853	290
347.08	292
347.308	300
347.535	296
347.763	315
347.99	308
348.218	292
348.445	306
348.673	312
348.9	297
349.128	300
349.355	282
349.583	305
349.81	292
350.037	276
350.265	291
350.492	281
350.72	292
350.947	313
351.174	290
351.402	324
351.629	320
351.856	310
352.083	314
352.311	288
352.538	302
352.765	310
352.992	298
353.22	289
353.447	290
353.674	290
353.901	276
354.128	270
354.355	273
354.583	276
354.81	264
355.037	291
355.264	272
355.491	266
355.718	265
355.945	270
356.172	254
356.399	280
356.626	292
356.853	278
357.08	264
357.307	270
357.534	285
357.761	275
357.988	263
358.215	268
358.441	280
358.668	273
358.895	261
359.122	282
359.349	265
359.576	300
359.802	312
360.029	326
360.256	342
360.483	326
360.709	316
360.936	301
361.163	268
361.39	290
361.616	294
361.843	277
362.07	252
362.296	282
362.523	288
362.749	300
362.976	280
363.203	292
363.429	285
363.656	290
363.882	277
364.109	272
364.335	278
364.562	258
364.788	260
365.015	271
365.241	262
365.468	269
365.694	282
365.92	282
366.147	282
366.373	267
366.599	282
366.826	282
367.052	266
367.278	287
367.505	248
367.731	262
367.957	273
368.184	269
368.41	256
368.636	277
368.862	285
369.089	269
369.315	270
369.541	264
369.767	285
369.993	256
370.219	269
370.445	274
370.672	273
370.898	259
371.124	267
371.35	260
371.576	259
371.802	258
372.028	270
372.254	268
372.48	284
372.706	274
372.932	260
373.158	280
373.384	272
373.61	280
373.835	275
374.061	295
374.287	265
374.513	267
374.739	264
374.965	259
375.191	265
375.416	276
375.642	261
375.868	269
376.094	270
376.319	275
376.545	264
376.771	269
376.997	262
377.222	258
377.448	261
377.674	268
377.899	262
378.125	263
378.35	265
378.576	254
378.802	254
379.027	259
379.253	260
379.478	255
379.704	255
379.929	243
380.155	281
380.38	259
380.606	255
380.831	241
381.057	261
381.282	273
381.507	259
381.733	252
381.958	254
382.184	260
382.409	269
382.634	277
382.86	268
383.085	253
383.31	256
383.535	271
383.761	277
383.986	259
384.211	278
384.436	276
384.662	270
384.887	250
385.112	268
385.337	276
385.562	265
385.787	271
386.013	260
386.238	283
386.463	270
386.688	271
386.913	278
387.138	273
387.363	284
387.588	256
387.813	277
388.038	279
388.263	275
388.488	274
388.713	260
388.938	272
389.163	270
389.387	294
389.612	266
389.837	275
390.062	267
390.287	250
390.512	266
390.736	286
390.961	275
391.186	264
391.411	286
391.636	276
391.86	262
392.085	283
392.31	288
392.534	286
392.759	269
392.984	266
393.208	279
393.433	266
393.658	273
393.882	281
394.107	275
394.331	283
394.556	281
394.78	274
395.005	282
395.229	271
395.454	288
395.678	283
395.903	296
396.127	289
396.352	304
396.576	278
396.801	275
397.025	275
397.249	288
397.474	284
397.698	285
397.922	281
398.147	291
398.371	308
398.595	304
398.82	327
399.044	317
399.268	307
399.492	319
399.717	334
399.941	357
400.165	346
400.389	365
400.613	327
400.837	317
401.062	310
401.286	278
401.51	294
401.734	293
401.958	309
402.182	310
402.406	306
402.63	305
402.854	306
403.078	325
403.302	312
403.526	325
403.75	304
403.974	320
404.198	309
404.422	295
404.645	306
404.869	320
405.093	343
405.317	346
405.541	361
405.765	338
405.988	331
406.212	346
406.436	347
406.66	349
406.883	333
407.107	355
407.331	361
407.555	404
407.778	398
408.002	362
408.226	343
408.449	340
408.673	344
408.896	370
409.12	378
409.344	358
409.567	329
409.791	326
410.014	331
410.238	318
410.461	306
410.685	312
410.908	323
411.132	336
411.355	348
411.578	330
411.802	312
412.025	331
412.249	308
412.472	340
412.695	338
412.919	341
413.142	322
413.365	306
413.589	304
413.812	300
414.035	302
414.258	301
414.482	290
414.705	304
414.928	290
415.151	294
415.374	299
415.597	304
415.821	280
416.044	280
416.267	291
416.49	276
416.713	297
416.936	282
417.159	281
417.382	264
417.605	293
417.828	311
418.051	308
418.274	296
418.497	299
418.72	300
418.943	305
419.166	302
419.389	296
419.611	291
419.834	292
420.057	314
420.28	299
420.503	310
420.726	334
420.948	318
421.171	364
421.394	356
421.617	330
421.839	292
422.062	292
422.285	348
422.507	357
422.73	376
422.953	376
423.175	325
423.398	330
423.621	331
423.843	341
424.066	337
424.288	325
424.511	351
424.733	407
424.956	425
425.178	399
425.401	384
425.623	403
425.846	377
426.068	341
426.291	344
426.513	333
426.735	330
426.958	370
427.18	429
427.402	485
427.625	549
427.847	488
428.069	412
428.292	375
428.514	349
428.736	331
428.958	315
429.181	308
429.403	306
429.625	318
429.847	338
430.069	382
430.292	381
430.514	321
430.736	308
430.958	310
431.18	305
431.402	297
431.624	291
431.846	280
432.068	281
432.29	276
432.512	298
432.734	281
432.956	307
433.178	325
433.4	297
433.622	301
433.844	310
434.066	294
434.287	290
434.509	291
434.731	281
434.953	310
435.175	288
435.397	322
435.618	345
435.84	342
436.062	439
436.284	454
436.505	391
436.727	347
436.949	331
437.17	329
437.392	310
437.614	328
437.835	354
438.057	404
438.278	451
438.5	469
438.721	492
438.943	484
439.165	402
439.386	354
439.608	334
439.829	343
440.05	383
440.272	400
440.493	373
440.715	336
440.936	324
441.158	306
441.379	309
441.6	314
441.822	324
442.043	345
442.264	422
442.486	436
442.707	349
442.928	372
443.149	353
443.371	362
443.592	395
443.813	451
444.034	461
444.255	377
444.476	346
444.698	323
444.919	342
445.14	412
445.361	369
445.582	356
445.803	406
446.024	466
446.245	468
446.466	444
446.687	382
446.908	349
447.129	318
447.35	309
447.571	303
447.792	311
448.013	330
448.234	333
448.455	375
448.675	410
448.896	502
449.117	425
449.338	412
449.559	450
449.779	493
450	400
450.221	364
450.442	331
450.662	309
450.883	323
451.104	313
451.324	344
451.545	308
451.766	299
451.986	296
452.207	294
452.428	292
452.648	276
452.869	280
453.089	302
453.31	300
453.53	285
453.751	294
453.971	294
454.192	317
454.412	297
454.633	291
454.853	278
455.073	286
455.294	315
455.514	341
455.734	344
455.955	311
456.175	269
456.395	256
456.616	270
456.836	276
457.056	268
457.276	277
457.497	274
457.717	277
457.937	270
458.157	299
458.377	283
458.598	291
458.818	334
459.038	378
459.258	394
459.478	330
459.698	309
459.918	290
460.138	288
460.358	292
460.578	309
460.798	294
461.018	280
461.238	284
461.458	287
461.678	285
461.898	308
462.118	285
462.338	321
462.558	297
462.777	289
462.997	311
463.217	318
463.437	299
463.657	286
463.876	302
464.096	323
464.316	300
464.536	312
464.755	301
464.975	315
465.195	363
465.414	405
465.634	344
465.854	320
466.073	311
466.293	304
466.512	287
466.732	278
466.951	266
467.171	290
467.391	308
467.61	286
467.829	304
468.049	281
468.268	276
468.488	281
468.707	290
468.927	277
469.146	276
469.365	291
469.585	264
469.804	299
470.023	280
470.243	297
470.462	293
470.681	306
470.901	302
471.12	275
471.339	291
471.558	284
471.777	297
471.997	296
472.216	289
472.435	324
472.654	318
472.873	294
473.092	296
473.311	278
473.53	297
473.749	321
473.968	359
474.187	382
474.406	400
474.625	324
474.844	315
475.063	287
475.282	309
475.501	283
475.72	301
475.939	294
476.158	293
476.377	296
476.596	299
476.814	281
477.033	302
477.252	299
477.471	291
477.69	295
477.908	309
478.127	312
478.346	296
478.564	318
478.783	302
479.002	320
479.22	321
479.439	338
479.658	352
479.876	368
480.095	340
480.313	345
480.532	352
480.751	340
480.969	355
481.188	392
481.406	399
481.624	372
481.843	347
482.061	346
482.28	343
482.498	352
482.717	339
482.935	336
483.153	313
483.372	334
483.59	340
483.808	319
484.027	336
484.245	341
484.463	365
484.681	334
484.9	334
485.118	347
485.336	340
485.554	353
485.772	353
485.99	326
486.209	345
486.427	332
486.645	340
486.863	368
487.081	387
487.299	372
487.517	345
487.735	348
487.953	364
488.171	371
488.389	362
488.607	355
488.825	355
489.043	364
489.261	375
489.479	362
489.696	390
489.914	370
490.132	368
490.35	376
490.568	374
490.786	400
491.003	372
491.221	373
491.439	411
491.657	406
491.874	397
492.092	396
492.31	420
492.527	407
492.745	403
492.963	421
493.18	404
493.398	418
493.615	422
493.833	405
494.05	412
494.268	407
494.485	426
494.703	417
494.92	411
495.138	439
495.355	428
495.573	421
495.79	419
496.008	408
496.225	428
496.442	436
496.66	407
496.877	428
497.094	432
497.312	432
497.529	415
497.746	418
497.963	444
498.181	457
498.398	464
498.615	454
498.832	449
499.049	443
499.267	450
499.484	482
499.701	486
499.918	483
500.135	512
500.352	490
500.569	525
500.786	534
501.003	538
501.22	499
501.437	491
501.654	501
501.871	512
502.088	507
502.305	477
502.522	478
502.739	457
502.956	427
503.172	437
503.389	414
503.606	434
503.823	434
504.04	445
504.256	415
504.473	418
504.69	420
504.907	436
505.123	392
505.34	398
505.557	404
505.773	405
505.99	420
506.207	402
506.423	398
506.64	410
506.856	403
507.073	388
507.289	409
507.506	386
507.722	407
507.939	425
508.155	423
508.372	400
508.588	412
508.805	394
509.021	405
509.238	389
509.454	402
509.67	403
509.887	396
510.103	393
510.319	404
510.536	462
510.752	789
510.968	590
511.184	410
511.401	376
511.617	398
511.833	393
512.049	398
512.265	368
512.481	388
512.698	364
512.914	370
513.13	394
513.346	355
513.562	374
513.778	388
513.994	389
514.21	370
514.426	414
514.642	446
514.858	462
515.074	479
515.29	610
515.506	844
515.721	672
515.937	451
516.153	425
516.369	396
516.585	389
516.801	413
517.016	379
517.232	369
517.448	380
517.664	356
517.879	356
518.095	355
518.311	376
518.527	369
518.742	375
518.958	368
519.173	360
519.389	363
519.605	376
519.82	396
520.036	393
520.251	389
520.467	413
520.682	418
520.898	433
521.113	434
521.329	462
521.544	550
521.76	685
521.975	1116
522.19	1079
522.406	586
522.621	446
522.836	420
523.052	381
523.267	373
523.482	363
523.698	348
523.913	326
524.128	344
524.343	335
524.559	331
524.774	321
524.989	338
525.204	328
525.419	336
525.634	306
525.849	324
526.064	311
526.28	321
526.495	326
526.71	315
526.925	306
527.14	322
527.355	316
527.57	299
527.785	319
527.999	294
528.214	320
528.429	300
528.644	299
528.859	304
529.074	308
529.289	342
529.503	392
529.718	361
529.933	337
530.148	319
530.363	320
530.577	293
530.792	311
531.007	292
531.221	298
531.436	295
531.651	300
531.865	294
532.08	269
532.295	291
532.509	305
532.724	300
532.938	284
533.153	296
533.367	278
533.582	298
533.796	299
534.011	290
534.225	296
534.44	280
534.654	280
534.868	298
535.083	291
535.297	305
535.511	288
535.726	309
535.94	283
536.154	301
536.369	294
536.583	291
536.797	280
537.011	283
537.225	262
537.44	285
537.654	278
537.868	294
538.082	295
538.296	296
538.51	288
538.724	293
538.938	288
539.153	269
539.367	314
539.581	285
539.795	275
540.009	272
540.222	295
540.436	291
540.65	295
540.864	287
541.078	288
541.292	305
541.506	279
541.72	293
541.934	270
542.147	291
542.361	283
542.575	284
542.789	291
543.002	284
543.216	279
543.43	274
543.644	279
543.857	285
544.071	281
544.285	291
544.498	268
544.712	286
544.925	280
545.139	284
545.352	273
545.566	267
545.779	278
545.993	276
546.206	270
546.42	275
546.633	268
546.847	278
547.06	268
547.274	257
547.487	276
547.7	280
547.914	260
548.127	280
548.34	261
548.554	267
548.767	262
548.98	272
549.193	260
549.407	261
549.62	284
549.833	262
550.046	256
550.259	264
550.473	267
550.686	271
550.899	259
551.112	278
551.325	258
551.538	270
551.751	262
551.964	248
552.177	242
552.39	264
552.603	276
552.816	265
553.029	276
553.242	270
553.455	275
553.667	288
553.88	275
554.093	268
554.306	254
554.519	267
554.732	244
554.944	258
555.157	261
555.37	268
555.583	244
555.795	251
556.008	259
556.221	250
556.433	248
556.646	254
556.859	266
557.071	240
557.284	258
557.496	234
557.709	249
557.921	246
558.134	241
558.346	226
558.559	229
558.771	240
558.984	240
559.196	238
559.409	254
559.621	258
559.833	222
560.046	252
560.258	251
560.47	246
560.683	253
560.895	231
561.107	250
561.32	241
561.532	237
561.744	236
561.956	230
562.168	251
562.381	237
562.593	233
562.805	236
563.017	240
563.229	231
563.441	234
563.653	250
563.865	239
564.077	240
564.289	246
564.501	252
564.713	256
564.925	264
565.137	256
565.349	254
565.561	270
565.773	270
565.985	257
566.197	260
566.408	250
566.62	267
566.832	274
567.044	245
567.255	268
567.467	258
567.679	270
567.891	276
568.102	271
568.314	274
568.526	265
568.737	260
568.949	234
569.161	248
569.372	244
569.584	237
569.795	242
570.007	237
570.218	271
570.43	260
570.641	231
570.853	212
571.064	234
571.276	231
571.487	223
571.698	234
571.91	244
572.121	216
572.333	234
572.544	235
572.755	218
572.966	219
573.178	209
573.389	206
573.6	224
573.811	221
574.023	199
574.234	213
574.445	207
574.656	224
574.867	205
575.078	210
575.289	198
575.501	194
575.712	187
575.923	202
576.134	232
576.345	198
576.556	207
576.767	207
576.978	223
577.188	211
577.399	194
577.61	215
577.821	204
578.032	202
578.243	228
578.454	380
578.665	293
578.875	202
579.086	200
579.297	203
579.508	192
579.718	190
579.929	193
580.14	202
580.35	227
580.561	202
580.772	194
580.982	193
581.193	201
581.403	211
581.614	198
581.825	191
582.035	191
582.246	187
582.456	203
582.667	186
582.877	200
583.087	200
583.298	211
583.508	201
583.719	210
583.929	200
584.139	192
584.35	197
584.56	184
584.77	213
584.981	197
585.191	198
585.401	188
585.611	200
585.821	187
586.032	188
586.242	191
586.452	176
586.662	204
586.872	200
587.082	186
587.292	218
587.502	197
587.713	185
587.923	202
588.133	193
588.343	202
588.553	204
588.762	190
588.972	181
589.182	191
589.392	208
589.602	190
589.812	211
590.022	197
590.232	200
590.441	203
590.651	188
590.861	181
591.071	185
591.281	188
591.49	199
591.7	188
591.91	190
592.119	196
592.329	188
592.539	193
592.748	189
592.958	187
593.167	204
593.377	193
593.587	194
593.796	191
594.006	194
594.215	199
594.424	200
594.634	198
594.843	208
595.053	192
595.262	188
595.472	196
595.681	180
595.89	181
596.1	184
596.309	196
596.518	176
596.727	190
596.937	182
597.146	184
597.355	164
597.564	185
597.774	169
597.983	190
598.192	184
598.401	168
598.61	181
598.819	169
599.028	176
599.237	169
599.446	187
599.655	185
599.864	180
600.073	181
600.282	162
600.491	194
600.7	164
600.909	168
601.118	174
601.327	176
601.536	152
601.745	163
601.953	164
602.162	176
602.371	174
602.58	159
602.789	156
602.997	183
603.206	184
603.415	171
603.623	160
603.832	166
604.041	166
604.249	179
604.458	156
604.666	156
604.875	170
605.084	164
605.292	170
605.501	176
605.709	181
605.918	168
606.126	168
606.334	157
606.543	162
606.751	170
606.96	156
607.168	176
607.376	176
607.585	161
607.793	168
608.001	161
608.21	153
608.418	172
608.626	168
608.834	155
609.043	181
609.251	183
609.459	162
609.667	163
609.875	159
610.083	174
610.291	181
610.499	174
610.707	168
610.916	164
611.124	178
611.332	176
611.54	158
611.748	160
611.955	154
612.163	166
612.371	177
612.579	168
612.787	166
612.995	178
613.203	172
613.411	153
613.618	162
613.826	181
614.034	174
614.242	161
614.449	170
614.657	163
614.865	157
615.072	158
615.28	176
615.488	171
615.695	152
615.903	166
616.111	164
616.318	162
616.526	169
616.733	179
616.941	168
617.148	166
617.356	164
617.563	148
617.771	164
617.978	171
618.185	151
618.393	172
618.6	166
618.807	161
619.015	156
619.222	152
619.429	163
619.637	169
619.844	156
620.051	150
620.258	160
620.466	140
620.673	137
620.88	154
621.087	149
621.294	158
621.501	151
621.708	153
621.915	169
622.122	166
622.329	156
622.536	154
622.743	140
622.95	142
623.157	132
623.364	161
623.571	146
623.778	152
623.985	153
624.192	145
624.399	140
624.606	156
624.812	155
625.019	154
625.226	173
625.433	143
625.639	137
625.846	147
626.053	150
626.259	156
626.466	160
626.673	156
626.879	148
627.086	151
627.293	152
627.499	148
627.706	148
627.912	137
628.119	136
628.325	147
628.532	134
628.738	151
628.945	130
629.151	140
629.357	138
629.564	145
629.77	145
629.976	134
630.183	151
630.389	130
630.595	139
630.802	143
631.008	124
631.214	146
631.42	157
631.627	134
631.833	130
632.039	151
632.245	140
632.451	144
632.657	128
632.863	151
633.069	143
633.275	146
633.481	132
633.688	120
633.893	153
634.099	131
634.305	140
634.511	142
634.717	126
634.923	135
635.129	130
635.335	134
635.541	151
635.747	136
635.952	149
636.158	136
636.364	141
636.57	136
636.775	137
636.981	148
637.187	134
637.392	148
637.598	148
637.804	130
638.009	134
638.215	131
638.421	114
638.626	123
638.832	140
639.037	123
639.243	129
639.448	134
639.654	133
639.859	138
640.065	143
640.27	137
640.475	122
640.681	130
640.886	143
641.091	121
641.297	136
641.502	126
641.707	148
641.913	141
642.118	150
642.323	127
642.528	132
642.733	133
642.939	128
643.144	135
643.349	139
643.554	143
643.759	120
643.964	142
644.169	107
644.374	133
644.579	126
644.784	126
644.989	122
645.194	123
645.399	121
645.604	118
645.809	125
646.014	125
646.219	110
646.423	132
646.628	123
646.833	136
647.038	132
647.243	119
647.447	136
647.652	142
647.857	130
648.062	121
648.266	126
648.471	142
648.676	146
648.88	122
649.085	129
649.289	122
649.494	133
649.698	140
649.903	134
650.107	138
650.312	128
650.516	134
650.721	131
650.925	128
651.13	118
651.334	119
651.539	116
651.743	117
651.947	113
652.152	125
652.356	111
652.56	117
652.764	121
652.969	121
653.173	115
653.377	114
653.581	114
653.785	116
653.99	112
654.194	122
654.398	121
654.602	114
654.806	115
655.01	123
655.214	125
655.418	131
655.622	102
655.826	102
656.03	103
656.234	125
656.438	120
656.642	115
656.846	112
657.049	105
657.253	100
657.457	115
657.661	107
657.865	116
658.068	106
658.272	98
658.476	96
658.68	103
658.883	106
659.087	107
659.291	89
659.494	89
659.698	96
659.901	94
660.105	108
660.309	96
660.512	85
660.716	104
660.919	93
661.123	96
661.326	101
661.53	83
661.733	92
661.936	79
662.14	85
662.343	85
662.546	85
662.75	84
662.953	79
663.156	73
663.36	85
663.563	82
663.766	98
663.969	89
664.173	70
664.376	88
664.579	76
664.782	92
664.985	92
665.188	75
665.391	75
665.594	78
665.797	82
666	86
666.203	91
666.406	96
666.609	80
666.812	85
667.015	95
667.218	81
667.421	86
667.624	75
667.827	79
668.03	77
668.232	82
668.435	83
668.638	91
668.841	74
669.043	84
669.246	80
669.449	76
669.651	82
669.854	76
670.057	81
670.259	75
670.462	89
670.665	83
670.867	91
671.07	83
671.272	77
671.475	88
671.677	88
671.88	94
672.082	84
672.284	70
672.487	80
672.689	75
672.892	92
