Data from 1982.PennyLincolnUp.Lamp.En5.5.200Scan.071819.P1_HRD10591_16-46-50-961.txt Node
Date: Thu Jul 18 16:46:50 EDT 2019
User: cochatt
Spectrometer: HR+D1059
Trigger mode: 1
Integration Time (sec): 1.000000E-1
Scans to average: 1
Electric dark correction enabled: true
Nonlinearity correction enabled: false
Boxcar width: 0
XAxis mode: Wavelengths
Number of Pixels in Spectrum: 2048
>>>>>Begin Spectral Data<<<<<
223.165	-2.81
223.4	-2.81
223.635	-2.81
223.869	-10.81
224.104	-14.81
224.338	-10.81
224.573	-20.81
224.808	-24.81
225.042	-19.81
225.277	-7.81
225.511	0.19
225.746	10.19
225.98	10.19
226.215	24.19
226.449	11.19
226.683	14.19
226.918	20.19
227.152	22.19
227.387	36.19
227.621	46.19
227.856	45.19
228.09	43.19
228.324	51.19
228.559	60.19
228.793	78.19
229.027	79.19
229.262	96.19
229.496	101.19
229.73	113.19
229.964	124.19
230.199	116.19
230.433	97.19
230.667	104.19
230.901	122.19
231.136	105.19
231.37	101.19
231.604	106.19
231.838	99.19
232.072	103.19
232.306	113.19
232.541	101.19
232.775	91.19
233.009	94.19
233.243	92.19
233.477	94.19
233.711	97.19
233.945	107.19
234.179	105.19
234.413	112.19
234.647	110.19
234.881	102.19
235.115	100.19
235.349	108.19
235.583	110.19
235.817	113.19
236.051	113.19
236.285	113.19
236.519	124.19
236.753	123.19
236.987	121.19
237.221	151.19
237.455	166.19
237.689	147.19
237.922	121.19
238.156	127.19
238.39	111.19
238.624	126.19
238.858	107.19
239.091	113.19
239.325	114.19
239.559	123.19
239.793	126.19
240.027	124.19
240.26	128.19
240.494	113.19
240.728	111.19
240.961	125.19
241.195	116.19
241.429	124.19
241.662	113.19
241.896	129.19
242.13	129.19
242.363	118.19
242.597	125.19
242.83	131.19
243.064	125.19
243.298	104.19
243.531	118.19
243.765	125.19
243.998	131.19
244.232	112.19
244.465	119.19
244.699	125.19
244.932	122.19
245.166	115.19
245.399	140.19
245.633	115.19
245.866	123.19
246.099	142.19
246.333	130.19
246.566	122.19
246.8	131.19
247.033	133.19
247.266	130.19
247.5	141.19
247.733	139.19
247.966	139.19
248.2	141.19
248.433	142.19
248.666	144.19
248.899	154.19
249.133	150.19
249.366	173.19
249.599	148.19
249.832	152.19
250.066	150.19
250.299	161.19
250.532	162.19
250.765	177.19
250.998	174.19
251.231	187.19
251.465	173.19
251.698	153.19
251.931	155.19
252.164	148.19
252.397	155.19
252.63	144.19
252.863	165.19
253.096	168.19
253.329	176.19
253.562	184.19
253.795	183.19
254.028	167.19
254.261	178.19
254.494	174.19
254.727	192.19
254.96	209.19
255.193	214.19
255.426	193.19
255.659	170.19
255.892	201.19
256.124	181.19
256.357	190.19
256.59	180.19
256.823	172.19
257.056	172.19
257.289	176.19
257.521	163.19
257.754	168.19
257.987	165.19
258.22	166.19
258.452	152.19
258.685	158.19
258.918	179.19
259.151	160.19
259.383	164.19
259.616	160.19
259.849	180.19
260.081	191.19
260.314	195.19
260.547	199.19
260.779	185.19
261.012	181.19
261.244	173.19
261.477	189.19
261.71	175.19
261.942	174.19
262.175	184.19
262.407	176.19
262.64	171.19
262.872	158.19
263.105	171.19
263.337	162.19
263.57	167.19
263.802	172.19
264.035	163.19
264.267	185.19
264.499	154.19
264.732	174.19
264.964	179.19
265.197	189.19
265.429	154.19
265.661	158.19
265.894	159.19
266.126	173.19
266.358	166.19
266.591	179.19
266.823	184.19
267.055	170.19
267.287	181.19
267.52	177.19
267.752	174.19
267.984	183.19
268.216	190.19
268.448	170.19
268.681	197.19
268.913	200.19
269.145	211.19
269.377	208.19
269.609	201.19
269.841	217.19
270.073	209.19
270.306	228.19
270.538	243.19
270.77	234.19
271.002	228.19
271.234	221.19
271.466	243.19
271.698	255.19
271.93	246.19
272.162	230.19
272.394	245.19
272.626	236.19
272.858	222.19
273.09	211.19
273.322	233.19
273.553	201.19
273.785	210.19
274.017	207.19
274.249	200.19
274.481	203.19
274.713	223.19
274.945	200.19
275.176	190.19
275.408	211.19
275.64	201.19
275.872	206.19
276.104	194.19
276.335	211.19
276.567	217.19
276.799	245.19
277.031	236.19
277.262	242.19
277.494	238.19
277.726	224.19
277.957	226.19
278.189	212.19
278.421	215.19
278.652	210.19
278.884	203.19
279.115	198.19
279.347	207.19
279.579	196.19
279.81	205.19
280.042	194.19
280.273	207.19
280.505	195.19
280.736	207.19
280.968	193.19
281.199	210.19
281.431	211.19
281.662	218.19
281.894	211.19
282.125	221.19
282.356	208.19
282.588	232.19
282.819	227.19
283.051	212.19
283.282	201.19
283.513	211.19
283.745	205.19
283.976	210.19
284.207	219.19
284.439	206.19
284.67	213.19
284.901	203.19
285.132	208.19
285.364	217.19
285.595	214.19
285.826	212.19
286.057	221.19
286.288	203.19
286.52	224.19
286.751	206.19
286.982	206.19
287.213	206.19
287.444	206.19
287.675	226.19
287.906	226.19
288.138	225.19
288.369	220.19
288.6	228.19
288.831	217.19
289.062	212.19
289.293	225.19
289.524	221.19
289.755	208.19
289.986	201.19
290.217	217.19
290.448	219.19
290.679	238.19
290.91	232.19
291.141	207.19
291.371	210.19
291.602	217.19
291.833	221.19
292.064	231.19
292.295	226.19
292.526	210.19
292.757	214.19
292.987	216.19
293.218	245.19
293.449	213.19
293.68	214.19
293.91	221.19
294.141	221.19
294.372	214.19
294.603	221.19
294.833	228.19
295.064	217.19
295.295	221.19
295.525	229.19
295.756	225.19
295.987	246.19
296.217	245.19
296.448	226.19
296.679	232.19
296.909	234.19
297.14	215.19
297.37	231.19
297.601	231.19
297.831	230.19
298.062	222.19
298.292	218.19
298.523	208.19
298.753	228.19
298.984	225.19
299.214	217.19
299.445	238.19
299.675	235.19
299.905	223.19
300.136	237.19
300.366	235.19
300.597	220.19
300.827	232.19
301.057	220.19
301.288	239.19
301.518	231.19
301.748	232.19
301.979	253.19
302.209	227.19
302.439	234.19
302.669	241.19
302.9	230.19
303.13	245.19
303.36	242.19
303.59	262.19
303.82	255.19
304.051	266.19
304.281	237.19
304.511	229.19
304.741	244.19
304.971	234.19
305.201	255.19
305.431	249.19
305.661	246.19
305.891	260.19
306.121	249.19
306.352	239.19
306.582	281.19
306.812	248.19
307.042	256.19
307.272	251.19
307.502	251.19
307.731	249.19
307.961	250.19
308.191	243.19
308.421	241.19
308.651	254.19
308.881	239.19
309.111	236.19
309.341	243.19
309.571	265.19
309.8	291.19
310.03	273.19
310.26	286.19
310.49	280.19
310.72	293.19
310.949	292.19
311.179	281.19
311.409	309.19
311.639	289.19
311.868	298.19
312.098	293.19
312.328	285.19
312.557	304.19
312.787	322.19
313.017	297.19
313.246	300.19
313.476	269.19
313.706	281.19
313.935	284.19
314.165	305.19
314.394	301.19
314.624	301.19
314.853	315.19
315.083	297.19
315.312	282.19
315.542	293.19
315.771	279.19
316.001	266.19
316.23	266.19
316.46	280.19
316.689	281.19
316.919	284.19
317.148	283.19
317.377	302.19
317.607	299.19
317.836	279.19
318.065	290.19
318.295	290.19
318.524	278.19
318.753	284.19
318.983	298.19
319.212	265.19
319.441	296.19
319.67	279.19
319.9	298.19
320.129	275.19
320.358	277.19
320.587	292.19
320.816	303.19
321.046	319.19
321.275	318.19
321.504	288.19
321.733	321.19
321.962	309.19
322.191	301.19
322.42	328.19
322.649	337.19
322.878	345.19
323.108	358.19
323.337	363.19
323.566	394.19
323.795	438.19
324.024	499.19
324.253	606.19
324.482	889.19
324.71	1333.19
324.939	1745.19
325.168	1397.19
325.397	733.19
325.626	523.19
325.855	422.19
326.084	393.19
326.313	388.19
326.542	406.19
326.77	454.19
326.999	563.19
327.228	767.19
327.457	1114.19
327.686	1293.19
327.914	827.19
328.143	550.19
328.372	495.19
328.6	458.19
328.829	449.19
329.058	460.19
329.287	478.19
329.515	414.19
329.744	411.19
329.972	399.19
330.201	398.19
330.43	445.19
330.658	456.19
330.887	476.19
331.115	454.19
331.344	393.19
331.572	379.19
331.801	361.19
332.03	375.19
332.258	337.19
332.486	337.19
332.715	334.19
332.943	331.19
333.172	329.19
333.4	323.19
333.629	339.19
333.857	341.19
334.085	348.19
334.314	366.19
334.542	400.19
334.771	398.19
334.999	349.19
335.227	329.19
335.455	325.19
335.684	333.19
335.912	315.19
336.14	315.19
336.369	322.19
336.597	337.19
336.825	328.19
337.053	322.19
337.281	318.19
337.51	315.19
337.738	325.19
337.966	290.19
338.194	317.19
338.422	321.19
338.65	319.19
338.878	323.19
339.106	323.19
339.334	323.19
339.562	307.19
339.79	325.19
340.018	316.19
340.246	320.19
340.474	330.19
340.702	323.19
340.93	310.19
341.158	291.19
341.386	307.19
341.614	307.19
341.842	322.19
342.07	315.19
342.298	302.19
342.526	307.19
342.754	287.19
342.981	305.19
343.209	310.19
343.437	286.19
343.665	297.19
343.893	303.19
344.12	306.19
344.348	297.19
344.576	302.19
344.804	313.19
345.031	309.19
345.259	317.19
345.487	331.19
345.714	310.19
345.942	305.19
346.17	298.19
346.397	302.19
346.625	309.19
346.853	301.19
347.08	307.19
347.308	313.19
347.535	317.19
347.763	302.19
347.99	315.19
348.218	310.19
348.445	303.19
348.673	317.19
348.9	308.19
349.128	299.19
349.355	307.19
349.583	282.19
349.81	293.19
350.037	294.19
350.265	285.19
350.492	281.19
350.72	294.19
350.947	299.19
351.174	307.19
351.402	318.19
351.629	300.19
351.856	307.19
352.083	323.19
352.311	313.19
352.538	316.19
352.765	312.19
352.992	311.19
353.22	296.19
353.447	309.19
353.674	305.19
353.901	305.19
354.128	294.19
354.355	271.19
354.583	270.19
354.81	267.19
355.037	270.19
355.264	261.19
355.491	264.19
355.718	270.19
355.945	285.19
356.172	274.19
356.399	295.19
356.626	246.19
356.853	259.19
357.08	266.19
357.307	262.19
357.534	276.19
357.761	278.19
357.988	289.19
358.215	283.19
358.441	272.19
358.668	282.19
358.895	259.19
359.122	266.19
359.349	270.19
359.576	306.19
359.802	319.19
360.029	331.19
360.256	355.19
360.483	313.19
360.709	293.19
360.936	297.19
361.163	307.19
361.39	289.19
361.616	299.19
361.843	283.19
362.07	309.19
362.296	297.19
362.523	296.19
362.749	302.19
362.976	278.19
363.203	294.19
363.429	278.19
363.656	282.19
363.882	276.19
364.109	265.19
364.335	273.19
364.562	258.19
364.788	273.19
365.015	277.19
365.241	279.19
365.468	267.19
365.694	280.19
365.92	283.19
366.147	279.19
366.373	260.19
366.599	257.19
366.826	261.19
367.052	263.19
367.278	262.19
367.505	280.19
367.731	282.19
367.957	281.19
368.184	277.19
368.41	291.19
368.636	290.19
368.862	267.19
369.089	289.19
369.315	293.19
369.541	259.19
369.767	257.19
369.993	245.19
370.219	259.19
370.445	256.19
370.672	271.19
370.898	263.19
371.124	251.19
371.35	282.19
371.576	260.19
371.802	269.19
372.028	273.19
372.254	266.19
372.48	273.19
372.706	273.19
372.932	282.19
373.158	268.19
373.384	278.19
373.61	261.19
373.835	251.19
374.061	265.19
374.287	281.19
374.513	268.19
374.739	277.19
374.965	265.19
375.191	262.19
375.416	270.19
375.642	265.19
375.868	265.19
376.094	268.19
376.319	274.19
376.545	261.19
376.771	251.19
376.997	265.19
377.222	262.19
377.448	263.19
377.674	260.19
377.899	267.19
378.125	269.19
378.35	273.19
378.576	271.19
378.802	234.19
379.027	267.19
379.253	274.19
379.478	259.19
379.704	261.19
379.929	254.19
380.155	256.19
380.38	243.19
380.606	279.19
380.831	266.19
381.057	281.19
381.282	267.19
381.507	267.19
381.733	247.19
381.958	244.19
382.184	264.19
382.409	263.19
382.634	261.19
382.86	276.19
383.085	265.19
383.31	275.19
383.535	279.19
383.761	292.19
383.986	260.19
384.211	267.19
384.436	273.19
384.662	281.19
384.887	278.19
385.112	276.19
385.337	273.19
385.562	266.19
385.787	275.19
386.013	278.19
386.238	288.19
386.463	275.19
386.688	275.19
386.913	268.19
387.138	268.19
387.363	264.19
387.588	256.19
387.813	282.19
388.038	287.19
388.263	277.19
388.488	281.19
388.713	261.19
388.938	278.19
389.163	258.19
389.387	267.19
389.612	267.19
389.837	267.19
390.062	277.19
390.287	273.19
390.512	266.19
390.736	284.19
390.961	294.19
391.186	270.19
391.411	284.19
391.636	261.19
391.86	249.19
392.085	267.19
392.31	271.19
392.534	270.19
392.759	273.19
392.984	289.19
393.208	285.19
393.433	284.19
393.658	276.19
393.882	293.19
394.107	273.19
394.331	269.19
394.556	280.19
394.78	276.19
395.005	262.19
395.229	262.19
395.454	265.19
395.678	278.19
395.903	295.19
396.127	299.19
396.352	297.19
396.576	297.19
396.801	271.19
397.025	289.19
397.249	294.19
397.474	321.19
397.698	279.19
397.922	304.19
398.147	292.19
398.371	313.19
398.595	286.19
398.82	300.19
399.044	310.19
399.268	318.19
399.492	298.19
399.717	347.19
399.941	341.19
400.165	357.19
400.389	360.19
400.613	339.19
400.837	325.19
401.062	312.19
401.286	311.19
401.51	305.19
401.734	302.19
401.958	304.19
402.182	307.19
402.406	314.19
402.63	328.19
402.854	287.19
403.078	305.19
403.302	298.19
403.526	313.19
403.75	301.19
403.974	293.19
404.198	306.19
404.422	321.19
404.645	317.19
404.869	346.19
405.093	333.19
405.317	372.19
405.541	376.19
405.765	333.19
405.988	336.19
406.212	340.19
406.436	349.19
406.66	365.19
406.883	333.19
407.107	342.19
407.331	380.19
407.555	403.19
407.778	386.19
408.002	367.19
408.226	352.19
408.449	348.19
408.673	341.19
408.896	341.19
409.12	396.19
409.344	372.19
409.567	329.19
409.791	315.19
410.014	309.19
410.238	314.19
410.461	333.19
410.685	327.19
410.908	340.19
411.132	348.19
411.355	364.19
411.578	347.19
411.802	338.19
412.025	318.19
412.249	316.19
412.472	338.19
412.695	335.19
412.919	358.19
413.142	323.19
413.365	310.19
413.589	313.19
413.812	286.19
414.035	296.19
414.258	300.19
414.482	296.19
414.705	290.19
414.928	281.19
415.151	278.19
415.374	297.19
415.597	281.19
415.821	307.19
416.044	289.19
416.267	282.19
416.49	297.19
416.713	297.19
416.936	305.19
417.159	289.19
417.382	287.19
417.605	297.19
417.828	305.19
418.051	325.19
418.274	306.19
418.497	287.19
418.72	299.19
418.943	308.19
419.166	289.19
419.389	305.19
419.611	307.19
419.834	345.19
420.057	312.19
420.28	325.19
420.503	314.19
420.726	329.19
420.948	314.19
421.171	340.19
421.394	340.19
421.617	318.19
421.839	321.19
422.062	305.19
422.285	318.19
422.507	343.19
422.73	409.19
422.953	389.19
423.175	350.19
423.398	336.19
423.621	310.19
423.843	306.19
424.066	343.19
424.288	314.19
424.511	372.19
424.733	383.19
424.956	424.19
425.178	418.19
425.401	413.19
425.623	415.19
425.846	378.19
426.068	353.19
426.291	333.19
426.513	346.19
426.735	351.19
426.958	385.19
427.18	425.19
427.402	515.19
427.625	566.19
427.847	500.19
428.069	439.19
428.292	372.19
428.514	340.19
428.736	341.19
428.958	323.19
429.181	329.19
429.403	320.19
429.625	301.19
429.847	318.19
430.069	391.19
430.292	383.19
430.514	341.19
430.736	323.19
430.958	327.19
431.18	314.19
431.402	309.19
431.624	324.19
431.846	291.19
432.068	285.19
432.29	281.19
432.512	311.19
432.734	321.19
432.956	311.19
433.178	303.19
433.4	310.19
433.622	307.19
433.844	313.19
434.066	274.19
434.287	290.19
434.509	307.19
434.731	300.19
434.953	308.19
435.175	317.19
435.397	332.19
435.618	333.19
435.84	385.19
436.062	437.19
436.284	469.19
436.505	366.19
436.727	333.19
436.949	334.19
437.17	310.19
437.392	324.19
437.614	351.19
437.835	375.19
438.057	422.19
438.278	474.19
438.5	466.19
438.721	506.19
438.943	481.19
439.165	387.19
439.386	354.19
439.608	369.19
439.829	357.19
440.05	388.19
440.272	395.19
440.493	367.19
440.715	334.19
440.936	325.19
441.158	315.19
441.379	318.19
441.6	333.19
441.822	352.19
442.043	373.19
442.264	405.19
442.486	425.19
442.707	380.19
442.928	374.19
443.149	368.19
443.371	372.19
443.592	394.19
443.813	458.19
444.034	478.19
444.255	399.19
444.476	361.19
444.698	348.19
444.919	326.19
445.14	429.19
445.361	387.19
445.582	411.19
445.803	408.19
446.024	476.19
446.245	478.19
446.466	434.19
446.687	377.19
446.908	332.19
447.129	339.19
447.35	333.19
447.571	295.19
447.792	305.19
448.013	325.19
448.234	357.19
448.455	372.19
448.675	425.19
448.896	487.19
449.117	420.19
449.338	416.19
449.559	475.19
449.779	501.19
450	416.19
450.221	347.19
450.442	343.19
450.662	311.19
450.883	326.19
451.104	324.19
451.324	316.19
451.545	294.19
451.766	280.19
451.986	297.19
452.207	281.19
452.428	285.19
452.648	276.19
452.869	294.19
453.089	298.19
453.31	315.19
453.53	301.19
453.751	299.19
453.971	320.19
454.192	316.19
454.412	292.19
454.633	285.19
454.853	297.19
455.073	293.19
455.294	308.19
455.514	338.19
455.734	331.19
455.955	293.19
456.175	266.19
456.395	265.19
456.616	271.19
456.836	271.19
457.056	270.19
457.276	265.19
457.497	265.19
457.717	271.19
457.937	276.19
458.157	283.19
458.377	283.19
458.598	290.19
458.818	333.19
459.038	383.19
459.258	379.19
459.478	326.19
459.698	320.19
459.918	297.19
460.138	303.19
460.358	290.19
460.578	293.19
460.798	293.19
461.018	297.19
461.238	287.19
461.458	295.19
461.678	297.19
461.898	290.19
462.118	279.19
462.338	283.19
462.558	304.19
462.777	287.19
462.997	296.19
463.217	291.19
463.437	304.19
463.657	299.19
463.876	335.19
464.096	298.19
464.316	285.19
464.536	311.19
464.755	308.19
464.975	334.19
465.195	363.19
465.414	365.19
465.634	356.19
465.854	332.19
466.073	294.19
466.293	289.19
466.512	295.19
466.732	301.19
466.951	301.19
467.171	278.19
467.391	293.19
467.61	308.19
467.829	305.19
468.049	293.19
468.268	293.19
468.488	276.19
468.707	277.19
468.927	276.19
469.146	276.19
469.365	269.19
469.585	275.19
469.804	301.19
470.023	308.19
470.243	306.19
470.462	313.19
470.681	309.19
470.901	292.19
471.12	297.19
471.339	298.19
471.558	300.19
471.777	299.19
471.997	302.19
472.216	295.19
472.435	318.19
472.654	331.19
472.873	311.19
473.092	287.19
473.311	281.19
473.53	287.19
473.749	295.19
473.968	322.19
474.187	423.19
474.406	409.19
474.625	349.19
474.844	313.19
475.063	311.19
475.282	290.19
475.501	297.19
475.72	316.19
475.939	310.19
476.158	305.19
476.377	300.19
476.596	330.19
476.814	321.19
477.033	316.19
477.252	298.19
477.471	297.19
477.69	289.19
477.908	294.19
478.127	314.19
478.346	304.19
478.564	312.19
478.783	313.19
479.002	328.19
479.22	321.19
479.439	339.19
479.658	350.19
479.876	355.19
480.095	354.19
480.313	352.19
480.532	366.19
480.751	353.19
480.969	353.19
481.188	399.19
481.406	430.19
481.624	387.19
481.843	369.19
482.061	359.19
482.28	367.19
482.498	338.19
482.717	326.19
482.935	341.19
483.153	319.19
483.372	340.19
483.59	344.19
483.808	326.19
484.027	338.19
484.245	329.19
484.463	319.19
484.681	345.19
484.9	343.19
485.118	349.19
485.336	342.19
485.554	358.19
485.772	335.19
485.99	347.19
486.209	369.19
486.427	358.19
486.645	342.19
486.863	356.19
487.081	355.19
487.299	344.19
487.517	375.19
487.735	378.19
487.953	357.19
488.171	371.19
488.389	356.19
488.607	369.19
488.825	385.19
489.043	364.19
489.261	360.19
489.479	373.19
489.696	363.19
489.914	364.19
490.132	361.19
490.35	375.19
490.568	372.19
490.786	414.19
491.003	398.19
491.221	401.19
491.439	383.19
491.657	412.19
491.874	407.19
492.092	414.19
492.31	421.19
492.527	403.19
492.745	429.19
492.963	433.19
493.18	409.19
493.398	420.19
493.615	429.19
493.833	421.19
494.05	437.19
494.268	419.19
494.485	418.19
494.703	429.19
494.92	413.19
495.138	437.19
495.355	404.19
495.573	437.19
495.79	424.19
496.008	439.19
496.225	409.19
496.442	429.19
496.66	436.19
496.877	414.19
497.094	430.19
497.312	413.19
497.529	435.19
497.746	442.19
497.963	430.19
498.181	459.19
498.398	448.19
498.615	436.19
498.832	461.19
499.049	459.19
499.267	468.19
499.484	478.19
499.701	486.19
499.918	492.19
500.135	511.19
500.352	525.19
500.569	510.19
500.786	517.19
501.003	515.19
501.22	487.19
501.437	489.19
501.654	517.19
501.871	507.19
502.088	482.19
502.305	478.19
502.522	462.19
502.739	466.19
502.956	467.19
503.172	445.19
503.389	441.19
503.606	427.19
503.823	445.19
504.04	446.19
504.256	418.19
504.473	426.19
504.69	417.19
504.907	429.19
505.123	417.19
505.34	420.19
505.557	414.19
505.773	419.19
505.99	411.19
506.207	430.19
506.423	394.19
506.64	414.19
506.856	383.19
507.073	402.19
507.289	399.19
507.506	407.19
507.722	426.19
507.939	451.19
508.155	409.19
508.372	393.19
508.588	381.19
508.805	386.19
509.021	377.19
509.238	398.19
509.454	418.19
509.67	402.19
509.887	409.19
510.103	415.19
510.319	395.19
510.536	467.19
510.752	771.19
510.968	631.19
511.184	425.19
511.401	379.19
511.617	412.19
511.833	380.19
512.049	373.19
512.265	383.19
512.481	375.19
512.698	381.19
512.914	375.19
513.13	375.19
513.346	383.19
513.562	370.19
513.778	387.19
513.994	386.19
514.21	398.19
514.426	422.19
514.642	454.19
514.858	441.19
515.074	503.19
515.29	606.19
515.506	851.19
515.721	701.19
515.937	481.19
516.153	453.19
516.369	421.19
516.585	403.19
516.801	396.19
517.016	381.19
517.232	383.19
517.448	377.19
517.664	387.19
517.879	369.19
518.095	376.19
518.311	399.19
518.527	377.19
518.742	392.19
518.958	366.19
519.173	391.19
519.389	371.19
519.605	371.19
519.82	386.19
520.036	392.19
520.251	397.19
520.467	447.19
520.682	430.19
520.898	417.19
521.113	436.19
521.329	490.19
521.544	561.19
521.76	685.19
521.975	1177.19
522.19	1098.19
522.406	629.19
522.621	466.19
522.836	419.19
523.052	381.19
523.267	380.19
523.482	356.19
523.698	372.19
523.913	351.19
524.128	369.19
524.343	331.19
524.559	339.19
524.774	335.19
524.989	334.19
525.204	343.19
525.419	339.19
525.634	300.19
525.849	329.19
526.064	321.19
526.28	311.19
526.495	321.19
526.71	332.19
526.925	306.19
527.14	306.19
527.355	315.19
527.57	322.19
527.785	302.19
527.999	318.19
528.214	301.19
528.429	309.19
528.644	316.19
528.859	314.19
529.074	307.19
529.289	317.19
529.503	390.19
529.718	371.19
529.933	323.19
530.148	340.19
530.363	315.19
530.577	308.19
530.792	315.19
531.007	302.19
531.221	309.19
531.436	285.19
531.651	283.19
531.865	297.19
532.08	306.19
532.295	280.19
532.509	283.19
532.724	309.19
532.938	289.19
533.153	289.19
533.367	294.19
533.582	302.19
533.796	295.19
534.011	293.19
534.225	285.19
534.44	274.19
534.654	287.19
534.868	283.19
535.083	297.19
535.297	283.19
535.511	302.19
535.726	301.19
535.94	293.19
536.154	296.19
536.369	309.19
536.583	286.19
536.797	292.19
537.011	285.19
537.225	273.19
537.44	277.19
537.654	280.19
537.868	286.19
538.082	301.19
538.296	283.19
538.51	275.19
538.724	293.19
538.938	292.19
539.153	285.19
539.367	298.19
539.581	299.19
539.795	271.19
540.009	274.19
540.222	295.19
540.436	297.19
540.65	290.19
540.864	289.19
541.078	299.19
541.292	300.19
541.506	291.19
541.72	279.19
541.934	300.19
542.147	307.19
542.361	281.19
542.575	279.19
542.789	262.19
543.002	285.19
543.216	292.19
543.43	291.19
543.644	308.19
543.857	301.19
544.071	284.19
544.285	272.19
544.498	284.19
544.712	288.19
544.925	291.19
545.139	303.19
545.352	276.19
545.566	284.19
545.779	280.19
545.993	269.19
546.206	280.19
546.42	271.19
546.633	292.19
546.847	273.19
547.06	263.19
547.274	263.19
547.487	270.19
547.7	291.19
547.914	261.19
548.127	286.19
548.34	263.19
548.554	275.19
548.767	270.19
548.98	280.19
549.193	254.19
549.407	271.19
549.62	271.19
549.833	253.19
550.046	261.19
550.259	265.19
550.473	262.19
550.686	261.19
550.899	269.19
551.112	268.19
551.325	267.19
551.538	264.19
551.751	247.19
551.964	261.19
552.177	268.19
552.39	263.19
552.603	269.19
552.816	277.19
553.029	266.19
553.242	268.19
553.455	281.19
553.667	261.19
553.88	270.19
554.093	271.19
554.306	275.19
554.519	259.19
554.732	277.19
554.944	263.19
555.157	277.19
555.37	261.19
555.583	262.19
555.795	259.19
556.008	267.19
556.221	246.19
556.433	251.19
556.646	256.19
556.859	266.19
557.071	255.19
557.284	242.19
557.496	237.19
557.709	234.19
557.921	239.19
558.134	231.19
558.346	244.19
558.559	226.19
558.771	240.19
558.984	257.19
559.196	239.19
559.409	223.19
559.621	229.19
559.833	242.19
560.046	228.19
560.258	236.19
560.47	241.19
560.683	236.19
560.895	236.19
561.107	253.19
561.32	246.19
561.532	243.19
561.744	239.19
561.956	249.19
562.168	237.19
562.381	227.19
562.593	234.19
562.805	238.19
563.017	231.19
563.229	236.19
563.441	254.19
563.653	234.19
563.865	233.19
564.077	242.19
564.289	235.19
564.501	257.19
564.713	265.19
564.925	244.19
565.137	253.19
565.349	245.19
565.561	243.19
565.773	244.19
565.985	244.19
566.197	261.19
566.408	261.19
566.62	274.19
566.832	251.19
567.044	253.19
567.255	249.19
567.467	266.19
567.679	275.19
567.891	277.19
568.102	263.19
568.314	277.19
568.526	259.19
568.737	250.19
568.949	242.19
569.161	237.19
569.372	234.19
569.584	257.19
569.795	245.19
570.007	227.19
570.218	279.19
570.43	258.19
570.641	257.19
570.853	229.19
571.064	233.19
571.276	238.19
571.487	222.19
571.698	223.19
571.91	216.19
572.121	229.19
572.333	219.19
572.544	224.19
572.755	234.19
572.966	222.19
573.178	204.19
573.389	204.19
573.6	215.19
573.811	201.19
574.023	221.19
574.234	195.19
574.445	215.19
574.656	219.19
574.867	213.19
575.078	198.19
575.289	221.19
575.501	210.19
575.712	197.19
575.923	218.19
576.134	203.19
576.345	201.19
576.556	229.19
576.767	214.19
576.978	219.19
577.188	202.19
577.399	215.19
577.61	204.19
577.821	207.19
578.032	216.19
578.243	238.19
578.454	402.19
578.665	309.19
578.875	216.19
579.086	194.19
579.297	216.19
579.508	207.19
579.718	205.19
579.929	194.19
580.14	201.19
580.35	194.19
580.561	200.19
580.772	224.19
580.982	206.19
581.193	211.19
581.403	211.19
581.614	194.19
581.825	200.19
582.035	200.19
582.246	192.19
582.456	184.19
582.667	202.19
582.877	205.19
583.087	214.19
583.298	194.19
583.508	207.19
583.719	207.19
583.929	193.19
584.139	179.19
584.35	193.19
584.56	174.19
584.77	197.19
584.981	201.19
585.191	204.19
585.401	208.19
585.611	185.19
585.821	205.19
586.032	185.19
586.242	196.19
586.452	195.19
586.662	194.19
586.872	178.19
587.082	204.19
587.292	169.19
587.502	198.19
587.713	205.19
587.923	191.19
588.133	202.19
588.343	161.19
588.553	174.19
588.762	165.19
588.972	174.19
589.182	173.19
589.392	182.19
589.602	192.19
589.812	190.19
590.022	195.19
590.232	189.19
590.441	195.19
590.651	197.19
590.861	199.19
591.071	197.19
591.281	181.19
591.49	181.19
591.7	207.19
591.91	188.19
592.119	182.19
592.329	198.19
592.539	197.19
592.748	186.19
592.958	196.19
593.167	198.19
593.377	185.19
593.587	206.19
593.796	195.19
594.006	193.19
594.215	187.19
594.424	174.19
594.634	190.19
594.843	173.19
595.053	183.19
595.262	189.19
595.472	195.19
595.681	198.19
595.89	204.19
596.1	181.19
596.309	195.19
596.518	197.19
596.727	185.19
596.937	194.19
597.146	176.19
597.355	171.19
597.564	191.19
597.774	169.19
597.983	178.19
598.192	184.19
598.401	182.19
598.61	166.19
598.819	163.19
599.028	181.19
599.237	189.19
599.446	165.19
599.655	179.19
599.864	190.19
600.073	166.19
600.282	171.19
600.491	165.19
600.7	168.19
600.909	168.19
601.118	173.19
601.327	186.19
601.536	163.19
601.745	169.19
601.953	175.19
602.162	174.19
602.371	172.19
602.58	177.19
602.789	180.19
602.997	166.19
603.206	167.19
603.415	164.19
603.623	177.19
603.832	151.19
604.041	177.19
604.249	172.19
604.458	152.19
604.666	166.19
604.875	170.19
605.084	170.19
605.292	166.19
605.501	158.19
605.709	155.19
605.918	152.19
606.126	180.19
606.334	158.19
606.543	172.19
606.751	162.19
606.96	163.19
607.168	156.19
607.376	164.19
607.585	166.19
607.793	168.19
608.001	167.19
608.21	164.19
608.418	169.19
608.626	161.19
608.834	168.19
609.043	155.19
609.251	161.19
609.459	160.19
609.667	158.19
609.875	159.19
610.083	175.19
610.291	171.19
610.499	152.19
610.707	160.19
610.916	150.19
611.124	190.19
611.332	171.19
611.54	168.19
611.748	173.19
611.955	157.19
612.163	174.19
612.371	155.19
612.579	165.19
612.787	151.19
612.995	178.19
613.203	161.19
613.411	159.19
613.618	169.19
613.826	168.19
614.034	159.19
614.242	162.19
614.449	154.19
614.657	151.19
614.865	159.19
615.072	174.19
615.28	165.19
615.488	168.19
615.695	159.19
615.903	141.19
616.111	155.19
616.318	159.19
616.526	165.19
616.733	164.19
616.941	161.19
617.148	167.19
617.356	160.19
617.563	165.19
617.771	174.19
617.978	165.19
618.185	155.19
618.393	150.19
618.6	164.19
618.807	163.19
619.015	157.19
619.222	159.19
619.429	166.19
619.637	169.19
619.844	157.19
620.051	161.19
620.258	151.19
620.466	147.19
620.673	157.19
620.88	167.19
621.087	160.19
621.294	147.19
621.501	169.19
621.708	153.19
621.915	149.19
622.122	162.19
622.329	157.19
622.536	152.19
622.743	147.19
622.95	161.19
623.157	166.19
623.364	163.19
623.571	159.19
623.778	140.19
623.985	149.19
624.192	148.19
624.399	143.19
624.606	149.19
624.812	171.19
625.019	136.19
625.226	142.19
625.433	154.19
625.639	156.19
625.846	149.19
626.053	142.19
626.259	161.19
626.466	155.19
626.673	146.19
626.879	139.19
627.086	162.19
627.293	154.19
627.499	157.19
627.706	152.19
627.912	140.19
628.119	141.19
628.325	154.19
628.532	139.19
628.738	145.19
628.945	144.19
629.151	142.19
629.357	148.19
629.564	156.19
629.77	151.19
629.976	145.19
630.183	139.19
630.389	150.19
630.595	139.19
630.802	137.19
631.008	157.19
631.214	145.19
631.42	137.19
631.627	157.19
631.833	142.19
632.039	138.19
632.245	144.19
632.451	119.19
632.657	135.19
632.863	141.19
633.069	118.19
633.275	137.19
633.481	138.19
633.688	137.19
633.893	144.19
634.099	142.19
634.305	145.19
634.511	125.19
634.717	131.19
634.923	145.19
635.129	133.19
635.335	124.19
635.541	133.19
635.747	129.19
635.952	125.19
636.158	139.19
636.364	137.19
636.57	143.19
636.775	131.19
636.981	136.19
637.187	163.19
637.392	143.19
637.598	123.19
637.804	137.19
638.009	133.19
638.215	129.19
638.421	138.19
638.626	133.19
638.832	139.19
639.037	139.19
639.243	129.19
639.448	131.19
639.654	138.19
639.859	129.19
640.065	135.19
640.27	145.19
640.475	143.19
640.681	125.19
640.886	126.19
641.091	122.19
641.297	117.19
641.502	126.19
641.707	118.19
641.913	138.19
642.118	131.19
642.323	140.19
642.528	139.19
642.733	115.19
642.939	131.19
643.144	126.19
643.349	132.19
643.554	127.19
643.759	115.19
643.964	127.19
644.169	124.19
644.374	135.19
644.579	126.19
644.784	130.19
644.989	123.19
645.194	129.19
645.399	135.19
645.604	123.19
645.809	138.19
646.014	135.19
646.219	120.19
646.423	123.19
646.628	123.19
646.833	130.19
647.038	108.19
647.243	135.19
647.447	126.19
647.652	116.19
647.857	134.19
648.062	132.19
648.266	129.19
648.471	126.19
648.676	136.19
648.88	117.19
649.085	126.19
649.289	123.19
649.494	123.19
649.698	149.19
649.903	144.19
650.107	133.19
650.312	137.19
650.516	119.19
650.721	132.19
650.925	137.19
651.13	129.19
651.334	126.19
651.539	122.19
651.743	126.19
651.947	117.19
652.152	114.19
652.356	114.19
652.56	127.19
652.764	113.19
652.969	117.19
653.173	105.19
653.377	129.19
653.581	125.19
653.785	123.19
653.99	108.19
654.194	103.19
654.398	107.19
654.602	113.19
654.806	119.19
655.01	119.19
655.214	121.19
655.418	104.19
655.622	117.19
655.826	127.19
656.03	118.19
656.234	107.19
656.438	115.19
656.642	122.19
656.846	122.19
657.049	111.19
657.253	115.19
657.457	100.19
657.661	102.19
657.865	98.19
658.068	106.19
658.272	104.19
658.476	105.19
658.68	94.19
658.883	96.19
659.087	105.19
659.291	89.19
659.494	100.19
659.698	95.19
659.901	91.19
660.105	89.19
660.309	85.19
660.512	89.19
660.716	76.19
660.919	91.19
661.123	109.19
661.326	86.19
661.53	91.19
661.733	100.19
661.936	89.19
662.14	85.19
662.343	81.19
662.546	78.19
662.75	84.19
662.953	97.19
663.156	85.19
663.36	88.19
663.563	76.19
663.766	75.19
663.969	78.19
664.173	87.19
664.376	82.19
664.579	75.19
664.782	73.19
664.985	71.19
665.188	78.19
665.391	91.19
665.594	101.19
665.797	86.19
666	83.19
666.203	78.19
666.406	67.19
666.609	83.19
666.812	78.19
667.015	85.19
667.218	82.19
667.421	81.19
667.624	99.19
667.827	81.19
668.03	90.19
668.232	83.19
668.435	75.19
668.638	83.19
668.841	77.19
669.043	91.19
669.246	81.19
669.449	91.19
669.651	85.19
669.854	74.19
670.057	73.19
670.259	87.19
670.462	89.19
670.665	71.19
670.867	84.19
671.07	71.19
671.272	87.19
671.475	82.19
671.677	82.19
671.88	78.19
672.082	78.19
672.284	85.19
672.487	101.19
672.689	74.19
672.892	77.19
