Data from 1982.PennyLincolnUp.Lamp.En5.5.200Scan.071819.P1_HRD10591_16-46-54-962.txt Node
Date: Thu Jul 18 16:46:54 EDT 2019
User: cochatt
Spectrometer: HR+D1059
Trigger mode: 1
Integration Time (sec): 1.000000E-1
Scans to average: 1
Electric dark correction enabled: true
Nonlinearity correction enabled: false
Boxcar width: 0
XAxis mode: Wavelengths
Number of Pixels in Spectrum: 2048
>>>>>Begin Spectral Data<<<<<
223.165	-3
223.4	-3
223.635	-3
223.869	-7
224.104	-17
224.338	-9
224.573	-21
224.808	-14
225.042	4
225.277	-13
225.511	-3
225.746	16
225.98	-5
226.215	10
226.449	5
226.683	9
226.918	15
227.152	33
227.387	55
227.621	39
227.856	44
228.09	64
228.324	44
228.559	59
228.793	65
229.027	85
229.262	96
229.496	103
229.73	117
229.964	126
230.199	106
230.433	102
230.667	95
230.901	99
231.136	105
231.37	107
231.604	100
231.838	112
232.072	114
232.306	100
232.541	107
232.775	95
233.009	106
233.243	106
233.477	92
233.711	113
233.945	99
234.179	107
234.413	101
234.647	93
234.881	83
235.115	111
235.349	117
235.583	121
235.817	114
236.051	104
236.285	106
236.519	111
236.753	125
236.987	129
237.221	154
237.455	169
237.689	154
237.922	122
238.156	123
238.39	106
238.624	108
238.858	110
239.091	108
239.325	120
239.559	108
239.793	115
240.027	118
240.26	116
240.494	143
240.728	127
240.961	143
241.195	117
241.429	128
241.662	131
241.896	122
242.13	130
242.363	126
242.597	109
242.83	116
243.064	131
243.298	145
243.531	127
243.765	127
243.998	120
244.232	106
244.465	128
244.699	124
244.932	133
245.166	127
245.399	127
245.633	121
245.866	104
246.099	122
246.333	108
246.566	127
246.8	109
247.033	125
247.266	130
247.5	139
247.733	139
247.966	156
248.2	155
248.433	154
248.666	149
248.899	155
249.133	173
249.366	166
249.599	175
249.832	162
250.066	171
250.299	162
250.532	154
250.765	169
250.998	181
251.231	193
251.465	164
251.698	165
251.931	168
252.164	160
252.397	159
252.63	173
252.863	169
253.096	180
253.329	194
253.562	172
253.795	191
254.028	185
254.261	183
254.494	194
254.727	213
254.96	221
255.193	235
255.426	197
255.659	186
255.892	191
256.124	203
256.357	211
256.59	182
256.823	186
257.056	170
257.289	172
257.521	174
257.754	181
257.987	183
258.22	162
258.452	182
258.685	189
258.918	168
259.151	167
259.383	185
259.616	188
259.849	189
260.081	199
260.314	200
260.547	206
260.779	201
261.012	189
261.244	200
261.477	183
261.71	182
261.942	198
262.175	188
262.407	187
262.64	186
262.872	174
263.105	179
263.337	169
263.57	178
263.802	174
264.035	173
264.267	183
264.499	161
264.732	170
264.964	179
265.197	175
265.429	186
265.661	188
265.894	191
266.126	189
266.358	183
266.591	179
266.823	189
267.055	182
267.287	182
267.52	173
267.752	186
267.984	186
268.216	196
268.448	192
268.681	199
268.913	207
269.145	232
269.377	227
269.609	200
269.841	224
270.073	227
270.306	241
270.538	247
270.77	260
271.002	255
271.234	226
271.466	254
271.698	250
271.93	251
272.162	276
272.394	252
272.626	244
272.858	231
273.09	231
273.322	227
273.553	227
273.785	227
274.017	211
274.249	213
274.481	230
274.713	209
274.945	227
275.176	231
275.408	228
275.64	213
275.872	208
276.104	203
276.335	200
276.567	217
276.799	239
277.031	250
277.262	259
277.494	266
277.726	235
277.957	239
278.189	220
278.421	203
278.652	218
278.884	219
279.115	219
279.347	212
279.579	214
279.81	222
280.042	198
280.273	227
280.505	211
280.736	208
280.968	220
281.199	201
281.431	221
281.662	219
281.894	215
282.125	223
282.356	227
282.588	254
282.819	232
283.051	239
283.282	215
283.513	220
283.745	227
283.976	230
284.207	229
284.439	221
284.67	221
284.901	219
285.132	223
285.364	215
285.595	215
285.826	230
286.057	214
286.288	218
286.52	219
286.751	225
286.982	207
287.213	221
287.444	234
287.675	224
287.906	227
288.138	239
288.369	234
288.6	239
288.831	222
289.062	234
289.293	230
289.524	234
289.755	238
289.986	234
290.217	219
290.448	232
290.679	230
290.91	227
291.141	223
291.371	231
291.602	218
291.833	220
292.064	214
292.295	233
292.526	237
292.757	226
292.987	220
293.218	226
293.449	228
293.68	229
293.91	221
294.141	212
294.372	217
294.603	215
294.833	206
295.064	218
295.295	223
295.525	239
295.756	231
295.987	243
296.217	242
296.448	253
296.679	239
296.909	232
297.14	217
297.37	234
297.601	232
297.831	229
298.062	240
298.292	238
298.523	244
298.753	236
298.984	239
299.214	249
299.445	234
299.675	229
299.905	250
300.136	268
300.366	248
300.597	261
300.827	247
301.057	258
301.288	244
301.518	253
301.748	259
301.979	243
302.209	248
302.439	247
302.669	254
302.9	260
303.13	225
303.36	261
303.59	256
303.82	256
304.051	271
304.281	247
304.511	272
304.741	253
304.971	262
305.201	258
305.431	247
305.661	257
305.891	271
306.121	267
306.352	269
306.582	270
306.812	259
307.042	260
307.272	251
307.502	245
307.731	266
307.961	248
308.191	241
308.421	247
308.651	282
308.881	266
309.111	277
309.341	264
309.571	286
309.8	269
310.03	296
310.26	296
310.49	286
310.72	297
310.949	326
311.179	315
311.409	307
311.639	292
311.868	312
312.098	308
312.328	313
312.557	314
312.787	309
313.017	310
313.246	315
313.476	311
313.706	304
313.935	304
314.165	309
314.394	314
314.624	314
314.853	307
315.083	303
315.312	306
315.542	294
315.771	297
316.001	293
316.23	296
316.46	299
316.689	297
316.919	312
317.148	302
317.377	302
317.607	285
317.836	290
318.065	278
318.295	302
318.524	295
318.753	287
318.983	287
319.212	297
319.441	310
319.67	318
319.9	321
320.129	315
320.358	299
320.587	293
320.816	307
321.046	328
321.275	325
321.504	326
321.733	318
321.962	323
322.191	348
322.42	332
322.649	367
322.878	367
323.108	400
323.337	392
323.566	409
323.795	438
324.024	499
324.253	621
324.482	911
324.71	1424
324.939	1836
325.168	1470
325.397	796
325.626	540
325.855	460
326.084	436
326.313	416
326.542	432
326.77	466
326.999	594
327.228	821
327.457	1158
327.686	1298
327.914	844
328.143	614
328.372	522
328.6	462
328.829	479
329.058	467
329.287	473
329.515	438
329.744	414
329.972	409
330.201	431
330.43	444
330.658	469
330.887	498
331.115	459
331.344	409
331.572	379
331.801	374
332.03	389
332.258	386
332.486	355
332.715	344
332.943	348
333.172	339
333.4	364
333.629	360
333.857	370
334.085	358
334.314	390
334.542	425
334.771	426
334.999	389
335.227	373
335.455	331
335.684	342
335.912	342
336.14	339
336.369	352
336.597	356
336.825	344
337.053	337
337.281	324
337.51	326
337.738	342
337.966	327
338.194	351
338.422	346
338.65	321
338.878	334
339.106	326
339.334	342
339.562	322
339.79	335
340.018	334
340.246	338
340.474	329
340.702	326
340.93	323
341.158	328
341.386	332
341.614	333
341.842	308
342.07	324
342.298	312
342.526	306
342.754	306
342.981	304
343.209	319
343.437	317
343.665	307
343.893	311
344.12	323
344.348	339
344.576	322
344.804	326
345.031	337
345.259	342
345.487	334
345.714	346
345.942	331
346.17	332
346.397	312
346.625	328
346.853	313
347.08	308
347.308	341
347.535	330
347.763	324
347.99	325
348.218	334
348.445	342
348.673	324
348.9	306
349.128	309
349.355	306
349.583	317
349.81	300
350.037	310
350.265	301
350.492	295
350.72	318
350.947	299
351.174	319
351.402	314
351.629	324
351.856	336
352.083	318
352.311	318
352.538	328
352.765	332
352.992	331
353.22	327
353.447	309
353.674	318
353.901	299
354.128	303
354.355	283
354.583	289
354.81	292
355.037	306
355.264	269
355.491	268
355.718	301
355.945	295
356.172	283
356.399	276
356.626	279
356.853	294
357.08	268
357.307	291
357.534	278
357.761	282
357.988	296
358.215	272
358.441	295
358.668	292
358.895	302
359.122	295
359.349	301
359.576	308
359.802	301
360.029	346
360.256	358
360.483	335
360.709	308
360.936	306
361.163	311
361.39	311
361.616	312
361.843	304
362.07	323
362.296	296
362.523	310
362.749	312
362.976	291
363.203	316
363.429	292
363.656	310
363.882	297
364.109	285
364.335	291
364.562	278
364.788	296
365.015	292
365.241	297
365.468	303
365.694	290
365.92	293
366.147	293
366.373	302
366.599	292
366.826	303
367.052	273
367.278	292
367.505	287
367.731	286
367.957	288
368.184	292
368.41	294
368.636	295
368.862	312
369.089	298
369.315	307
369.541	283
369.767	292
369.993	310
370.219	279
370.445	286
370.672	283
370.898	272
371.124	278
371.35	282
371.576	277
371.802	295
372.028	278
372.254	275
372.48	291
372.706	263
372.932	271
373.158	288
373.384	295
373.61	302
373.835	272
374.061	274
374.287	296
374.513	285
374.739	280
374.965	293
375.191	279
375.416	282
375.642	281
375.868	304
376.094	251
376.319	294
376.545	278
376.771	293
376.997	272
377.222	275
377.448	298
377.674	267
377.899	272
378.125	268
378.35	269
378.576	268
378.802	280
379.027	275
379.253	274
379.478	271
379.704	268
379.929	279
380.155	267
380.38	269
380.606	268
380.831	272
381.057	272
381.282	268
381.507	284
381.733	279
381.958	270
382.184	292
382.409	278
382.634	279
382.86	269
383.085	268
383.31	282
383.535	267
383.761	270
383.986	283
384.211	301
384.436	295
384.662	288
384.887	281
385.112	275
385.337	264
385.562	305
385.787	277
386.013	308
386.238	296
386.463	303
386.688	296
386.913	280
387.138	285
387.363	288
387.588	280
387.813	283
388.038	281
388.263	301
388.488	272
388.713	278
388.938	297
389.163	290
389.387	290
389.612	276
389.837	282
390.062	292
390.287	283
390.512	286
390.736	280
390.961	287
391.186	283
391.411	294
391.636	291
391.86	307
392.085	293
392.31	303
392.534	288
392.759	286
392.984	285
393.208	290
393.433	286
393.658	281
393.882	297
394.107	275
394.331	283
394.556	302
394.78	292
395.005	283
395.229	298
395.454	287
395.678	304
395.903	294
396.127	315
396.352	313
396.576	302
396.801	308
397.025	294
397.249	294
397.474	295
397.698	312
397.922	317
398.147	299
398.371	316
398.595	306
398.82	314
399.044	316
399.268	320
399.492	339
399.717	370
399.941	373
400.165	374
400.389	377
400.613	350
400.837	340
401.062	333
401.286	308
401.51	320
401.734	297
401.958	312
402.182	339
402.406	330
402.63	323
402.854	314
403.078	328
403.302	326
403.526	332
403.75	340
403.974	315
404.198	338
404.422	318
404.645	361
404.869	344
405.093	366
405.317	382
405.541	401
405.765	386
405.988	354
406.212	374
406.436	363
406.66	361
406.883	355
407.107	380
407.331	402
407.555	427
407.778	451
408.002	396
408.226	364
408.449	340
408.673	359
408.896	375
409.12	420
409.344	382
409.567	336
409.791	326
410.014	340
410.238	326
410.461	333
410.685	319
410.908	355
411.132	379
411.355	380
411.578	368
411.802	342
412.025	337
412.249	330
412.472	342
412.695	363
412.919	368
413.142	319
413.365	324
413.589	319
413.812	318
414.035	300
414.258	318
414.482	304
414.705	319
414.928	307
415.151	316
415.374	301
415.597	298
415.821	318
416.044	319
416.267	325
416.49	306
416.713	319
416.936	310
417.159	308
417.382	324
417.605	311
417.828	345
418.051	337
418.274	335
418.497	322
418.72	299
418.943	314
419.166	313
419.389	319
419.611	309
419.834	312
420.057	318
420.28	346
420.503	342
420.726	331
420.948	355
421.171	365
421.394	373
421.617	340
421.839	340
422.062	334
422.285	335
422.507	389
422.73	434
422.953	389
423.175	355
423.398	339
423.621	357
423.843	356
424.066	326
424.288	372
424.511	352
424.733	396
424.956	461
425.178	450
425.401	438
425.623	411
425.846	396
426.068	363
426.291	356
426.513	356
426.735	362
426.958	385
427.18	458
427.402	525
427.625	581
427.847	541
428.069	441
428.292	396
428.514	351
428.736	333
428.958	343
429.181	327
429.403	342
429.625	321
429.847	374
430.069	412
430.292	421
430.514	356
430.736	314
430.958	325
431.18	303
431.402	300
431.624	315
431.846	312
432.068	317
432.29	307
432.512	331
432.734	322
432.956	312
433.178	337
433.4	322
433.622	326
433.844	301
434.066	308
434.287	314
434.509	302
434.731	310
434.953	335
435.175	325
435.397	349
435.618	366
435.84	380
436.062	441
436.284	493
436.505	406
436.727	363
436.949	361
437.17	340
437.392	335
437.614	340
437.835	376
438.057	454
438.278	533
438.5	515
438.721	526
438.943	490
439.165	425
439.386	383
439.608	376
439.829	391
440.05	399
440.272	417
440.493	379
440.715	351
440.936	344
441.158	360
441.379	321
441.6	353
441.822	363
442.043	387
442.264	452
442.486	466
442.707	392
442.928	385
443.149	362
443.371	388
443.592	418
443.813	471
444.034	525
444.255	420
444.476	384
444.698	371
444.919	382
445.14	453
445.361	398
445.582	396
445.803	447
446.024	516
446.245	502
446.466	471
446.687	391
446.908	370
447.129	344
447.35	350
447.571	334
447.792	355
448.013	338
448.234	366
448.455	399
448.675	454
448.896	510
449.117	458
449.338	441
449.559	487
449.779	562
450	443
450.221	379
450.442	339
450.662	346
450.883	349
451.104	345
451.324	337
451.545	316
451.766	314
451.986	306
452.207	300
452.428	319
452.648	324
452.869	314
453.089	322
453.31	341
453.53	315
453.751	306
453.971	337
454.192	324
454.412	332
454.633	314
454.853	300
455.073	308
455.294	326
455.514	375
455.734	345
455.955	319
456.175	309
456.395	266
456.616	303
456.836	278
457.056	282
457.276	291
457.497	293
457.717	290
457.937	303
458.157	300
458.377	296
458.598	315
458.818	340
459.038	391
459.258	431
459.478	356
459.698	332
459.918	317
460.138	312
460.358	319
460.578	296
460.798	310
461.018	291
461.238	294
461.458	308
461.678	304
461.898	309
462.118	303
462.338	298
462.558	299
462.777	318
462.997	314
463.217	318
463.437	339
463.657	314
463.876	326
464.096	333
464.316	322
464.536	319
464.755	336
464.975	351
465.195	377
465.414	424
465.634	384
465.854	346
466.073	323
466.293	339
466.512	293
466.732	301
466.951	318
467.171	284
467.391	306
467.61	308
467.829	329
468.049	309
468.268	318
468.488	314
468.707	291
468.927	306
469.146	295
469.365	292
469.585	310
469.804	322
470.023	327
470.243	313
470.462	331
470.681	324
470.901	323
471.12	307
471.339	301
471.558	317
471.777	303
471.997	300
472.216	310
472.435	351
472.654	327
472.873	314
473.092	290
473.311	306
473.53	301
473.749	314
473.968	359
474.187	438
474.406	409
474.625	363
474.844	336
475.063	311
475.282	313
475.501	326
475.72	322
475.939	312
476.158	312
476.377	322
476.596	336
476.814	322
477.033	326
477.252	324
477.471	330
477.69	329
477.908	336
478.127	354
478.346	332
478.564	327
478.783	333
479.002	350
479.22	351
479.439	371
479.658	374
479.876	365
480.095	372
480.313	384
480.532	386
480.751	372
480.969	364
481.188	424
481.406	446
481.624	396
481.843	377
482.061	375
482.28	378
482.498	350
482.717	362
482.935	359
483.153	354
483.372	350
483.59	352
483.808	354
484.027	362
484.245	345
484.463	360
484.681	370
484.9	378
485.118	357
485.336	354
485.554	362
485.772	366
485.99	373
486.209	357
486.427	358
486.645	370
486.863	395
487.081	391
487.299	387
487.517	370
487.735	372
487.953	388
488.171	361
488.389	385
488.607	396
488.825	391
489.043	379
489.261	373
489.479	390
489.696	391
489.914	392
490.132	387
490.35	387
490.568	393
490.786	415
491.003	414
491.221	418
491.439	432
491.657	428
491.874	437
492.092	416
492.31	438
492.527	444
492.745	428
492.963	435
493.18	439
493.398	445
493.615	442
493.833	429
494.05	422
494.268	441
494.485	435
494.703	437
494.92	440
495.138	443
495.355	459
495.573	454
495.79	447
496.008	466
496.225	460
496.442	458
496.66	476
496.877	450
497.094	452
497.312	458
497.529	465
497.746	463
497.963	455
498.181	472
498.398	476
498.615	485
498.832	490
499.049	505
499.267	487
499.484	488
499.701	489
499.918	522
500.135	527
500.352	560
500.569	549
500.786	565
501.003	572
501.22	546
501.437	529
501.654	556
501.871	546
502.088	499
502.305	507
502.522	482
502.739	491
502.956	464
503.172	480
503.389	473
503.606	444
503.823	462
504.04	466
504.256	443
504.473	440
504.69	447
504.907	448
505.123	440
505.34	447
505.557	424
505.773	460
505.99	452
506.207	443
506.423	445
506.64	436
506.856	452
507.073	434
507.289	420
507.506	428
507.722	436
507.939	444
508.155	442
508.372	429
508.588	428
508.805	431
509.021	416
509.238	427
509.454	428
509.67	440
509.887	416
510.103	441
510.319	428
510.536	514
510.752	845
510.968	655
511.184	442
511.401	421
511.617	404
511.833	415
512.049	418
512.265	401
512.481	387
512.698	396
512.914	415
513.13	399
513.346	422
513.562	397
513.778	410
513.994	422
514.21	438
514.426	452
514.642	466
514.858	490
515.074	524
515.29	616
515.506	934
515.721	728
515.937	526
516.153	422
516.369	429
516.585	423
516.801	411
517.016	392
517.232	406
517.448	403
517.664	408
517.879	405
518.095	395
518.311	409
518.527	400
518.742	374
518.958	395
519.173	390
519.389	386
519.605	412
519.82	412
520.036	408
520.251	444
520.467	448
520.682	463
520.898	462
521.113	477
521.329	515
521.544	566
521.76	749
521.975	1235
522.19	1168
522.406	649
522.621	487
522.836	421
523.052	405
523.267	395
523.482	386
523.698	387
523.913	374
524.128	374
524.343	367
524.559	354
524.774	354
524.989	360
525.204	364
525.419	350
525.634	336
525.849	341
526.064	352
526.28	350
526.495	340
526.71	336
526.925	324
527.14	322
527.355	310
527.57	341
527.785	343
527.999	310
528.214	340
528.429	332
528.644	329
528.859	313
529.074	331
529.289	352
529.503	406
529.718	395
529.933	342
530.148	345
530.363	332
530.577	327
530.792	336
531.007	335
531.221	324
531.436	311
531.651	305
531.865	313
532.08	322
532.295	322
532.509	320
532.724	308
532.938	320
533.153	300
533.367	311
533.582	303
533.796	306
534.011	318
534.225	310
534.44	323
534.654	316
534.868	307
535.083	301
535.297	306
535.511	325
535.726	297
535.94	326
536.154	323
536.369	303
536.583	292
536.797	306
537.011	313
537.225	311
537.44	292
537.654	284
537.868	303
538.082	312
538.296	300
538.51	305
538.724	306
538.938	300
539.153	309
539.367	315
539.581	308
539.795	311
540.009	308
540.222	297
540.436	311
540.65	314
540.864	281
541.078	311
541.292	303
541.506	318
541.72	322
541.934	307
542.147	318
542.361	310
542.575	285
542.789	301
543.002	292
543.216	307
543.43	272
543.644	286
543.857	293
544.071	269
544.285	293
544.498	308
544.712	298
544.925	303
545.139	287
545.352	283
545.566	280
545.779	302
545.993	314
546.206	331
546.42	285
546.633	282
546.847	303
547.06	292
547.274	288
547.487	290
547.7	293
547.914	302
548.127	299
548.34	287
548.554	279
548.767	282
548.98	300
549.193	281
549.407	294
549.62	281
549.833	282
550.046	293
550.259	285
550.473	286
550.686	285
550.899	276
551.112	290
551.325	268
551.538	273
551.751	269
551.964	278
552.177	272
552.39	263
552.603	282
552.816	276
553.029	276
553.242	271
553.455	281
553.667	271
553.88	301
554.093	298
554.306	296
554.519	279
554.732	275
554.944	272
555.157	245
555.37	263
555.583	262
555.795	287
556.008	260
556.221	272
556.433	267
556.646	270
556.859	266
557.071	273
557.284	264
557.496	261
557.709	269
557.921	260
558.134	237
558.346	258
558.559	246
558.771	264
558.984	258
559.196	257
559.409	272
559.621	256
559.833	250
560.046	248
560.258	249
560.47	246
560.683	248
560.895	271
561.107	254
561.32	239
561.532	238
561.744	259
561.956	265
562.168	244
562.381	239
562.593	255
562.805	236
563.017	256
563.229	256
563.441	259
563.653	260
563.865	270
564.077	264
564.289	272
564.501	263
564.713	258
564.925	251
565.137	249
565.349	276
565.561	262
565.773	272
565.985	285
566.197	264
566.408	286
566.62	279
566.832	284
567.044	282
567.255	275
567.467	285
567.679	292
567.891	300
568.102	271
568.314	275
568.526	276
568.737	280
568.949	250
569.161	242
569.372	257
569.584	267
569.795	262
570.007	252
570.218	279
570.43	263
570.641	253
570.853	248
571.064	239
571.276	232
571.487	252
571.698	235
571.91	234
572.121	231
572.333	230
572.544	214
572.755	222
572.966	223
573.178	220
573.389	231
573.6	234
573.811	213
574.023	221
574.234	232
574.445	214
574.656	229
574.867	210
575.078	233
575.289	213
575.501	203
575.712	225
575.923	201
576.134	224
576.345	217
576.556	221
576.767	213
576.978	212
577.188	217
577.399	233
577.61	212
577.821	209
578.032	221
578.243	244
578.454	418
578.665	314
578.875	223
579.086	224
579.297	208
579.508	204
579.718	212
579.929	219
580.14	228
580.35	216
580.561	213
580.772	205
580.982	204
581.193	211
581.403	230
581.614	198
581.825	190
582.035	192
582.246	201
582.456	197
582.667	205
582.877	214
583.087	195
583.298	200
583.508	211
583.719	222
583.929	196
584.139	218
584.35	210
584.56	206
584.77	223
584.981	196
585.191	210
585.401	196
585.611	189
585.821	210
586.032	200
586.242	196
586.452	198
586.662	203
586.872	210
587.082	215
587.292	202
587.502	194
587.713	183
587.923	188
588.133	211
588.343	201
588.553	192
588.762	181
588.972	204
589.182	195
589.392	193
589.602	187
589.812	201
590.022	187
590.232	203
590.441	197
590.651	186
590.861	186
591.071	209
591.281	201
591.49	194
591.7	189
591.91	201
592.119	203
592.329	188
592.539	191
592.748	212
592.958	216
593.167	221
593.377	191
593.587	206
593.796	214
594.006	204
594.215	199
594.424	199
594.634	202
594.843	205
595.053	202
595.262	191
595.472	208
595.681	204
595.89	179
596.1	196
596.309	202
596.518	194
596.727	194
596.937	183
597.146	186
597.355	188
597.564	205
597.774	179
597.983	191
598.192	186
598.401	196
598.61	179
598.819	158
599.028	171
599.237	181
599.446	180
599.655	178
599.864	171
600.073	190
600.282	193
600.491	184
600.7	180
600.909	195
601.118	180
601.327	188
601.536	171
601.745	177
601.953	169
602.162	178
602.371	182
602.58	186
602.789	179
602.997	181
603.206	175
603.415	170
603.623	162
603.832	176
604.041	185
604.249	188
604.458	170
604.666	174
604.875	180
605.084	178
605.292	168
605.501	169
605.709	182
605.918	168
606.126	170
606.334	168
606.543	178
606.751	173
606.96	188
607.168	178
607.376	174
607.585	175
607.793	178
608.001	159
608.21	186
608.418	174
608.626	163
608.834	176
609.043	173
609.251	167
609.459	182
609.667	169
609.875	172
610.083	167
610.291	185
610.499	185
610.707	167
610.916	175
611.124	167
611.332	166
611.54	174
611.748	175
611.955	174
612.163	181
612.371	187
612.579	180
612.787	172
612.995	184
613.203	162
613.411	165
613.618	154
613.826	163
614.034	178
614.242	167
614.449	160
614.657	162
614.865	166
615.072	152
615.28	167
615.488	179
615.695	181
615.903	168
616.111	171
616.318	156
616.526	157
616.733	158
616.941	179
617.148	180
617.356	174
617.563	173
617.771	174
617.978	178
618.185	166
618.393	154
618.6	145
618.807	155
619.015	150
619.222	166
619.429	183
619.637	172
619.844	155
620.051	165
620.258	173
620.466	163
620.673	137
620.88	160
621.087	146
621.294	160
621.501	157
621.708	162
621.915	174
622.122	156
622.329	143
622.536	156
622.743	168
622.95	160
623.157	162
623.364	175
623.571	170
623.778	171
623.985	153
624.192	154
624.399	151
624.606	156
624.812	156
625.019	156
625.226	157
625.433	157
625.639	155
625.846	154
626.053	143
626.259	163
626.466	161
626.673	144
626.879	145
627.086	150
627.293	154
627.499	150
627.706	156
627.912	143
628.119	164
628.325	143
628.532	168
628.738	138
628.945	151
629.151	155
629.357	153
629.564	151
629.77	149
629.976	150
630.183	148
630.389	156
630.595	142
630.802	152
631.008	146
631.214	133
631.42	146
631.627	150
631.833	144
632.039	141
632.245	151
632.451	161
632.657	141
632.863	154
633.069	147
633.275	141
633.481	142
633.688	139
633.893	160
634.099	133
634.305	154
634.511	157
634.717	162
634.923	143
635.129	152
635.335	123
635.541	128
635.747	141
635.952	142
636.158	143
636.364	157
636.57	139
636.775	138
636.981	144
637.187	140
637.392	138
637.598	143
637.804	145
638.009	150
638.215	155
638.421	161
638.626	141
638.832	131
639.037	140
639.243	152
639.448	128
639.654	144
639.859	145
640.065	135
640.27	138
640.475	130
640.681	136
640.886	142
641.091	149
641.297	118
641.502	142
641.707	144
641.913	131
642.118	130
642.323	144
642.528	126
642.733	139
642.939	143
643.144	140
643.349	121
643.554	123
643.759	124
643.964	118
644.169	125
644.374	127
644.579	134
644.784	139
644.989	139
645.194	124
645.399	139
645.604	124
645.809	136
646.014	120
646.219	135
646.423	124
646.628	132
646.833	130
647.038	142
647.243	133
647.447	135
647.652	136
647.857	134
648.062	135
648.266	131
648.471	140
648.676	135
648.88	131
649.085	126
649.289	136
649.494	133
649.698	136
649.903	140
650.107	142
650.312	143
650.516	138
650.721	127
650.925	131
651.13	134
651.334	139
651.539	118
651.743	128
651.947	118
652.152	125
652.356	125
652.56	116
652.764	123
652.969	117
653.173	118
653.377	124
653.581	112
653.785	121
653.99	110
654.194	111
654.398	126
654.602	116
654.806	108
655.01	126
655.214	116
655.418	115
655.622	136
655.826	125
656.03	105
656.234	126
656.438	114
656.642	122
656.846	115
657.049	111
657.253	98
657.457	116
657.661	90
657.865	100
658.068	103
658.272	104
658.476	117
658.68	109
658.883	103
659.087	100
659.291	89
659.494	102
659.698	103
659.901	99
660.105	94
660.309	86
660.512	92
660.716	106
660.919	110
661.123	89
661.326	92
661.53	86
661.733	84
661.936	82
662.14	74
662.343	100
662.546	94
662.75	96
662.953	94
663.156	91
663.36	71
663.563	92
663.766	89
663.969	87
664.173	83
664.376	89
664.579	93
664.782	84
664.985	72
665.188	85
665.391	91
665.594	88
665.797	83
666	88
666.203	99
666.406	95
666.609	84
666.812	90
667.015	77
667.218	76
667.421	79
667.624	106
667.827	83
668.03	84
668.232	79
668.435	92
668.638	79
668.841	93
669.043	102
669.246	85
669.449	74
669.651	85
669.854	75
670.057	88
670.259	91
670.462	70
670.665	78
670.867	95
671.07	83
671.272	102
671.475	83
671.677	86
671.88	88
672.082	83
672.284	74
672.487	90
672.689	87
672.892	74
