Data from 1982.PennyLincolnUp.Lamp.En5.5.200Scan.071819.P1_HRD10591_16-47-24-961.txt Node
Date: Thu Jul 18 16:47:24 EDT 2019
User: cochatt
Spectrometer: HR+D1059
Trigger mode: 1
Integration Time (sec): 1.000000E-1
Scans to average: 1
Electric dark correction enabled: true
Nonlinearity correction enabled: false
Boxcar width: 0
XAxis mode: Wavelengths
Number of Pixels in Spectrum: 2048
>>>>>Begin Spectral Data<<<<<
223.165	-19.69
223.4	-19.69
223.635	-19.69
223.869	-11.69
224.104	-12.69
224.338	-17.69
224.573	-19.69
224.808	-10.69
225.042	-7.69
225.277	-6.69
225.511	-7.69
225.746	-0.69
225.98	7.31
226.215	11.31
226.449	21.31
226.683	18.31
226.918	23.31
227.152	33.31
227.387	38.31
227.621	37.31
227.856	35.31
228.09	57.31
228.324	56.31
228.559	50.31
228.793	56.31
229.027	106.31
229.262	88.31
229.496	107.31
229.73	126.31
229.964	118.31
230.199	110.31
230.433	120.31
230.667	96.31
230.901	102.31
231.136	103.31
231.37	103.31
231.604	114.31
231.838	111.31
232.072	101.31
232.306	103.31
232.541	95.31
232.775	108.31
233.009	86.31
233.243	110.31
233.477	104.31
233.711	95.31
233.945	96.31
234.179	99.31
234.413	98.31
234.647	102.31
234.881	115.31
235.115	119.31
235.349	122.31
235.583	109.31
235.817	100.31
236.051	111.31
236.285	125.31
236.519	130.31
236.753	117.31
236.987	136.31
237.221	155.31
237.455	194.31
237.689	149.31
237.922	126.31
238.156	119.31
238.39	91.31
238.624	108.31
238.858	111.31
239.091	114.31
239.325	118.31
239.559	125.31
239.793	108.31
240.027	104.31
240.26	121.31
240.494	141.31
240.728	129.31
240.961	125.31
241.195	130.31
241.429	119.31
241.662	104.31
241.896	114.31
242.13	102.31
242.363	124.31
242.597	117.31
242.83	134.31
243.064	114.31
243.298	116.31
243.531	134.31
243.765	119.31
243.998	109.31
244.232	123.31
244.465	137.31
244.699	125.31
244.932	116.31
245.166	129.31
245.399	125.31
245.633	112.31
245.866	135.31
246.099	122.31
246.333	135.31
246.566	130.31
246.8	119.31
247.033	137.31
247.266	138.31
247.5	145.31
247.733	151.31
247.966	142.31
248.2	156.31
248.433	155.31
248.666	154.31
248.899	151.31
249.133	165.31
249.366	168.31
249.599	156.31
249.832	158.31
250.066	160.31
250.299	154.31
250.532	165.31
250.765	172.31
250.998	202.31
251.231	186.31
251.465	172.31
251.698	170.31
251.931	172.31
252.164	195.31
252.397	164.31
252.63	162.31
252.863	191.31
253.096	182.31
253.329	173.31
253.562	209.31
253.795	194.31
254.028	178.31
254.261	181.31
254.494	194.31
254.727	206.31
254.96	215.31
255.193	231.31
255.426	213.31
255.659	190.31
255.892	185.31
256.124	202.31
256.357	188.31
256.59	192.31
256.823	168.31
257.056	188.31
257.289	186.31
257.521	172.31
257.754	163.31
257.987	192.31
258.22	174.31
258.452	165.31
258.685	180.31
258.918	174.31
259.151	176.31
259.383	169.31
259.616	181.31
259.849	191.31
260.081	190.31
260.314	199.31
260.547	202.31
260.779	204.31
261.012	191.31
261.244	182.31
261.477	184.31
261.71	208.31
261.942	190.31
262.175	197.31
262.407	188.31
262.64	169.31
262.872	186.31
263.105	171.31
263.337	180.31
263.57	186.31
263.802	165.31
264.035	178.31
264.267	160.31
264.499	176.31
264.732	176.31
264.964	180.31
265.197	174.31
265.429	192.31
265.661	190.31
265.894	180.31
266.126	183.31
266.358	182.31
266.591	174.31
266.823	194.31
267.055	198.31
267.287	202.31
267.52	195.31
267.752	173.31
267.984	198.31
268.216	179.31
268.448	174.31
268.681	192.31
268.913	203.31
269.145	217.31
269.377	215.31
269.609	232.31
269.841	218.31
270.073	227.31
270.306	224.31
270.538	253.31
270.77	258.31
271.002	239.31
271.234	240.31
271.466	251.31
271.698	250.31
271.93	259.31
272.162	242.31
272.394	247.31
272.626	254.31
272.858	230.31
273.09	242.31
273.322	233.31
273.553	202.31
273.785	209.31
274.017	228.31
274.249	211.31
274.481	227.31
274.713	222.31
274.945	224.31
275.176	214.31
275.408	223.31
275.64	215.31
275.872	215.31
276.104	227.31
276.335	211.31
276.567	220.31
276.799	229.31
277.031	230.31
277.262	271.31
277.494	262.31
277.726	254.31
277.957	242.31
278.189	242.31
278.421	228.31
278.652	234.31
278.884	231.31
279.115	220.31
279.347	221.31
279.579	210.31
279.81	217.31
280.042	232.31
280.273	206.31
280.505	216.31
280.736	223.31
280.968	212.31
281.199	212.31
281.431	214.31
281.662	205.31
281.894	228.31
282.125	214.31
282.356	223.31
282.588	242.31
282.819	257.31
283.051	215.31
283.282	218.31
283.513	216.31
283.745	228.31
283.976	219.31
284.207	216.31
284.439	230.31
284.67	228.31
284.901	223.31
285.132	208.31
285.364	211.31
285.595	213.31
285.826	236.31
286.057	230.31
286.288	218.31
286.52	213.31
286.751	226.31
286.982	212.31
287.213	229.31
287.444	211.31
287.675	232.31
287.906	235.31
288.138	232.31
288.369	244.31
288.6	252.31
288.831	237.31
289.062	236.31
289.293	237.31
289.524	243.31
289.755	226.31
289.986	222.31
290.217	225.31
290.448	246.31
290.679	214.31
290.91	229.31
291.141	217.31
291.371	218.31
291.602	214.31
291.833	228.31
292.064	240.31
292.295	224.31
292.526	230.31
292.757	224.31
292.987	227.31
293.218	244.31
293.449	230.31
293.68	223.31
293.91	225.31
294.141	238.31
294.372	229.31
294.603	232.31
294.833	230.31
295.064	239.31
295.295	228.31
295.525	239.31
295.756	230.31
295.987	258.31
296.217	247.31
296.448	262.31
296.679	260.31
296.909	226.31
297.14	244.31
297.37	226.31
297.601	237.31
297.831	233.31
298.062	239.31
298.292	247.31
298.523	233.31
298.753	252.31
298.984	251.31
299.214	244.31
299.445	240.31
299.675	244.31
299.905	258.31
300.136	234.31
300.366	235.31
300.597	243.31
300.827	245.31
301.057	269.31
301.288	258.31
301.518	244.31
301.748	260.31
301.979	243.31
302.209	251.31
302.439	238.31
302.669	263.31
302.9	245.31
303.13	242.31
303.36	267.31
303.59	261.31
303.82	264.31
304.051	286.31
304.281	250.31
304.511	266.31
304.741	246.31
304.971	258.31
305.201	259.31
305.431	259.31
305.661	255.31
305.891	252.31
306.121	284.31
306.352	268.31
306.582	265.31
306.812	278.31
307.042	256.31
307.272	259.31
307.502	268.31
307.731	257.31
307.961	263.31
308.191	252.31
308.421	264.31
308.651	280.31
308.881	278.31
309.111	286.31
309.341	289.31
309.571	274.31
309.8	292.31
310.03	294.31
310.26	296.31
310.49	316.31
310.72	312.31
310.949	312.31
311.179	312.31
311.409	324.31
311.639	300.31
311.868	311.31
312.098	298.31
312.328	320.31
312.557	320.31
312.787	336.31
313.017	311.31
313.246	286.31
313.476	295.31
313.706	298.31
313.935	309.31
314.165	319.31
314.394	313.31
314.624	304.31
314.853	308.31
315.083	308.31
315.312	312.31
315.542	302.31
315.771	311.31
316.001	291.31
316.23	285.31
316.46	280.31
316.689	290.31
316.919	306.31
317.148	315.31
317.377	311.31
317.607	304.31
317.836	302.31
318.065	319.31
318.295	318.31
318.524	318.31
318.753	298.31
318.983	295.31
319.212	308.31
319.441	293.31
319.67	307.31
319.9	303.31
320.129	307.31
320.358	316.31
320.587	303.31
320.816	307.31
321.046	301.31
321.275	335.31
321.504	306.31
321.733	316.31
321.962	317.31
322.191	356.31
322.42	344.31
322.649	380.31
322.878	387.31
323.108	377.31
323.337	399.31
323.566	414.31
323.795	449.31
324.024	501.31
324.253	636.31
324.482	926.31
324.71	1410.31
324.939	1839.31
325.168	1482.31
325.397	781.31
325.626	528.31
325.855	444.31
326.084	420.31
326.313	432.31
326.542	429.31
326.77	469.31
326.999	572.31
327.228	828.31
327.457	1180.31
327.686	1312.31
327.914	878.31
328.143	600.31
328.372	526.31
328.6	483.31
328.829	450.31
329.058	461.31
329.287	473.31
329.515	468.31
329.744	415.31
329.972	411.31
330.201	439.31
330.43	459.31
330.658	489.31
330.887	499.31
331.115	462.31
331.344	436.31
331.572	384.31
331.801	382.31
332.03	375.31
332.258	349.31
332.486	356.31
332.715	368.31
332.943	334.31
333.172	356.31
333.4	368.31
333.629	356.31
333.857	362.31
334.085	372.31
334.314	389.31
334.542	400.31
334.771	417.31
334.999	382.31
335.227	373.31
335.455	359.31
335.684	360.31
335.912	336.31
336.14	358.31
336.369	341.31
336.597	352.31
336.825	342.31
337.053	339.31
337.281	342.31
337.51	345.31
337.738	346.31
337.966	333.31
338.194	344.31
338.422	342.31
338.65	334.31
338.878	335.31
339.106	301.31
339.334	337.31
339.562	331.31
339.79	332.31
340.018	332.31
340.246	332.31
340.474	349.31
340.702	338.31
340.93	339.31
341.158	324.31
341.386	318.31
341.614	324.31
341.842	316.31
342.07	326.31
342.298	330.31
342.526	325.31
342.754	314.31
342.981	323.31
343.209	314.31
343.437	317.31
343.665	324.31
343.893	332.31
344.12	333.31
344.348	311.31
344.576	332.31
344.804	327.31
345.031	336.31
345.259	353.31
345.487	324.31
345.714	335.31
345.942	307.31
346.17	318.31
346.397	319.31
346.625	310.31
346.853	326.31
347.08	336.31
347.308	350.31
347.535	336.31
347.763	334.31
347.99	330.31
348.218	319.31
348.445	325.31
348.673	312.31
348.9	329.31
349.128	326.31
349.355	309.31
349.583	319.31
349.81	308.31
350.037	307.31
350.265	319.31
350.492	308.31
350.72	292.31
350.947	303.31
351.174	310.31
351.402	324.31
351.629	325.31
351.856	309.31
352.083	353.31
352.311	336.31
352.538	335.31
352.765	334.31
352.992	332.31
353.22	306.31
353.447	307.31
353.674	315.31
353.901	323.31
354.128	295.31
354.355	300.31
354.583	292.31
354.81	288.31
355.037	274.31
355.264	267.31
355.491	296.31
355.718	286.31
355.945	287.31
356.172	283.31
356.399	303.31
356.626	283.31
356.853	269.31
357.08	273.31
357.307	276.31
357.534	282.31
357.761	287.31
357.988	289.31
358.215	291.31
358.441	295.31
358.668	286.31
358.895	297.31
359.122	299.31
359.349	293.31
359.576	308.31
359.802	318.31
360.029	345.31
360.256	356.31
360.483	346.31
360.709	310.31
360.936	306.31
361.163	293.31
361.39	306.31
361.616	313.31
361.843	297.31
362.07	323.31
362.296	310.31
362.523	322.31
362.749	285.31
362.976	300.31
363.203	281.31
363.429	304.31
363.656	306.31
363.882	307.31
364.109	297.31
364.335	295.31
364.562	316.31
364.788	289.31
365.015	284.31
365.241	300.31
365.468	306.31
365.694	301.31
365.92	303.31
366.147	298.31
366.373	290.31
366.599	281.31
366.826	285.31
367.052	290.31
367.278	298.31
367.505	269.31
367.731	286.31
367.957	285.31
368.184	283.31
368.41	287.31
368.636	311.31
368.862	306.31
369.089	285.31
369.315	302.31
369.541	281.31
369.767	286.31
369.993	275.31
370.219	287.31
370.445	296.31
370.672	294.31
370.898	288.31
371.124	287.31
371.35	287.31
371.576	300.31
371.802	313.31
372.028	279.31
372.254	274.31
372.48	294.31
372.706	275.31
372.932	293.31
373.158	282.31
373.384	282.31
373.61	278.31
373.835	287.31
374.061	288.31
374.287	298.31
374.513	298.31
374.739	287.31
374.965	294.31
375.191	292.31
375.416	289.31
375.642	270.31
375.868	282.31
376.094	293.31
376.319	283.31
376.545	276.31
376.771	277.31
376.997	286.31
377.222	284.31
377.448	280.31
377.674	286.31
377.899	276.31
378.125	279.31
378.35	279.31
378.576	277.31
378.802	284.31
379.027	281.31
379.253	267.31
379.478	265.31
379.704	288.31
379.929	262.31
380.155	291.31
380.38	291.31
380.606	299.31
380.831	297.31
381.057	297.31
381.282	284.31
381.507	274.31
381.733	284.31
381.958	264.31
382.184	295.31
382.409	286.31
382.634	284.31
382.86	293.31
383.085	276.31
383.31	298.31
383.535	280.31
383.761	279.31
383.986	284.31
384.211	286.31
384.436	272.31
384.662	284.31
384.887	277.31
385.112	293.31
385.337	266.31
385.562	279.31
385.787	285.31
386.013	317.31
386.238	298.31
386.463	299.31
386.688	294.31
386.913	294.31
387.138	288.31
387.363	300.31
387.588	291.31
387.813	294.31
388.038	299.31
388.263	296.31
388.488	286.31
388.713	276.31
388.938	291.31
389.163	284.31
389.387	303.31
389.612	282.31
389.837	295.31
390.062	298.31
390.287	304.31
390.512	307.31
390.736	288.31
390.961	311.31
391.186	307.31
391.411	307.31
391.636	308.31
391.86	304.31
392.085	298.31
392.31	299.31
392.534	306.31
392.759	299.31
392.984	309.31
393.208	293.31
393.433	287.31
393.658	288.31
393.882	298.31
394.107	290.31
394.331	299.31
394.556	278.31
394.78	287.31
395.005	289.31
395.229	286.31
395.454	307.31
395.678	302.31
395.903	298.31
396.127	312.31
396.352	309.31
396.576	310.31
396.801	301.31
397.025	301.31
397.249	313.31
397.474	318.31
397.698	293.31
397.922	314.31
398.147	338.31
398.371	311.31
398.595	335.31
398.82	319.31
399.044	307.31
399.268	315.31
399.492	334.31
399.717	351.31
399.941	365.31
400.165	386.31
400.389	394.31
400.613	364.31
400.837	347.31
401.062	331.31
401.286	331.31
401.51	323.31
401.734	332.31
401.958	335.31
402.182	319.31
402.406	342.31
402.63	327.31
402.854	331.31
403.078	336.31
403.302	327.31
403.526	322.31
403.75	332.31
403.974	338.31
404.198	327.31
404.422	346.31
404.645	334.31
404.869	334.31
405.093	343.31
405.317	387.31
405.541	407.31
405.765	382.31
405.988	344.31
406.212	356.31
406.436	382.31
406.66	393.31
406.883	354.31
407.107	380.31
407.331	408.31
407.555	436.31
407.778	421.31
408.002	406.31
408.226	358.31
408.449	374.31
408.673	357.31
408.896	390.31
409.12	411.31
409.344	392.31
409.567	367.31
409.791	342.31
410.014	347.31
410.238	334.31
410.461	343.31
410.685	346.31
410.908	348.31
411.132	367.31
411.355	394.31
411.578	393.31
411.802	354.31
412.025	331.31
412.249	349.31
412.472	366.31
412.695	357.31
412.919	367.31
413.142	340.31
413.365	319.31
413.589	341.31
413.812	322.31
414.035	346.31
414.258	318.31
414.482	301.31
414.705	309.31
414.928	300.31
415.151	315.31
415.374	308.31
415.597	320.31
415.821	324.31
416.044	306.31
416.267	316.31
416.49	304.31
416.713	302.31
416.936	311.31
417.159	323.31
417.382	330.31
417.605	331.31
417.828	323.31
418.051	321.31
418.274	341.31
418.497	331.31
418.72	324.31
418.943	313.31
419.166	317.31
419.389	336.31
419.611	328.31
419.834	323.31
420.057	347.31
420.28	344.31
420.503	312.31
420.726	336.31
420.948	339.31
421.171	360.31
421.394	394.31
421.617	328.31
421.839	312.31
422.062	346.31
422.285	351.31
422.507	378.31
422.73	414.31
422.953	404.31
423.175	348.31
423.398	355.31
423.621	380.31
423.843	342.31
424.066	366.31
424.288	365.31
424.511	381.31
424.733	396.31
424.956	454.31
425.178	435.31
425.401	423.31
425.623	450.31
425.846	402.31
426.068	367.31
426.291	352.31
426.513	344.31
426.735	366.31
426.958	399.31
427.18	449.31
427.402	538.31
427.625	586.31
427.847	522.31
428.069	471.31
428.292	382.31
428.514	358.31
428.736	340.31
428.958	329.31
429.181	334.31
429.403	326.31
429.625	339.31
429.847	371.31
430.069	414.31
430.292	414.31
430.514	347.31
430.736	333.31
430.958	339.31
431.18	299.31
431.402	302.31
431.624	296.31
431.846	313.31
432.068	317.31
432.29	305.31
432.512	321.31
432.734	309.31
432.956	319.31
433.178	305.31
433.4	335.31
433.622	340.31
433.844	321.31
434.066	332.31
434.287	304.31
434.509	313.31
434.731	300.31
434.953	328.31
435.175	336.31
435.397	356.31
435.618	370.31
435.84	386.31
436.062	451.31
436.284	492.31
436.505	406.31
436.727	371.31
436.949	356.31
437.17	333.31
437.392	330.31
437.614	341.31
437.835	358.31
438.057	444.31
438.278	500.31
438.5	490.31
438.721	532.31
438.943	504.31
439.165	421.31
439.386	377.31
439.608	351.31
439.829	384.31
440.05	395.31
440.272	413.31
440.493	411.31
440.715	361.31
440.936	339.31
441.158	338.31
441.379	336.31
441.6	348.31
441.822	361.31
442.043	375.31
442.264	436.31
442.486	445.31
442.707	392.31
442.928	361.31
443.149	389.31
443.371	392.31
443.592	429.31
443.813	469.31
444.034	498.31
444.255	425.31
444.476	390.31
444.698	381.31
444.919	352.31
445.14	440.31
445.361	430.31
445.582	404.31
445.803	447.31
446.024	505.31
446.245	515.31
446.466	484.31
446.687	400.31
446.908	375.31
447.129	359.31
447.35	339.31
447.571	336.31
447.792	359.31
448.013	339.31
448.234	367.31
448.455	388.31
448.675	466.31
448.896	536.31
449.117	451.31
449.338	426.31
449.559	485.31
449.779	545.31
450	461.31
450.221	367.31
450.442	355.31
450.662	339.31
450.883	351.31
451.104	357.31
451.324	322.31
451.545	325.31
451.766	318.31
451.986	321.31
452.207	321.31
452.428	298.31
452.648	279.31
452.869	297.31
453.089	317.31
453.31	314.31
453.53	311.31
453.751	341.31
453.971	320.31
454.192	314.31
454.412	301.31
454.633	306.31
454.853	322.31
455.073	292.31
455.294	297.31
455.514	366.31
455.734	366.31
455.955	312.31
456.175	296.31
456.395	298.31
456.616	292.31
456.836	276.31
457.056	295.31
457.276	263.31
457.497	279.31
457.717	286.31
457.937	284.31
458.157	302.31
458.377	298.31
458.598	325.31
458.818	352.31
459.038	397.31
459.258	429.31
459.478	343.31
459.698	333.31
459.918	319.31
460.138	328.31
460.358	326.31
460.578	328.31
460.798	320.31
461.018	310.31
461.238	300.31
461.458	308.31
461.678	300.31
461.898	306.31
462.118	306.31
462.338	315.31
462.558	315.31
462.777	308.31
462.997	314.31
463.217	331.31
463.437	339.31
463.657	324.31
463.876	322.31
464.096	329.31
464.316	326.31
464.536	337.31
464.755	357.31
464.975	341.31
465.195	381.31
465.414	420.31
465.634	373.31
465.854	332.31
466.073	313.31
466.293	310.31
466.512	332.31
466.732	310.31
466.951	306.31
467.171	335.31
467.391	318.31
467.61	312.31
467.829	301.31
468.049	315.31
468.268	326.31
468.488	296.31
468.707	301.31
468.927	290.31
469.146	278.31
469.365	292.31
469.585	297.31
469.804	300.31
470.023	322.31
470.243	290.31
470.462	316.31
470.681	341.31
470.901	328.31
471.12	318.31
471.339	324.31
471.558	327.31
471.777	326.31
471.997	314.31
472.216	316.31
472.435	340.31
472.654	326.31
472.873	309.31
473.092	307.31
473.311	318.31
473.53	318.31
473.749	333.31
473.968	349.31
474.187	437.31
474.406	442.31
474.625	371.31
474.844	303.31
475.063	314.31
475.282	324.31
475.501	317.31
475.72	313.31
475.939	300.31
476.158	325.31
476.377	304.31
476.596	339.31
476.814	340.31
477.033	328.31
477.252	327.31
477.471	331.31
477.69	342.31
477.908	334.31
478.127	339.31
478.346	336.31
478.564	330.31
478.783	327.31
479.002	332.31
479.22	343.31
479.439	349.31
479.658	365.31
479.876	352.31
480.095	367.31
480.313	379.31
480.532	376.31
480.751	389.31
480.969	375.31
481.188	422.31
481.406	446.31
481.624	392.31
481.843	382.31
482.061	361.31
482.28	357.31
482.498	354.31
482.717	356.31
482.935	372.31
483.153	378.31
483.372	363.31
483.59	360.31
483.808	360.31
484.027	338.31
484.245	370.31
484.463	362.31
484.681	368.31
484.9	371.31
485.118	357.31
485.336	361.31
485.554	370.31
485.772	388.31
485.99	361.31
486.209	364.31
486.427	355.31
486.645	376.31
486.863	396.31
487.081	402.31
487.299	410.31
487.517	383.31
487.735	375.31
487.953	372.31
488.171	369.31
488.389	378.31
488.607	381.31
488.825	395.31
489.043	372.31
489.261	399.31
489.479	380.31
489.696	404.31
489.914	390.31
490.132	396.31
490.35	388.31
490.568	387.31
490.786	428.31
491.003	418.31
491.221	419.31
491.439	434.31
491.657	427.31
491.874	428.31
492.092	419.31
492.31	413.31
492.527	439.31
492.745	456.31
492.963	469.31
493.18	453.31
493.398	445.31
493.615	449.31
493.833	446.31
494.05	438.31
494.268	452.31
494.485	454.31
494.703	435.31
494.92	444.31
495.138	467.31
495.355	469.31
495.573	475.31
495.79	475.31
496.008	440.31
496.225	449.31
496.442	447.31
496.66	453.31
496.877	445.31
497.094	432.31
497.312	467.31
497.529	452.31
497.746	439.31
497.963	461.31
498.181	461.31
498.398	466.31
498.615	466.31
498.832	487.31
499.049	498.31
499.267	485.31
499.484	508.31
499.701	501.31
499.918	540.31
500.135	562.31
500.352	556.31
500.569	546.31
500.786	554.31
501.003	564.31
501.22	540.31
501.437	545.31
501.654	550.31
501.871	532.31
502.088	524.31
502.305	503.31
502.522	491.31
502.739	475.31
502.956	471.31
503.172	468.31
503.389	462.31
503.606	454.31
503.823	489.31
504.04	465.31
504.256	457.31
504.473	429.31
504.69	442.31
504.907	436.31
505.123	446.31
505.34	448.31
505.557	462.31
505.773	440.31
505.99	438.31
506.207	442.31
506.423	442.31
506.64	423.31
506.856	404.31
507.073	419.31
507.289	418.31
507.506	437.31
507.722	431.31
507.939	438.31
508.155	426.31
508.372	415.31
508.588	411.31
508.805	427.31
509.021	409.31
509.238	447.31
509.454	442.31
509.67	431.31
509.887	423.31
510.103	422.31
510.319	437.31
510.536	521.31
510.752	838.31
510.968	631.31
511.184	426.31
511.401	413.31
511.617	419.31
511.833	392.31
512.049	405.31
512.265	400.31
512.481	412.31
512.698	417.31
512.914	423.31
513.13	391.31
513.346	414.31
513.562	394.31
513.778	418.31
513.994	384.31
514.21	400.31
514.426	426.31
514.642	491.31
514.858	479.31
515.074	523.31
515.29	635.31
515.506	912.31
515.721	730.31
515.937	498.31
516.153	445.31
516.369	426.31
516.585	408.31
516.801	427.31
517.016	410.31
517.232	384.31
517.448	400.31
517.664	401.31
517.879	389.31
518.095	402.31
518.311	399.31
518.527	399.31
518.742	391.31
518.958	405.31
519.173	394.31
519.389	402.31
519.605	403.31
519.82	389.31
520.036	411.31
520.251	423.31
520.467	454.31
520.682	451.31
520.898	466.31
521.113	487.31
521.329	510.31
521.544	568.31
521.76	723.31
521.975	1216.31
522.19	1120.31
522.406	651.31
522.621	456.31
522.836	440.31
523.052	412.31
523.267	388.31
523.482	372.31
523.698	379.31
523.913	394.31
524.128	381.31
524.343	354.31
524.559	365.31
524.774	350.31
524.989	334.31
525.204	345.31
525.419	349.31
525.634	354.31
525.849	354.31
526.064	336.31
526.28	336.31
526.495	336.31
526.71	333.31
526.925	330.31
527.14	325.31
527.355	327.31
527.57	331.31
527.785	308.31
527.999	308.31
528.214	329.31
528.429	302.31
528.644	307.31
528.859	324.31
529.074	348.31
529.289	350.31
529.503	401.31
529.718	390.31
529.933	352.31
530.148	344.31
530.363	333.31
530.577	351.31
530.792	308.31
531.007	326.31
531.221	316.31
531.436	309.31
531.651	311.31
531.865	316.31
532.08	297.31
532.295	315.31
532.509	317.31
532.724	306.31
532.938	304.31
533.153	281.31
533.367	306.31
533.582	310.31
533.796	314.31
534.011	291.31
534.225	306.31
534.44	298.31
534.654	314.31
534.868	312.31
535.083	288.31
535.297	301.31
535.511	324.31
535.726	333.31
535.94	319.31
536.154	306.31
536.369	302.31
536.583	306.31
536.797	280.31
537.011	296.31
537.225	324.31
537.44	296.31
537.654	290.31
537.868	299.31
538.082	308.31
538.296	286.31
538.51	280.31
538.724	316.31
538.938	287.31
539.153	299.31
539.367	309.31
539.581	326.31
539.795	300.31
540.009	295.31
540.222	301.31
540.436	308.31
540.65	300.31
540.864	319.31
541.078	304.31
541.292	298.31
541.506	302.31
541.72	301.31
541.934	293.31
542.147	301.31
542.361	294.31
542.575	276.31
542.789	295.31
543.002	302.31
543.216	287.31
543.43	289.31
543.644	305.31
543.857	309.31
544.071	299.31
544.285	320.31
544.498	291.31
544.712	296.31
544.925	302.31
545.139	280.31
545.352	282.31
545.566	300.31
545.779	285.31
545.993	296.31
546.206	308.31
546.42	290.31
546.633	277.31
546.847	291.31
547.06	288.31
547.274	288.31
547.487	284.31
547.7	274.31
547.914	278.31
548.127	282.31
548.34	295.31
548.554	279.31
548.767	288.31
548.98	283.31
549.193	286.31
549.407	288.31
549.62	268.31
549.833	274.31
550.046	287.31
550.259	284.31
550.473	270.31
550.686	290.31
550.899	287.31
551.112	265.31
551.325	268.31
551.538	280.31
551.751	268.31
551.964	266.31
552.177	268.31
552.39	275.31
552.603	290.31
552.816	267.31
553.029	275.31
553.242	286.31
553.455	286.31
553.667	296.31
553.88	283.31
554.093	284.31
554.306	292.31
554.519	272.31
554.732	286.31
554.944	277.31
555.157	281.31
555.37	270.31
555.583	274.31
555.795	278.31
556.008	263.31
556.221	258.31
556.433	251.31
556.646	252.31
556.859	259.31
557.071	255.31
557.284	247.31
557.496	270.31
557.709	263.31
557.921	264.31
558.134	262.31
558.346	249.31
558.559	271.31
558.771	272.31
558.984	260.31
559.196	246.31
559.409	271.31
559.621	254.31
559.833	248.31
560.046	249.31
560.258	244.31
560.47	227.31
560.683	263.31
560.895	264.31
561.107	249.31
561.32	247.31
561.532	246.31
561.744	255.31
561.956	260.31
562.168	248.31
562.381	267.31
562.593	245.31
562.805	261.31
563.017	253.31
563.229	254.31
563.441	250.31
563.653	270.31
563.865	240.31
564.077	260.31
564.289	264.31
564.501	260.31
564.713	245.31
564.925	243.31
565.137	294.31
565.349	272.31
565.561	267.31
565.773	275.31
565.985	262.31
566.197	278.31
566.408	293.31
566.62	271.31
566.832	293.31
567.044	273.31
567.255	284.31
567.467	285.31
567.679	282.31
567.891	286.31
568.102	279.31
568.314	281.31
568.526	283.31
568.737	286.31
568.949	270.31
569.161	264.31
569.372	247.31
569.584	269.31
569.795	245.31
570.007	251.31
570.218	296.31
570.43	278.31
570.641	242.31
570.853	249.31
571.064	242.31
571.276	250.31
571.487	251.31
571.698	263.31
571.91	237.31
572.121	250.31
572.333	237.31
572.544	237.31
572.755	239.31
572.966	231.31
573.178	223.31
573.389	226.31
573.6	244.31
573.811	229.31
574.023	229.31
574.234	237.31
574.445	235.31
574.656	218.31
574.867	208.31
575.078	231.31
575.289	227.31
575.501	223.31
575.712	218.31
575.923	209.31
576.134	222.31
576.345	228.31
576.556	238.31
576.767	205.31
576.978	226.31
577.188	216.31
577.399	210.31
577.61	204.31
577.821	203.31
578.032	222.31
578.243	264.31
578.454	416.31
578.665	301.31
578.875	231.31
579.086	224.31
579.297	220.31
579.508	219.31
579.718	229.31
579.929	204.31
580.14	207.31
580.35	206.31
580.561	199.31
580.772	190.31
580.982	206.31
581.193	209.31
581.403	198.31
581.614	208.31
581.825	221.31
582.035	196.31
582.246	215.31
582.456	230.31
582.667	208.31
582.877	194.31
583.087	191.31
583.298	193.31
583.508	212.31
583.719	204.31
583.929	199.31
584.139	196.31
584.35	206.31
584.56	206.31
584.77	198.31
584.981	203.31
585.191	202.31
585.401	203.31
585.611	216.31
585.821	200.31
586.032	205.31
586.242	216.31
586.452	204.31
586.662	196.31
586.872	192.31
587.082	210.31
587.292	207.31
587.502	205.31
587.713	199.31
587.923	199.31
588.133	202.31
588.343	214.31
588.553	206.31
588.762	191.31
588.972	205.31
589.182	184.31
589.392	205.31
589.602	198.31
589.812	196.31
590.022	213.31
590.232	203.31
590.441	192.31
590.651	198.31
590.861	199.31
591.071	208.31
591.281	197.31
591.49	202.31
591.7	205.31
591.91	202.31
592.119	198.31
592.329	219.31
592.539	212.31
592.748	211.31
592.958	208.31
593.167	203.31
593.377	206.31
593.587	230.31
593.796	203.31
594.006	194.31
594.215	203.31
594.424	211.31
594.634	214.31
594.843	207.31
595.053	207.31
595.262	208.31
595.472	181.31
595.681	190.31
595.89	198.31
596.1	198.31
596.309	183.31
596.518	181.31
596.727	216.31
596.937	203.31
597.146	184.31
597.355	187.31
597.564	186.31
597.774	185.31
597.983	194.31
598.192	194.31
598.401	188.31
598.61	179.31
598.819	178.31
599.028	184.31
599.237	189.31
599.446	188.31
599.655	186.31
599.864	192.31
600.073	192.31
600.282	186.31
600.491	180.31
600.7	194.31
600.909	183.31
601.118	176.31
601.327	185.31
601.536	183.31
601.745	179.31
601.953	184.31
602.162	186.31
602.371	171.31
602.58	172.31
602.789	201.31
602.997	182.31
603.206	182.31
603.415	185.31
603.623	179.31
603.832	171.31
604.041	180.31
604.249	169.31
604.458	175.31
604.666	175.31
604.875	192.31
605.084	164.31
605.292	184.31
605.501	178.31
605.709	182.31
605.918	170.31
606.126	155.31
606.334	180.31
606.543	195.31
606.751	189.31
606.96	163.31
607.168	171.31
607.376	172.31
607.585	160.31
607.793	186.31
608.001	183.31
608.21	170.31
608.418	178.31
608.626	173.31
608.834	184.31
609.043	182.31
609.251	182.31
609.459	166.31
609.667	162.31
609.875	180.31
610.083	162.31
610.291	163.31
610.499	156.31
610.707	189.31
610.916	170.31
611.124	167.31
611.332	184.31
611.54	180.31
611.748	182.31
611.955	165.31
612.163	170.31
612.371	166.31
612.579	178.31
612.787	182.31
612.995	172.31
613.203	183.31
613.411	178.31
613.618	185.31
613.826	162.31
614.034	164.31
614.242	165.31
614.449	164.31
614.657	184.31
614.865	168.31
615.072	165.31
615.28	172.31
615.488	158.31
615.695	189.31
615.903	170.31
616.111	169.31
616.318	168.31
616.526	156.31
616.733	184.31
616.941	166.31
617.148	168.31
617.356	171.31
617.563	166.31
617.771	169.31
617.978	163.31
618.185	179.31
618.393	173.31
618.6	159.31
618.807	162.31
619.015	178.31
619.222	159.31
619.429	156.31
619.637	173.31
619.844	163.31
620.051	168.31
620.258	173.31
620.466	174.31
620.673	159.31
620.88	156.31
621.087	167.31
621.294	152.31
621.501	168.31
621.708	163.31
621.915	156.31
622.122	181.31
622.329	166.31
622.536	167.31
622.743	154.31
622.95	149.31
623.157	156.31
623.364	172.31
623.571	158.31
623.778	174.31
623.985	168.31
624.192	181.31
624.399	163.31
624.606	156.31
624.812	162.31
625.019	154.31
625.226	154.31
625.433	141.31
625.639	151.31
625.846	154.31
626.053	157.31
626.259	168.31
626.466	162.31
626.673	170.31
626.879	164.31
627.086	158.31
627.293	170.31
627.499	143.31
627.706	155.31
627.912	147.31
628.119	155.31
628.325	159.31
628.532	150.31
628.738	154.31
628.945	139.31
629.151	167.31
629.357	144.31
629.564	148.31
629.77	147.31
629.976	141.31
630.183	145.31
630.389	142.31
630.595	146.31
630.802	136.31
631.008	158.31
631.214	143.31
631.42	150.31
631.627	153.31
631.833	166.31
632.039	144.31
632.245	156.31
632.451	155.31
632.657	147.31
632.863	135.31
633.069	130.31
633.275	134.31
633.481	146.31
633.688	139.31
633.893	143.31
634.099	159.31
634.305	150.31
634.511	139.31
634.717	151.31
634.923	149.31
635.129	130.31
635.335	138.31
635.541	142.31
635.747	128.31
635.952	142.31
636.158	128.31
636.364	149.31
636.57	141.31
636.775	152.31
636.981	136.31
637.187	138.31
637.392	139.31
637.598	142.31
637.804	148.31
638.009	145.31
638.215	147.31
638.421	140.31
638.626	146.31
638.832	138.31
639.037	128.31
639.243	130.31
639.448	134.31
639.654	154.31
639.859	120.31
640.065	141.31
640.27	141.31
640.475	152.31
640.681	141.31
640.886	140.31
641.091	121.31
641.297	128.31
641.502	128.31
641.707	130.31
641.913	135.31
642.118	136.31
642.323	128.31
642.528	154.31
642.733	137.31
642.939	130.31
643.144	133.31
643.349	128.31
643.554	136.31
643.759	144.31
643.964	134.31
644.169	133.31
644.374	147.31
644.579	137.31
644.784	138.31
644.989	133.31
645.194	130.31
645.399	136.31
645.604	131.31
645.809	132.31
646.014	129.31
646.219	123.31
646.423	134.31
646.628	130.31
646.833	126.31
647.038	134.31
647.243	132.31
647.447	144.31
647.652	131.31
647.857	139.31
648.062	132.31
648.266	130.31
648.471	125.31
648.676	129.31
648.88	124.31
649.085	124.31
649.289	133.31
649.494	144.31
649.698	151.31
649.903	146.31
650.107	132.31
650.312	148.31
650.516	143.31
650.721	130.31
650.925	130.31
651.13	119.31
651.334	117.31
651.539	125.31
651.743	119.31
651.947	110.31
652.152	123.31
652.356	114.31
652.56	135.31
652.764	130.31
652.969	115.31
653.173	123.31
653.377	102.31
653.581	124.31
653.785	109.31
653.99	122.31
654.194	124.31
654.398	122.31
654.602	124.31
654.806	133.31
655.01	122.31
655.214	123.31
655.418	119.31
655.622	110.31
655.826	123.31
656.03	115.31
656.234	132.31
656.438	122.31
656.642	120.31
656.846	111.31
657.049	109.31
657.253	118.31
657.457	111.31
657.661	98.31
657.865	112.31
658.068	124.31
658.272	101.31
658.476	104.31
658.68	94.31
658.883	100.31
659.087	92.31
659.291	89.31
659.494	96.31
659.698	93.31
659.901	90.31
660.105	110.31
660.309	101.31
660.512	95.31
660.716	89.31
660.919	75.31
661.123	111.31
661.326	87.31
661.53	87.31
661.733	99.31
661.936	91.31
662.14	83.31
662.343	97.31
662.546	76.31
662.75	83.31
662.953	85.31
663.156	93.31
663.36	99.31
663.563	96.31
663.766	88.31
663.969	83.31
664.173	86.31
664.376	87.31
664.579	79.31
664.782	91.31
664.985	83.31
665.188	71.31
665.391	76.31
665.594	77.31
665.797	81.31
666	86.31
666.203	72.31
666.406	76.31
666.609	85.31
666.812	96.31
667.015	85.31
667.218	91.31
667.421	84.31
667.624	88.31
667.827	90.31
668.03	91.31
668.232	86.31
668.435	77.31
668.638	78.31
668.841	97.31
669.043	64.31
669.246	80.31
669.449	86.31
669.651	103.31
669.854	80.31
670.057	95.31
670.259	102.31
670.462	93.31
670.665	79.31
670.867	96.31
671.07	96.31
671.272	94.31
671.475	81.31
671.677	84.31
671.88	90.31
672.082	90.31
672.284	83.31
672.487	90.31
672.689	86.31
672.892	90.31
