Data from 1982.PennyLincolnUp.Lamp.En5.5.200Scan.071819.P1_HRD10591_16-47-39-961.txt Node
Date: Thu Jul 18 16:47:39 EDT 2019
User: cochatt
Spectrometer: HR+D1059
Trigger mode: 1
Integration Time (sec): 1.000000E-1
Scans to average: 1
Electric dark correction enabled: true
Nonlinearity correction enabled: false
Boxcar width: 0
XAxis mode: Wavelengths
Number of Pixels in Spectrum: 2048
>>>>>Begin Spectral Data<<<<<
223.165	-13.69
223.4	-13.69
223.635	-13.69
223.869	-9.69
224.104	-18.69
224.338	-22.69
224.573	-16.69
224.808	-15.69
225.042	-15.69
225.277	2.31
225.511	-6.69
225.746	2.31
225.98	20.31
226.215	18.31
226.449	7.31
226.683	17.31
226.918	22.31
227.152	29.31
227.387	41.31
227.621	35.31
227.856	36.31
228.09	39.31
228.324	56.31
228.559	63.31
228.793	59.31
229.027	88.31
229.262	97.31
229.496	100.31
229.73	108.31
229.964	126.31
230.199	118.31
230.433	100.31
230.667	92.31
230.901	96.31
231.136	111.31
231.37	109.31
231.604	103.31
231.838	103.31
232.072	111.31
232.306	122.31
232.541	103.31
232.775	84.31
233.009	110.31
233.243	101.31
233.477	111.31
233.711	110.31
233.945	106.31
234.179	113.31
234.413	117.31
234.647	108.31
234.881	115.31
235.115	110.31
235.349	108.31
235.583	100.31
235.817	98.31
236.051	104.31
236.285	113.31
236.519	110.31
236.753	112.31
236.987	126.31
237.221	144.31
237.455	183.31
237.689	175.31
237.922	146.31
238.156	107.31
238.39	128.31
238.624	126.31
238.858	116.31
239.091	106.31
239.325	125.31
239.559	123.31
239.793	130.31
240.027	121.31
240.26	133.31
240.494	141.31
240.728	132.31
240.961	145.31
241.195	128.31
241.429	120.31
241.662	118.31
241.896	93.31
242.13	116.31
242.363	118.31
242.597	125.31
242.83	126.31
243.064	136.31
243.298	103.31
243.531	125.31
243.765	132.31
243.998	133.31
244.232	117.31
244.465	129.31
244.699	137.31
244.932	113.31
245.166	131.31
245.399	130.31
245.633	134.31
245.866	109.31
246.099	132.31
246.333	132.31
246.566	129.31
246.8	126.31
247.033	128.31
247.266	141.31
247.5	136.31
247.733	136.31
247.966	140.31
248.2	144.31
248.433	137.31
248.666	149.31
248.899	162.31
249.133	158.31
249.366	170.31
249.599	167.31
249.832	148.31
250.066	166.31
250.299	150.31
250.532	168.31
250.765	180.31
250.998	189.31
251.231	199.31
251.465	189.31
251.698	183.31
251.931	174.31
252.164	160.31
252.397	168.31
252.63	172.31
252.863	171.31
253.096	188.31
253.329	200.31
253.562	172.31
253.795	191.31
254.028	184.31
254.261	184.31
254.494	191.31
254.727	221.31
254.96	227.31
255.193	218.31
255.426	215.31
255.659	203.31
255.892	187.31
256.124	193.31
256.357	201.31
256.59	180.31
256.823	191.31
257.056	181.31
257.289	176.31
257.521	186.31
257.754	182.31
257.987	173.31
258.22	188.31
258.452	178.31
258.685	175.31
258.918	172.31
259.151	170.31
259.383	168.31
259.616	181.31
259.849	192.31
260.081	188.31
260.314	205.31
260.547	210.31
260.779	199.31
261.012	210.31
261.244	190.31
261.477	178.31
261.71	188.31
261.942	177.31
262.175	186.31
262.407	172.31
262.64	194.31
262.872	171.31
263.105	176.31
263.337	160.31
263.57	174.31
263.802	184.31
264.035	166.31
264.267	184.31
264.499	173.31
264.732	182.31
264.964	171.31
265.197	168.31
265.429	166.31
265.661	178.31
265.894	191.31
266.126	202.31
266.358	177.31
266.591	173.31
266.823	175.31
267.055	189.31
267.287	186.31
267.52	200.31
267.752	176.31
267.984	180.31
268.216	186.31
268.448	180.31
268.681	189.31
268.913	199.31
269.145	213.31
269.377	228.31
269.609	231.31
269.841	212.31
270.073	223.31
270.306	246.31
270.538	241.31
270.77	219.31
271.002	244.31
271.234	244.31
271.466	250.31
271.698	262.31
271.93	269.31
272.162	258.31
272.394	260.31
272.626	229.31
272.858	225.31
273.09	226.31
273.322	227.31
273.553	221.31
273.785	215.31
274.017	198.31
274.249	218.31
274.481	225.31
274.713	226.31
274.945	213.31
275.176	221.31
275.408	211.31
275.64	216.31
275.872	229.31
276.104	207.31
276.335	222.31
276.567	216.31
276.799	245.31
277.031	246.31
277.262	270.31
277.494	262.31
277.726	244.31
277.957	231.31
278.189	210.31
278.421	221.31
278.652	214.31
278.884	227.31
279.115	225.31
279.347	209.31
279.579	217.31
279.81	223.31
280.042	201.31
280.273	208.31
280.505	210.31
280.736	221.31
280.968	208.31
281.199	217.31
281.431	205.31
281.662	206.31
281.894	201.31
282.125	211.31
282.356	231.31
282.588	234.31
282.819	234.31
283.051	225.31
283.282	219.31
283.513	230.31
283.745	215.31
283.976	224.31
284.207	214.31
284.439	209.31
284.67	216.31
284.901	206.31
285.132	213.31
285.364	217.31
285.595	221.31
285.826	214.31
286.057	228.31
286.288	212.31
286.52	215.31
286.751	206.31
286.982	228.31
287.213	221.31
287.444	223.31
287.675	226.31
287.906	231.31
288.138	242.31
288.369	229.31
288.6	238.31
288.831	222.31
289.062	217.31
289.293	209.31
289.524	222.31
289.755	234.31
289.986	223.31
290.217	227.31
290.448	210.31
290.679	227.31
290.91	217.31
291.141	206.31
291.371	220.31
291.602	213.31
291.833	229.31
292.064	221.31
292.295	202.31
292.526	224.31
292.757	236.31
292.987	228.31
293.218	212.31
293.449	210.31
293.68	222.31
293.91	221.31
294.141	234.31
294.372	225.31
294.603	223.31
294.833	221.31
295.064	230.31
295.295	221.31
295.525	240.31
295.756	247.31
295.987	221.31
296.217	240.31
296.448	232.31
296.679	248.31
296.909	225.31
297.14	244.31
297.37	226.31
297.601	242.31
297.831	223.31
298.062	225.31
298.292	215.31
298.523	229.31
298.753	232.31
298.984	230.31
299.214	245.31
299.445	221.31
299.675	226.31
299.905	256.31
300.136	256.31
300.366	239.31
300.597	252.31
300.827	247.31
301.057	264.31
301.288	255.31
301.518	256.31
301.748	238.31
301.979	258.31
302.209	253.31
302.439	244.31
302.669	248.31
302.9	256.31
303.13	264.31
303.36	252.31
303.59	272.31
303.82	259.31
304.051	262.31
304.281	252.31
304.511	263.31
304.741	237.31
304.971	256.31
305.201	260.31
305.431	248.31
305.661	247.31
305.891	239.31
306.121	253.31
306.352	265.31
306.582	253.31
306.812	231.31
307.042	240.31
307.272	242.31
307.502	264.31
307.731	249.31
307.961	256.31
308.191	250.31
308.421	261.31
308.651	276.31
308.881	274.31
309.111	254.31
309.341	249.31
309.571	269.31
309.8	273.31
310.03	280.31
310.26	298.31
310.49	314.31
310.72	310.31
310.949	327.31
311.179	308.31
311.409	286.31
311.639	299.31
311.868	286.31
312.098	303.31
312.328	307.31
312.557	322.31
312.787	332.31
313.017	325.31
313.246	302.31
313.476	315.31
313.706	295.31
313.935	299.31
314.165	301.31
314.394	317.31
314.624	301.31
314.853	291.31
315.083	320.31
315.312	294.31
315.542	297.31
315.771	295.31
316.001	295.31
316.23	301.31
316.46	285.31
316.689	286.31
316.919	281.31
317.148	302.31
317.377	290.31
317.607	305.31
317.836	295.31
318.065	300.31
318.295	275.31
318.524	288.31
318.753	297.31
318.983	306.31
319.212	292.31
319.441	302.31
319.67	289.31
319.9	316.31
320.129	309.31
320.358	296.31
320.587	295.31
320.816	309.31
321.046	316.31
321.275	320.31
321.504	309.31
321.733	324.31
321.962	329.31
322.191	344.31
322.42	349.31
322.649	369.31
322.878	372.31
323.108	388.31
323.337	373.31
323.566	408.31
323.795	448.31
324.024	479.31
324.253	640.31
324.482	941.31
324.71	1402.31
324.939	1849.31
325.168	1501.31
325.397	785.31
325.626	527.31
325.855	448.31
326.084	411.31
326.313	425.31
326.542	417.31
326.77	476.31
326.999	578.31
327.228	841.31
327.457	1198.31
327.686	1328.31
327.914	876.31
328.143	577.31
328.372	500.31
328.6	487.31
328.829	467.31
329.058	458.31
329.287	484.31
329.515	428.31
329.744	412.31
329.972	398.31
330.201	416.31
330.43	463.31
330.658	462.31
330.887	479.31
331.115	452.31
331.344	401.31
331.572	383.31
331.801	388.31
332.03	376.31
332.258	366.31
332.486	346.31
332.715	344.31
332.943	348.31
333.172	332.31
333.4	333.31
333.629	349.31
333.857	362.31
334.085	366.31
334.314	394.31
334.542	396.31
334.771	400.31
334.999	364.31
335.227	346.31
335.455	352.31
335.684	352.31
335.912	336.31
336.14	354.31
336.369	348.31
336.597	338.31
336.825	346.31
337.053	348.31
337.281	320.31
337.51	324.31
337.738	338.31
337.966	328.31
338.194	338.31
338.422	338.31
338.65	330.31
338.878	307.31
339.106	316.31
339.334	319.31
339.562	303.31
339.79	305.31
340.018	326.31
340.246	314.31
340.474	337.31
340.702	308.31
340.93	308.31
341.158	317.31
341.386	297.31
341.614	323.31
341.842	336.31
342.07	303.31
342.298	326.31
342.526	321.31
342.754	304.31
342.981	299.31
343.209	302.31
343.437	302.31
343.665	314.31
343.893	309.31
344.12	323.31
344.348	318.31
344.576	332.31
344.804	335.31
345.031	344.31
345.259	323.31
345.487	343.31
345.714	339.31
345.942	317.31
346.17	317.31
346.397	317.31
346.625	320.31
346.853	317.31
347.08	308.31
347.308	300.31
347.535	320.31
347.763	332.31
347.99	318.31
348.218	324.31
348.445	316.31
348.673	328.31
348.9	315.31
349.128	310.31
349.355	321.31
349.583	301.31
349.81	296.31
350.037	310.31
350.265	292.31
350.492	305.31
350.72	305.31
350.947	324.31
351.174	313.31
351.402	324.31
351.629	320.31
351.856	317.31
352.083	329.31
352.311	300.31
352.538	336.31
352.765	349.31
352.992	320.31
353.22	311.31
353.447	316.31
353.674	308.31
353.901	284.31
354.128	267.31
354.355	283.31
354.583	266.31
354.81	289.31
355.037	293.31
355.264	295.31
355.491	293.31
355.718	280.31
355.945	284.31
356.172	293.31
356.399	269.31
356.626	287.31
356.853	285.31
357.08	266.31
357.307	290.31
357.534	294.31
357.761	285.31
357.988	289.31
358.215	286.31
358.441	286.31
358.668	282.31
358.895	285.31
359.122	282.31
359.349	297.31
359.576	312.31
359.802	327.31
360.029	335.31
360.256	336.31
360.483	336.31
360.709	319.31
360.936	303.31
361.163	320.31
361.39	318.31
361.616	292.31
361.843	296.31
362.07	299.31
362.296	291.31
362.523	286.31
362.749	297.31
362.976	287.31
363.203	312.31
363.429	288.31
363.656	288.31
363.882	274.31
364.109	264.31
364.335	301.31
364.562	306.31
364.788	281.31
365.015	300.31
365.241	289.31
365.468	303.31
365.694	302.31
365.92	292.31
366.147	303.31
366.373	303.31
366.599	273.31
366.826	272.31
367.052	286.31
367.278	298.31
367.505	275.31
367.731	283.31
367.957	261.31
368.184	283.31
368.41	289.31
368.636	295.31
368.862	288.31
369.089	295.31
369.315	275.31
369.541	282.31
369.767	281.31
369.993	285.31
370.219	288.31
370.445	280.31
370.672	278.31
370.898	274.31
371.124	271.31
371.35	249.31
371.576	270.31
371.802	270.31
372.028	265.31
372.254	269.31
372.48	269.31
372.706	274.31
372.932	286.31
373.158	282.31
373.384	287.31
373.61	300.31
373.835	277.31
374.061	292.31
374.287	281.31
374.513	278.31
374.739	283.31
374.965	280.31
375.191	270.31
375.416	284.31
375.642	266.31
375.868	277.31
376.094	275.31
376.319	263.31
376.545	272.31
376.771	287.31
376.997	267.31
377.222	268.31
377.448	272.31
377.674	269.31
377.899	291.31
378.125	272.31
378.35	278.31
378.576	264.31
378.802	275.31
379.027	276.31
379.253	263.31
379.478	272.31
379.704	280.31
379.929	285.31
380.155	283.31
380.38	281.31
380.606	289.31
380.831	275.31
381.057	285.31
381.282	271.31
381.507	249.31
381.733	287.31
381.958	273.31
382.184	296.31
382.409	265.31
382.634	273.31
382.86	276.31
383.085	289.31
383.31	274.31
383.535	271.31
383.761	259.31
383.986	271.31
384.211	268.31
384.436	264.31
384.662	283.31
384.887	274.31
385.112	288.31
385.337	270.31
385.562	281.31
385.787	286.31
386.013	282.31
386.238	299.31
386.463	293.31
386.688	264.31
386.913	284.31
387.138	257.31
387.363	276.31
387.588	299.31
387.813	286.31
388.038	285.31
388.263	273.31
388.488	270.31
388.713	255.31
388.938	277.31
389.163	309.31
389.387	269.31
389.612	289.31
389.837	268.31
390.062	282.31
390.287	292.31
390.512	289.31
390.736	288.31
390.961	284.31
391.186	284.31
391.411	267.31
391.636	289.31
391.86	289.31
392.085	284.31
392.31	282.31
392.534	282.31
392.759	268.31
392.984	285.31
393.208	267.31
393.433	264.31
393.658	268.31
393.882	280.31
394.107	280.31
394.331	289.31
394.556	290.31
394.78	300.31
395.005	282.31
395.229	286.31
395.454	290.31
395.678	300.31
395.903	317.31
396.127	305.31
396.352	295.31
396.576	306.31
396.801	285.31
397.025	288.31
397.249	293.31
397.474	308.31
397.698	309.31
397.922	313.31
398.147	298.31
398.371	315.31
398.595	306.31
398.82	308.31
399.044	325.31
399.268	296.31
399.492	329.31
399.717	352.31
399.941	361.31
400.165	352.31
400.389	378.31
400.613	338.31
400.837	338.31
401.062	333.31
401.286	302.31
401.51	323.31
401.734	314.31
401.958	297.31
402.182	312.31
402.406	347.31
402.63	340.31
402.854	308.31
403.078	331.31
403.302	313.31
403.526	329.31
403.75	314.31
403.974	328.31
404.198	308.31
404.422	328.31
404.645	326.31
404.869	331.31
405.093	347.31
405.317	380.31
405.541	388.31
405.765	353.31
405.988	361.31
406.212	373.31
406.436	374.31
406.66	361.31
406.883	342.31
407.107	359.31
407.331	404.31
407.555	417.31
407.778	392.31
408.002	364.31
408.226	373.31
408.449	361.31
408.673	350.31
408.896	366.31
409.12	380.31
409.344	352.31
409.567	353.31
409.791	336.31
410.014	343.31
410.238	316.31
410.461	317.31
410.685	327.31
410.908	352.31
411.132	362.31
411.355	375.31
411.578	357.31
411.802	327.31
412.025	321.31
412.249	352.31
412.472	346.31
412.695	384.31
412.919	364.31
413.142	326.31
413.365	304.31
413.589	302.31
413.812	318.31
414.035	318.31
414.258	292.31
414.482	297.31
414.705	288.31
414.928	273.31
415.151	295.31
415.374	295.31
415.597	303.31
415.821	309.31
416.044	296.31
416.267	307.31
416.49	288.31
416.713	298.31
416.936	304.31
417.159	298.31
417.382	296.31
417.605	299.31
417.828	314.31
418.051	308.31
418.274	326.31
418.497	303.31
418.72	302.31
418.943	300.31
419.166	299.31
419.389	316.31
419.611	322.31
419.834	321.31
420.057	329.31
420.28	343.31
420.503	309.31
420.726	328.31
420.948	345.31
421.171	350.31
421.394	368.31
421.617	345.31
421.839	318.31
422.062	320.31
422.285	313.31
422.507	365.31
422.73	406.31
422.953	387.31
423.175	333.31
423.398	322.31
423.621	346.31
423.843	345.31
424.066	350.31
424.288	338.31
424.511	370.31
424.733	390.31
424.956	446.31
425.178	424.31
425.401	414.31
425.623	443.31
425.846	376.31
426.068	349.31
426.291	357.31
426.513	350.31
426.735	354.31
426.958	374.31
427.18	433.31
427.402	512.31
427.625	559.31
427.847	511.31
428.069	441.31
428.292	388.31
428.514	347.31
428.736	335.31
428.958	330.31
429.181	321.31
429.403	321.31
429.625	348.31
429.847	373.31
430.069	398.31
430.292	402.31
430.514	349.31
430.736	340.31
430.958	312.31
431.18	321.31
431.402	321.31
431.624	305.31
431.846	317.31
432.068	307.31
432.29	316.31
432.512	307.31
432.734	313.31
432.956	319.31
433.178	316.31
433.4	309.31
433.622	293.31
433.844	315.31
434.066	302.31
434.287	298.31
434.509	300.31
434.731	302.31
434.953	324.31
435.175	338.31
435.397	333.31
435.618	341.31
435.84	380.31
436.062	448.31
436.284	480.31
436.505	395.31
436.727	389.31
436.949	332.31
437.17	318.31
437.392	324.31
437.614	316.31
437.835	373.31
438.057	451.31
438.278	506.31
438.5	492.31
438.721	514.31
438.943	495.31
439.165	422.31
439.386	380.31
439.608	368.31
439.829	376.31
440.05	384.31
440.272	408.31
440.493	412.31
440.715	364.31
440.936	347.31
441.158	333.31
441.379	331.31
441.6	345.31
441.822	363.31
442.043	380.31
442.264	424.31
442.486	467.31
442.707	380.31
442.928	358.31
443.149	367.31
443.371	374.31
443.592	408.31
443.813	470.31
444.034	485.31
444.255	409.31
444.476	352.31
444.698	353.31
444.919	359.31
445.14	453.31
445.361	407.31
445.582	382.31
445.803	422.31
446.024	508.31
446.245	493.31
446.466	448.31
446.687	385.31
446.908	365.31
447.129	334.31
447.35	331.31
447.571	311.31
447.792	318.31
448.013	321.31
448.234	347.31
448.455	385.31
448.675	458.31
448.896	518.31
449.117	456.31
449.338	437.31
449.559	482.31
449.779	541.31
450	432.31
450.221	373.31
450.442	365.31
450.662	324.31
450.883	334.31
451.104	357.31
451.324	308.31
451.545	319.31
451.766	296.31
451.986	306.31
452.207	315.31
452.428	292.31
452.648	280.31
452.869	303.31
453.089	298.31
453.31	322.31
453.53	312.31
453.751	304.31
453.971	299.31
454.192	336.31
454.412	306.31
454.633	288.31
454.853	294.31
455.073	293.31
455.294	297.31
455.514	374.31
455.734	328.31
455.955	299.31
456.175	294.31
456.395	278.31
456.616	279.31
456.836	290.31
457.056	278.31
457.276	290.31
457.497	284.31
457.717	283.31
457.937	279.31
458.157	284.31
458.377	288.31
458.598	310.31
458.818	359.31
459.038	382.31
459.258	396.31
459.478	352.31
459.698	328.31
459.918	296.31
460.138	310.31
460.358	290.31
460.578	276.31
460.798	303.31
461.018	301.31
461.238	289.31
461.458	295.31
461.678	293.31
461.898	294.31
462.118	285.31
462.338	298.31
462.558	290.31
462.777	313.31
462.997	318.31
463.217	311.31
463.437	311.31
463.657	329.31
463.876	300.31
464.096	310.31
464.316	322.31
464.536	323.31
464.755	345.31
464.975	330.31
465.195	353.31
465.414	407.31
465.634	362.31
465.854	329.31
466.073	326.31
466.293	288.31
466.512	303.31
466.732	286.31
466.951	287.31
467.171	320.31
467.391	319.31
467.61	309.31
467.829	310.31
468.049	289.31
468.268	293.31
468.488	294.31
468.707	297.31
468.927	308.31
469.146	308.31
469.365	286.31
469.585	289.31
469.804	313.31
470.023	298.31
470.243	292.31
470.462	288.31
470.681	322.31
470.901	313.31
471.12	312.31
471.339	313.31
471.558	306.31
471.777	321.31
471.997	288.31
472.216	297.31
472.435	356.31
472.654	312.31
472.873	325.31
473.092	300.31
473.311	312.31
473.53	309.31
473.749	309.31
473.968	338.31
474.187	424.31
474.406	408.31
474.625	336.31
474.844	316.31
475.063	290.31
475.282	284.31
475.501	312.31
475.72	316.31
475.939	289.31
476.158	292.31
476.377	295.31
476.596	303.31
476.814	295.31
477.033	319.31
477.252	320.31
477.471	328.31
477.69	330.31
477.908	315.31
478.127	320.31
478.346	315.31
478.564	340.31
478.783	313.31
479.002	320.31
479.22	354.31
479.439	346.31
479.658	372.31
479.876	380.31
480.095	367.31
480.313	372.31
480.532	366.31
480.751	362.31
480.969	359.31
481.188	428.31
481.406	446.31
481.624	377.31
481.843	385.31
482.061	358.31
482.28	347.31
482.498	335.31
482.717	349.31
482.935	334.31
483.153	332.31
483.372	349.31
483.59	358.31
483.808	332.31
484.027	341.31
484.245	335.31
484.463	358.31
484.681	350.31
484.9	360.31
485.118	358.31
485.336	347.31
485.554	365.31
485.772	361.31
485.99	366.31
486.209	364.31
486.427	365.31
486.645	372.31
486.863	382.31
487.081	365.31
487.299	380.31
487.517	386.31
487.735	378.31
487.953	378.31
488.171	384.31
488.389	377.31
488.607	388.31
488.825	395.31
489.043	393.31
489.261	392.31
489.479	376.31
489.696	381.31
489.914	375.31
490.132	383.31
490.35	377.31
490.568	389.31
490.786	387.31
491.003	395.31
491.221	412.31
491.439	430.31
491.657	414.31
491.874	417.31
492.092	428.31
492.31	440.31
492.527	422.31
492.745	412.31
492.963	421.31
493.18	437.31
493.398	438.31
493.615	421.31
493.833	456.31
494.05	425.31
494.268	457.31
494.485	431.31
494.703	428.31
494.92	448.31
495.138	445.31
495.355	429.31
495.573	465.31
495.79	433.31
496.008	425.31
496.225	430.31
496.442	457.31
496.66	430.31
496.877	432.31
497.094	440.31
497.312	431.31
497.529	441.31
497.746	474.31
497.963	472.31
498.181	468.31
498.398	472.31
498.615	465.31
498.832	455.31
499.049	469.31
499.267	484.31
499.484	482.31
499.701	503.31
499.918	500.31
500.135	514.31
500.352	534.31
500.569	537.31
500.786	527.31
501.003	522.31
501.22	536.31
501.437	526.31
501.654	524.31
501.871	520.31
502.088	516.31
502.305	492.31
502.522	479.31
502.739	447.31
502.956	445.31
503.172	462.31
503.389	466.31
503.606	461.31
503.823	452.31
504.04	459.31
504.256	448.31
504.473	446.31
504.69	425.31
504.907	440.31
505.123	413.31
505.34	440.31
505.557	436.31
505.773	424.31
505.99	446.31
506.207	440.31
506.423	440.31
506.64	427.31
506.856	406.31
507.073	426.31
507.289	420.31
507.506	416.31
507.722	423.31
507.939	441.31
508.155	424.31
508.372	438.31
508.588	414.31
508.805	424.31
509.021	422.31
509.238	409.31
509.454	427.31
509.67	419.31
509.887	414.31
510.103	447.31
510.319	442.31
510.536	515.31
510.752	804.31
510.968	635.31
511.184	450.31
511.401	392.31
511.617	418.31
511.833	415.31
512.049	389.31
512.265	396.31
512.481	416.31
512.698	373.31
512.914	372.31
513.13	382.31
513.346	404.31
513.562	399.31
513.778	405.31
513.994	396.31
514.21	418.31
514.426	409.31
514.642	470.31
514.858	481.31
515.074	506.31
515.29	616.31
515.506	892.31
515.721	688.31
515.937	494.31
516.153	430.31
516.369	441.31
516.585	406.31
516.801	424.31
517.016	413.31
517.232	378.31
517.448	392.31
517.664	390.31
517.879	403.31
518.095	395.31
518.311	384.31
518.527	389.31
518.742	378.31
518.958	384.31
519.173	395.31
519.389	388.31
519.605	374.31
519.82	393.31
520.036	405.31
520.251	422.31
520.467	444.31
520.682	440.31
520.898	448.31
521.113	476.31
521.329	483.31
521.544	532.31
521.76	736.31
521.975	1189.31
522.19	1114.31
522.406	619.31
522.621	466.31
522.836	408.31
523.052	379.31
523.267	390.31
523.482	383.31
523.698	349.31
523.913	354.31
524.128	374.31
524.343	376.31
524.559	353.31
524.774	349.31
524.989	342.31
525.204	334.31
525.419	347.31
525.634	346.31
525.849	338.31
526.064	326.31
526.28	329.31
526.495	337.31
526.71	309.31
526.925	336.31
527.14	321.31
527.355	318.31
527.57	320.31
527.785	306.31
527.999	307.31
528.214	320.31
528.429	308.31
528.644	332.31
528.859	302.31
529.074	317.31
529.289	324.31
529.503	411.31
529.718	391.31
529.933	336.31
530.148	328.31
530.363	339.31
530.577	327.31
530.792	304.31
531.007	299.31
531.221	295.31
531.436	308.31
531.651	303.31
531.865	302.31
532.08	312.31
532.295	312.31
532.509	301.31
532.724	291.31
532.938	296.31
533.153	299.31
533.367	298.31
533.582	308.31
533.796	318.31
534.011	304.31
534.225	304.31
534.44	300.31
534.654	288.31
534.868	289.31
535.083	275.31
535.297	276.31
535.511	305.31
535.726	313.31
535.94	310.31
536.154	295.31
536.369	303.31
536.583	303.31
536.797	290.31
537.011	281.31
537.225	298.31
537.44	290.31
537.654	299.31
537.868	285.31
538.082	293.31
538.296	303.31
538.51	300.31
538.724	310.31
538.938	289.31
539.153	298.31
539.367	297.31
539.581	312.31
539.795	282.31
540.009	293.31
540.222	300.31
540.436	302.31
540.65	286.31
540.864	298.31
541.078	294.31
541.292	277.31
541.506	304.31
541.72	295.31
541.934	285.31
542.147	284.31
542.361	301.31
542.575	287.31
542.789	290.31
543.002	294.31
543.216	304.31
543.43	300.31
543.644	291.31
543.857	315.31
544.071	287.31
544.285	287.31
544.498	296.31
544.712	274.31
544.925	298.31
545.139	272.31
545.352	275.31
545.566	297.31
545.779	288.31
545.993	282.31
546.206	284.31
546.42	280.31
546.633	310.31
546.847	297.31
547.06	286.31
547.274	300.31
547.487	283.31
547.7	273.31
547.914	290.31
548.127	265.31
548.34	275.31
548.554	283.31
548.767	297.31
548.98	268.31
549.193	282.31
549.407	284.31
549.62	314.31
549.833	292.31
550.046	268.31
550.259	283.31
550.473	269.31
550.686	279.31
550.899	274.31
551.112	263.31
551.325	283.31
551.538	279.31
551.751	258.31
551.964	253.31
552.177	263.31
552.39	279.31
552.603	276.31
552.816	262.31
553.029	274.31
553.242	275.31
553.455	285.31
553.667	276.31
553.88	292.31
554.093	289.31
554.306	288.31
554.519	279.31
554.732	273.31
554.944	260.31
555.157	249.31
555.37	245.31
555.583	268.31
555.795	247.31
556.008	272.31
556.221	261.31
556.433	270.31
556.646	255.31
556.859	246.31
557.071	270.31
557.284	251.31
557.496	252.31
557.709	240.31
557.921	261.31
558.134	242.31
558.346	248.31
558.559	240.31
558.771	264.31
558.984	236.31
559.196	241.31
559.409	259.31
559.621	268.31
559.833	272.31
560.046	266.31
560.258	234.31
560.47	261.31
560.683	247.31
560.895	249.31
561.107	248.31
561.32	245.31
561.532	251.31
561.744	267.31
561.956	255.31
562.168	250.31
562.381	249.31
562.593	239.31
562.805	234.31
563.017	241.31
563.229	235.31
563.441	262.31
563.653	244.31
563.865	259.31
564.077	238.31
564.289	236.31
564.501	262.31
564.713	258.31
564.925	262.31
565.137	257.31
565.349	264.31
565.561	246.31
565.773	262.31
565.985	261.31
566.197	241.31
566.408	265.31
566.62	260.31
566.832	285.31
567.044	281.31
567.255	276.31
567.467	270.31
567.679	295.31
567.891	282.31
568.102	282.31
568.314	269.31
568.526	271.31
568.737	259.31
568.949	263.31
569.161	263.31
569.372	250.31
569.584	262.31
569.795	251.31
570.007	264.31
570.218	271.31
570.43	275.31
570.641	244.31
570.853	243.31
571.064	254.31
571.276	244.31
571.487	239.31
571.698	246.31
571.91	220.31
572.121	239.31
572.333	233.31
572.544	232.31
572.755	224.31
572.966	227.31
573.178	229.31
573.389	237.31
573.6	232.31
573.811	230.31
574.023	222.31
574.234	224.31
574.445	223.31
574.656	229.31
574.867	229.31
575.078	215.31
575.289	226.31
575.501	238.31
575.712	197.31
575.923	208.31
576.134	215.31
576.345	219.31
576.556	219.31
576.767	219.31
576.978	213.31
577.188	231.31
577.399	224.31
577.61	209.31
577.821	215.31
578.032	216.31
578.243	249.31
578.454	388.31
578.665	301.31
578.875	221.31
579.086	224.31
579.297	208.31
579.508	205.31
579.718	203.31
579.929	203.31
580.14	210.31
580.35	190.31
580.561	191.31
580.772	200.31
580.982	210.31
581.193	204.31
581.403	202.31
581.614	205.31
581.825	192.31
582.035	204.31
582.246	210.31
582.456	215.31
582.667	205.31
582.877	200.31
583.087	201.31
583.298	217.31
583.508	206.31
583.719	202.31
583.929	205.31
584.139	213.31
584.35	203.31
584.56	200.31
584.77	205.31
584.981	194.31
585.191	217.31
585.401	201.31
585.611	212.31
585.821	210.31
586.032	195.31
586.242	221.31
586.452	210.31
586.662	211.31
586.872	193.31
587.082	191.31
587.292	196.31
587.502	189.31
587.713	208.31
587.923	209.31
588.133	183.31
588.343	196.31
588.553	196.31
588.762	190.31
588.972	202.31
589.182	201.31
589.392	194.31
589.602	217.31
589.812	201.31
590.022	190.31
590.232	198.31
590.441	194.31
590.651	199.31
590.861	191.31
591.071	188.31
591.281	193.31
591.49	192.31
591.7	213.31
591.91	204.31
592.119	191.31
592.329	196.31
592.539	197.31
592.748	198.31
592.958	222.31
593.167	190.31
593.377	202.31
593.587	200.31
593.796	207.31
594.006	192.31
594.215	215.31
594.424	210.31
594.634	202.31
594.843	206.31
595.053	202.31
595.262	192.31
595.472	187.31
595.681	201.31
595.89	197.31
596.1	197.31
596.309	186.31
596.518	212.31
596.727	188.31
596.937	192.31
597.146	203.31
597.355	182.31
597.564	184.31
597.774	191.31
597.983	190.31
598.192	166.31
598.401	207.31
598.61	184.31
598.819	176.31
599.028	168.31
599.237	176.31
599.446	167.31
599.655	176.31
599.864	170.31
600.073	170.31
600.282	188.31
600.491	178.31
600.7	165.31
600.909	175.31
601.118	185.31
601.327	172.31
601.536	182.31
601.745	170.31
601.953	177.31
602.162	196.31
602.371	174.31
602.58	176.31
602.789	170.31
602.997	161.31
603.206	188.31
603.415	174.31
603.623	168.31
603.832	175.31
604.041	174.31
604.249	163.31
604.458	172.31
604.666	185.31
604.875	156.31
605.084	162.31
605.292	167.31
605.501	166.31
605.709	177.31
605.918	176.31
606.126	174.31
606.334	175.31
606.543	192.31
606.751	170.31
606.96	184.31
607.168	176.31
607.376	180.31
607.585	164.31
607.793	168.31
608.001	177.31
608.21	157.31
608.418	171.31
608.626	173.31
608.834	179.31
609.043	182.31
609.251	161.31
609.459	174.31
609.667	175.31
609.875	189.31
610.083	169.31
610.291	175.31
610.499	177.31
610.707	165.31
610.916	187.31
611.124	187.31
611.332	185.31
611.54	185.31
611.748	182.31
611.955	162.31
612.163	185.31
612.371	186.31
612.579	174.31
612.787	180.31
612.995	176.31
613.203	174.31
613.411	175.31
613.618	168.31
613.826	173.31
614.034	153.31
614.242	168.31
614.449	166.31
614.657	177.31
614.865	166.31
615.072	164.31
615.28	168.31
615.488	164.31
615.695	164.31
615.903	160.31
616.111	152.31
616.318	172.31
616.526	173.31
616.733	184.31
616.941	177.31
617.148	181.31
617.356	170.31
617.563	177.31
617.771	164.31
617.978	157.31
618.185	160.31
618.393	173.31
618.6	164.31
618.807	159.31
619.015	174.31
619.222	164.31
619.429	169.31
619.637	161.31
619.844	170.31
620.051	154.31
620.258	157.31
620.466	162.31
620.673	175.31
620.88	160.31
621.087	172.31
621.294	158.31
621.501	183.31
621.708	159.31
621.915	152.31
622.122	159.31
622.329	156.31
622.536	156.31
622.743	170.31
622.95	160.31
623.157	145.31
623.364	144.31
623.571	160.31
623.778	173.31
623.985	158.31
624.192	156.31
624.399	148.31
624.606	165.31
624.812	160.31
625.019	161.31
625.226	150.31
625.433	164.31
625.639	148.31
625.846	144.31
626.053	152.31
626.259	162.31
626.466	159.31
626.673	156.31
626.879	147.31
627.086	169.31
627.293	138.31
627.499	158.31
627.706	144.31
627.912	141.31
628.119	155.31
628.325	157.31
628.532	143.31
628.738	142.31
628.945	140.31
629.151	156.31
629.357	162.31
629.564	152.31
629.77	142.31
629.976	154.31
630.183	170.31
630.389	151.31
630.595	170.31
630.802	158.31
631.008	153.31
631.214	147.31
631.42	162.31
631.627	153.31
631.833	147.31
632.039	129.31
632.245	130.31
632.451	151.31
632.657	147.31
632.863	142.31
633.069	132.31
633.275	143.31
633.481	128.31
633.688	153.31
633.893	134.31
634.099	146.31
634.305	143.31
634.511	142.31
634.717	141.31
634.923	132.31
635.129	139.31
635.335	164.31
635.541	133.31
635.747	138.31
635.952	114.31
636.158	132.31
636.364	136.31
636.57	149.31
636.775	157.31
636.981	139.31
637.187	148.31
637.392	147.31
637.598	161.31
637.804	146.31
638.009	135.31
638.215	123.31
638.421	147.31
638.626	149.31
638.832	138.31
639.037	134.31
639.243	122.31
639.448	144.31
639.654	122.31
639.859	151.31
640.065	142.31
640.27	128.31
640.475	128.31
640.681	162.31
640.886	142.31
641.091	136.31
641.297	140.31
641.502	133.31
641.707	143.31
641.913	153.31
642.118	136.31
642.323	128.31
642.528	139.31
642.733	138.31
642.939	147.31
643.144	136.31
643.349	133.31
643.554	136.31
643.759	124.31
643.964	145.31
644.169	146.31
644.374	131.31
644.579	139.31
644.784	135.31
644.989	116.31
645.194	119.31
645.399	131.31
645.604	123.31
645.809	137.31
646.014	142.31
646.219	135.31
646.423	139.31
646.628	126.31
646.833	126.31
647.038	138.31
647.243	142.31
647.447	146.31
647.652	132.31
647.857	131.31
648.062	130.31
648.266	132.31
648.471	118.31
648.676	145.31
648.88	132.31
649.085	140.31
649.289	146.31
649.494	126.31
649.698	146.31
649.903	148.31
650.107	137.31
650.312	126.31
650.516	133.31
650.721	118.31
650.925	137.31
651.13	120.31
651.334	132.31
651.539	130.31
651.743	126.31
651.947	117.31
652.152	117.31
652.356	128.31
652.56	133.31
652.764	124.31
652.969	124.31
653.173	113.31
653.377	128.31
653.581	111.31
653.785	120.31
653.99	124.31
654.194	124.31
654.398	119.31
654.602	100.31
654.806	126.31
655.01	118.31
655.214	126.31
655.418	137.31
655.622	122.31
655.826	129.31
656.03	133.31
656.234	109.31
656.438	127.31
656.642	128.31
656.846	122.31
657.049	127.31
657.253	110.31
657.457	120.31
657.661	108.31
657.865	118.31
658.068	91.31
658.272	98.31
658.476	106.31
658.68	88.31
658.883	84.31
659.087	103.31
659.291	100.31
659.494	116.31
659.698	102.31
659.901	102.31
660.105	98.31
660.309	87.31
660.512	92.31
660.716	97.31
660.919	82.31
661.123	94.31
661.326	86.31
661.53	103.31
661.733	90.31
661.936	83.31
662.14	89.31
662.343	88.31
662.546	85.31
662.75	92.31
662.953	92.31
663.156	89.31
663.36	86.31
663.563	81.31
663.766	89.31
663.969	83.31
664.173	94.31
664.376	80.31
664.579	76.31
664.782	85.31
664.985	90.31
665.188	90.31
665.391	81.31
665.594	91.31
665.797	92.31
666	71.31
666.203	77.31
666.406	91.31
666.609	80.31
666.812	84.31
667.015	81.31
667.218	77.31
667.421	82.31
667.624	86.31
667.827	78.31
668.03	88.31
668.232	94.31
668.435	88.31
668.638	73.31
668.841	80.31
669.043	92.31
669.246	99.31
669.449	79.31
669.651	87.31
669.854	91.31
670.057	88.31
670.259	80.31
670.462	97.31
670.665	88.31
670.867	85.31
671.07	87.31
671.272	82.31
671.475	77.31
671.677	78.31
671.88	80.31
672.082	79.31
672.284	90.31
672.487	99.31
672.689	82.31
672.892	84.31
