Data from 1982.PennyLincolnUp.Lamp.En5.5.200Scan.071819.P1_HRD10591_16-46-51-962.txt Node
Date: Thu Jul 18 16:46:51 EDT 2019
User: cochatt
Spectrometer: HR+D1059
Trigger mode: 1
Integration Time (sec): 1.000000E-1
Scans to average: 1
Electric dark correction enabled: true
Nonlinearity correction enabled: false
Boxcar width: 0
XAxis mode: Wavelengths
Number of Pixels in Spectrum: 2048
>>>>>Begin Spectral Data<<<<<
223.165	-14.69
223.4	-14.69
223.635	-14.69
223.869	-19.69
224.104	-28.69
224.338	-17.69
224.573	-11.69
224.808	-26.69
225.042	0.31
225.277	-5.69
225.511	4.31
225.746	13.31
225.98	9.31
226.215	11.31
226.449	6.31
226.683	21.31
226.918	25.31
227.152	33.31
227.387	36.31
227.621	50.31
227.856	42.31
228.09	36.31
228.324	63.31
228.559	56.31
228.793	70.31
229.027	85.31
229.262	85.31
229.496	93.31
229.73	124.31
229.964	128.31
230.199	124.31
230.433	95.31
230.667	109.31
230.901	105.31
231.136	105.31
231.37	101.31
231.604	95.31
231.838	105.31
232.072	103.31
232.306	105.31
232.541	100.31
232.775	94.31
233.009	88.31
233.243	103.31
233.477	109.31
233.711	103.31
233.945	100.31
234.179	97.31
234.413	117.31
234.647	94.31
234.881	92.31
235.115	88.31
235.349	113.31
235.583	112.31
235.817	106.31
236.051	107.31
236.285	102.31
236.519	105.31
236.753	114.31
236.987	114.31
237.221	160.31
237.455	183.31
237.689	151.31
237.922	125.31
238.156	107.31
238.39	122.31
238.624	109.31
238.858	104.31
239.091	101.31
239.325	113.31
239.559	109.31
239.793	95.31
240.027	116.31
240.26	143.31
240.494	121.31
240.728	123.31
240.961	118.31
241.195	113.31
241.429	126.31
241.662	120.31
241.896	109.31
242.13	118.31
242.363	113.31
242.597	109.31
242.83	107.31
243.064	114.31
243.298	116.31
243.531	128.31
243.765	118.31
243.998	121.31
244.232	116.31
244.465	130.31
244.699	122.31
244.932	125.31
245.166	109.31
245.399	128.31
245.633	130.31
245.866	120.31
246.099	113.31
246.333	123.31
246.566	119.31
246.8	128.31
247.033	120.31
247.266	139.31
247.5	134.31
247.733	145.31
247.966	139.31
248.2	139.31
248.433	138.31
248.666	140.31
248.899	140.31
249.133	159.31
249.366	169.31
249.599	161.31
249.832	134.31
250.066	146.31
250.299	143.31
250.532	156.31
250.765	158.31
250.998	174.31
251.231	177.31
251.465	186.31
251.698	158.31
251.931	166.31
252.164	170.31
252.397	158.31
252.63	164.31
252.863	160.31
253.096	157.31
253.329	186.31
253.562	191.31
253.795	164.31
254.028	171.31
254.261	174.31
254.494	186.31
254.727	211.31
254.96	205.31
255.193	211.31
255.426	194.31
255.659	201.31
255.892	184.31
256.124	188.31
256.357	184.31
256.59	188.31
256.823	170.31
257.056	148.31
257.289	163.31
257.521	166.31
257.754	160.31
257.987	164.31
258.22	183.31
258.452	158.31
258.685	178.31
258.918	163.31
259.151	168.31
259.383	173.31
259.616	180.31
259.849	171.31
260.081	183.31
260.314	212.31
260.547	197.31
260.779	193.31
261.012	191.31
261.244	181.31
261.477	173.31
261.71	187.31
261.942	176.31
262.175	208.31
262.407	169.31
262.64	180.31
262.872	165.31
263.105	178.31
263.337	181.31
263.57	186.31
263.802	181.31
264.035	164.31
264.267	158.31
264.499	171.31
264.732	175.31
264.964	185.31
265.197	158.31
265.429	180.31
265.661	168.31
265.894	185.31
266.126	170.31
266.358	155.31
266.591	176.31
266.823	186.31
267.055	180.31
267.287	171.31
267.52	170.31
267.752	182.31
267.984	186.31
268.216	159.31
268.448	190.31
268.681	185.31
268.913	204.31
269.145	200.31
269.377	224.31
269.609	189.31
269.841	212.31
270.073	230.31
270.306	212.31
270.538	234.31
270.77	243.31
271.002	243.31
271.234	214.31
271.466	240.31
271.698	231.31
271.93	244.31
272.162	258.31
272.394	242.31
272.626	233.31
272.858	229.31
273.09	220.31
273.322	223.31
273.553	210.31
273.785	219.31
274.017	195.31
274.249	203.31
274.481	209.31
274.713	217.31
274.945	219.31
275.176	207.31
275.408	213.31
275.64	210.31
275.872	212.31
276.104	203.31
276.335	223.31
276.567	205.31
276.799	218.31
277.031	243.31
277.262	248.31
277.494	249.31
277.726	240.31
277.957	224.31
278.189	215.31
278.421	230.31
278.652	224.31
278.884	216.31
279.115	212.31
279.347	203.31
279.579	206.31
279.81	205.31
280.042	221.31
280.273	188.31
280.505	211.31
280.736	200.31
280.968	195.31
281.199	207.31
281.431	217.31
281.662	224.31
281.894	213.31
282.125	201.31
282.356	203.31
282.588	227.31
282.819	233.31
283.051	226.31
283.282	216.31
283.513	212.31
283.745	197.31
283.976	204.31
284.207	206.31
284.439	219.31
284.67	221.31
284.901	220.31
285.132	213.31
285.364	209.31
285.595	207.31
285.826	213.31
286.057	212.31
286.288	212.31
286.52	202.31
286.751	221.31
286.982	207.31
287.213	204.31
287.444	209.31
287.675	218.31
287.906	217.31
288.138	222.31
288.369	222.31
288.6	226.31
288.831	232.31
289.062	218.31
289.293	230.31
289.524	222.31
289.755	206.31
289.986	216.31
290.217	206.31
290.448	222.31
290.679	214.31
290.91	224.31
291.141	231.31
291.371	224.31
291.602	212.31
291.833	217.31
292.064	209.31
292.295	206.31
292.526	218.31
292.757	214.31
292.987	209.31
293.218	219.31
293.449	202.31
293.68	218.31
293.91	202.31
294.141	218.31
294.372	212.31
294.603	228.31
294.833	228.31
295.064	219.31
295.295	235.31
295.525	214.31
295.756	238.31
295.987	236.31
296.217	247.31
296.448	254.31
296.679	213.31
296.909	220.31
297.14	220.31
297.37	218.31
297.601	210.31
297.831	234.31
298.062	224.31
298.292	228.31
298.523	216.31
298.753	227.31
298.984	217.31
299.214	227.31
299.445	239.31
299.675	237.31
299.905	227.31
300.136	237.31
300.366	233.31
300.597	232.31
300.827	244.31
301.057	231.31
301.288	242.31
301.518	249.31
301.748	226.31
301.979	252.31
302.209	233.31
302.439	241.31
302.669	258.31
302.9	225.31
303.13	242.31
303.36	240.31
303.59	252.31
303.82	248.31
304.051	266.31
304.281	238.31
304.511	248.31
304.741	232.31
304.971	222.31
305.201	240.31
305.431	236.31
305.661	256.31
305.891	259.31
306.121	252.31
306.352	244.31
306.582	239.31
306.812	247.31
307.042	253.31
307.272	255.31
307.502	246.31
307.731	242.31
307.961	258.31
308.191	248.31
308.421	240.31
308.651	254.31
308.881	235.31
309.111	243.31
309.341	256.31
309.571	264.31
309.8	287.31
310.03	279.31
310.26	288.31
310.49	284.31
310.72	296.31
310.949	324.31
311.179	307.31
311.409	280.31
311.639	287.31
311.868	266.31
312.098	297.31
312.328	288.31
312.557	296.31
312.787	296.31
313.017	323.31
313.246	293.31
313.476	280.31
313.706	271.31
313.935	304.31
314.165	286.31
314.394	304.31
314.624	289.31
314.853	304.31
315.083	287.31
315.312	281.31
315.542	284.31
315.771	277.31
316.001	284.31
316.23	253.31
316.46	283.31
316.689	278.31
316.919	293.31
317.148	282.31
317.377	299.31
317.607	319.31
317.836	290.31
318.065	296.31
318.295	284.31
318.524	280.31
318.753	302.31
318.983	291.31
319.212	273.31
319.441	297.31
319.67	291.31
319.9	295.31
320.129	288.31
320.358	291.31
320.587	291.31
320.816	297.31
321.046	305.31
321.275	300.31
321.504	297.31
321.733	305.31
321.962	314.31
322.191	311.31
322.42	329.31
322.649	341.31
322.878	352.31
323.108	347.31
323.337	395.31
323.566	404.31
323.795	426.31
324.024	473.31
324.253	614.31
324.482	875.31
324.71	1306.31
324.939	1779.31
325.168	1412.31
325.397	730.31
325.626	530.31
325.855	419.31
326.084	408.31
326.313	398.31
326.542	391.31
326.77	448.31
326.999	560.31
327.228	777.31
327.457	1129.31
327.686	1222.31
327.914	829.31
328.143	575.31
328.372	502.31
328.6	473.31
328.829	461.31
329.058	468.31
329.287	448.31
329.515	419.31
329.744	376.31
329.972	410.31
330.201	421.31
330.43	442.31
330.658	453.31
330.887	484.31
331.115	439.31
331.344	379.31
331.572	375.31
331.801	386.31
332.03	376.31
332.258	364.31
332.486	314.31
332.715	344.31
332.943	326.31
333.172	321.31
333.4	328.31
333.629	339.31
333.857	350.31
334.085	368.31
334.314	361.31
334.542	382.31
334.771	400.31
334.999	354.31
335.227	339.31
335.455	336.31
335.684	333.31
335.912	332.31
336.14	316.31
336.369	327.31
336.597	330.31
336.825	340.31
337.053	339.31
337.281	313.31
337.51	319.31
337.738	308.31
337.966	291.31
338.194	321.31
338.422	306.31
338.65	310.31
338.878	322.31
339.106	326.31
339.334	297.31
339.562	308.31
339.79	304.31
340.018	322.31
340.246	317.31
340.474	323.31
340.702	300.31
340.93	307.31
341.158	293.31
341.386	318.31
341.614	288.31
341.842	311.31
342.07	294.31
342.298	318.31
342.526	300.31
342.754	299.31
342.981	282.31
343.209	310.31
343.437	320.31
343.665	308.31
343.893	293.31
344.12	294.31
344.348	301.31
344.576	315.31
344.804	324.31
345.031	339.31
345.259	330.31
345.487	296.31
345.714	308.31
345.942	309.31
346.17	304.31
346.397	307.31
346.625	295.31
346.853	297.31
347.08	301.31
347.308	329.31
347.535	305.31
347.763	314.31
347.99	293.31
348.218	306.31
348.445	326.31
348.673	308.31
348.9	293.31
349.128	300.31
349.355	293.31
349.583	296.31
349.81	272.31
350.037	291.31
350.265	302.31
350.492	282.31
350.72	284.31
350.947	302.31
351.174	301.31
351.402	305.31
351.629	305.31
351.856	308.31
352.083	298.31
352.311	312.31
352.538	292.31
352.765	318.31
352.992	299.31
353.22	300.31
353.447	293.31
353.674	288.31
353.901	302.31
354.128	284.31
354.355	273.31
354.583	259.31
354.81	282.31
355.037	259.31
355.264	278.31
355.491	283.31
355.718	278.31
355.945	272.31
356.172	261.31
356.399	284.31
356.626	276.31
356.853	266.31
357.08	266.31
357.307	261.31
357.534	280.31
357.761	278.31
357.988	275.31
358.215	271.31
358.441	276.31
358.668	287.31
358.895	270.31
359.122	280.31
359.349	298.31
359.576	315.31
359.802	325.31
360.029	342.31
360.256	342.31
360.483	330.31
360.709	316.31
360.936	304.31
361.163	291.31
361.39	275.31
361.616	291.31
361.843	278.31
362.07	285.31
362.296	294.31
362.523	288.31
362.749	297.31
362.976	292.31
363.203	292.31
363.429	271.31
363.656	301.31
363.882	288.31
364.109	280.31
364.335	270.31
364.562	270.31
364.788	268.31
365.015	278.31
365.241	269.31
365.468	279.31
365.694	299.31
365.92	296.31
366.147	286.31
366.373	269.31
366.599	269.31
366.826	265.31
367.052	263.31
367.278	271.31
367.505	269.31
367.731	296.31
367.957	274.31
368.184	282.31
368.41	277.31
368.636	289.31
368.862	289.31
369.089	277.31
369.315	264.31
369.541	280.31
369.767	275.31
369.993	269.31
370.219	261.31
370.445	275.31
370.672	278.31
370.898	236.31
371.124	275.31
371.35	269.31
371.576	265.31
371.802	263.31
372.028	270.31
372.254	258.31
372.48	264.31
372.706	267.31
372.932	260.31
373.158	260.31
373.384	264.31
373.61	278.31
373.835	284.31
374.061	253.31
374.287	259.31
374.513	282.31
374.739	262.31
374.965	255.31
375.191	263.31
375.416	269.31
375.642	270.31
375.868	273.31
376.094	274.31
376.319	276.31
376.545	263.31
376.771	258.31
376.997	268.31
377.222	263.31
377.448	271.31
377.674	271.31
377.899	248.31
378.125	258.31
378.35	262.31
378.576	250.31
378.802	266.31
379.027	263.31
379.253	264.31
379.478	276.31
379.704	269.31
379.929	260.31
380.155	252.31
380.38	249.31
380.606	264.31
380.831	270.31
381.057	256.31
381.282	264.31
381.507	252.31
381.733	278.31
381.958	236.31
382.184	249.31
382.409	266.31
382.634	260.31
382.86	267.31
383.085	259.31
383.31	264.31
383.535	276.31
383.761	258.31
383.986	261.31
384.211	277.31
384.436	276.31
384.662	274.31
384.887	259.31
385.112	254.31
385.337	282.31
385.562	264.31
385.787	267.31
386.013	252.31
386.238	270.31
386.463	260.31
386.688	264.31
386.913	260.31
387.138	277.31
387.363	275.31
387.588	270.31
387.813	269.31
388.038	247.31
388.263	271.31
388.488	265.31
388.713	270.31
388.938	280.31
389.163	286.31
389.387	279.31
389.612	263.31
389.837	261.31
390.062	275.31
390.287	275.31
390.512	266.31
390.736	258.31
390.961	264.31
391.186	252.31
391.411	263.31
391.636	252.31
391.86	270.31
392.085	294.31
392.31	277.31
392.534	279.31
392.759	269.31
392.984	255.31
393.208	283.31
393.433	275.31
393.658	276.31
393.882	270.31
394.107	262.31
394.331	285.31
394.556	290.31
394.78	289.31
395.005	288.31
395.229	266.31
395.454	267.31
395.678	271.31
395.903	277.31
396.127	311.31
396.352	273.31
396.576	274.31
396.801	277.31
397.025	268.31
397.249	291.31
397.474	272.31
397.698	280.31
397.922	282.31
398.147	312.31
398.371	290.31
398.595	294.31
398.82	290.31
399.044	315.31
399.268	312.31
399.492	312.31
399.717	344.31
399.941	353.31
400.165	368.31
400.389	382.31
400.613	340.31
400.837	329.31
401.062	314.31
401.286	292.31
401.51	325.31
401.734	294.31
401.958	308.31
402.182	293.31
402.406	302.31
402.63	295.31
402.854	312.31
403.078	295.31
403.302	322.31
403.526	338.31
403.75	325.31
403.974	317.31
404.198	317.31
404.422	320.31
404.645	329.31
404.869	317.31
405.093	345.31
405.317	347.31
405.541	389.31
405.765	357.31
405.988	336.31
406.212	340.31
406.436	369.31
406.66	378.31
406.883	343.31
407.107	360.31
407.331	384.31
407.555	405.31
407.778	404.31
408.002	360.31
408.226	342.31
408.449	348.31
408.673	337.31
408.896	340.31
409.12	369.31
409.344	357.31
409.567	325.31
409.791	304.31
410.014	320.31
410.238	315.31
410.461	306.31
410.685	313.31
410.908	324.31
411.132	346.31
411.355	374.31
411.578	353.31
411.802	333.31
412.025	326.31
412.249	298.31
412.472	333.31
412.695	357.31
412.919	347.31
413.142	328.31
413.365	303.31
413.589	300.31
413.812	297.31
414.035	297.31
414.258	296.31
414.482	297.31
414.705	293.31
414.928	279.31
415.151	276.31
415.374	289.31
415.597	304.31
415.821	288.31
416.044	298.31
416.267	281.31
416.49	289.31
416.713	277.31
416.936	287.31
417.159	279.31
417.382	290.31
417.605	294.31
417.828	323.31
418.051	322.31
418.274	306.31
418.497	302.31
418.72	294.31
418.943	300.31
419.166	290.31
419.389	288.31
419.611	305.31
419.834	302.31
420.057	308.31
420.28	318.31
420.503	304.31
420.726	334.31
420.948	326.31
421.171	344.31
421.394	349.31
421.617	324.31
421.839	314.31
422.062	332.31
422.285	313.31
422.507	355.31
422.73	408.31
422.953	395.31
423.175	343.31
423.398	318.31
423.621	326.31
423.843	340.31
424.066	317.31
424.288	352.31
424.511	355.31
424.733	380.31
424.956	415.31
425.178	410.31
425.401	400.31
425.623	404.31
425.846	361.31
426.068	334.31
426.291	336.31
426.513	335.31
426.735	351.31
426.958	371.31
427.18	426.31
427.402	518.31
427.625	533.31
427.847	482.31
428.069	446.31
428.292	380.31
428.514	369.31
428.736	324.31
428.958	326.31
429.181	324.31
429.403	311.31
429.625	312.31
429.847	352.31
430.069	387.31
430.292	375.31
430.514	312.31
430.736	313.31
430.958	305.31
431.18	296.31
431.402	314.31
431.624	317.31
431.846	288.31
432.068	306.31
432.29	304.31
432.512	274.31
432.734	297.31
432.956	311.31
433.178	286.31
433.4	313.31
433.622	302.31
433.844	293.31
434.066	285.31
434.287	307.31
434.509	287.31
434.731	299.31
434.953	313.31
435.175	322.31
435.397	338.31
435.618	365.31
435.84	373.31
436.062	430.31
436.284	459.31
436.505	384.31
436.727	349.31
436.949	314.31
437.17	318.31
437.392	324.31
437.614	331.31
437.835	347.31
438.057	425.31
438.278	480.31
438.5	458.31
438.721	507.31
438.943	485.31
439.165	396.31
439.386	370.31
439.608	343.31
439.829	359.31
440.05	382.31
440.272	426.31
440.493	393.31
440.715	349.31
440.936	328.31
441.158	312.31
441.379	320.31
441.6	319.31
441.822	343.31
442.043	370.31
442.264	412.31
442.486	406.31
442.707	373.31
442.928	360.31
443.149	374.31
443.371	382.31
443.592	418.31
443.813	465.31
444.034	483.31
444.255	388.31
444.476	372.31
444.698	322.31
444.919	322.31
445.14	438.31
445.361	389.31
445.582	379.31
445.803	434.31
446.024	469.31
446.245	477.31
446.466	444.31
446.687	364.31
446.908	354.31
447.129	352.31
447.35	320.31
447.571	325.31
447.792	327.31
448.013	318.31
448.234	342.31
448.455	371.31
448.675	441.31
448.896	483.31
449.117	416.31
449.338	418.31
449.559	473.31
449.779	500.31
450	406.31
450.221	363.31
450.442	341.31
450.662	320.31
450.883	322.31
451.104	340.31
451.324	320.31
451.545	300.31
451.766	304.31
451.986	295.31
452.207	298.31
452.428	283.31
452.648	292.31
452.869	282.31
453.089	292.31
453.31	300.31
453.53	290.31
453.751	293.31
453.971	306.31
454.192	305.31
454.412	304.31
454.633	280.31
454.853	286.31
455.073	285.31
455.294	315.31
455.514	338.31
455.734	333.31
455.955	312.31
456.175	278.31
456.395	261.31
456.616	268.31
456.836	276.31
457.056	269.31
457.276	277.31
457.497	277.31
457.717	265.31
457.937	260.31
458.157	265.31
458.377	287.31
458.598	304.31
458.818	354.31
459.038	399.31
459.258	396.31
459.478	326.31
459.698	304.31
459.918	278.31
460.138	276.31
460.358	294.31
460.578	288.31
460.798	280.31
461.018	308.31
461.238	321.31
461.458	301.31
461.678	280.31
461.898	278.31
462.118	287.31
462.338	293.31
462.558	281.31
462.777	298.31
462.997	295.31
463.217	320.31
463.437	296.31
463.657	277.31
463.876	309.31
464.096	318.31
464.316	290.31
464.536	321.31
464.755	291.31
464.975	305.31
465.195	346.31
465.414	391.31
465.634	338.31
465.854	328.31
466.073	314.31
466.293	283.31
466.512	306.31
466.732	294.31
466.951	285.31
467.171	293.31
467.391	284.31
467.61	305.31
467.829	296.31
468.049	315.31
468.268	284.31
468.488	284.31
468.707	274.31
468.927	272.31
469.146	269.31
469.365	260.31
469.585	282.31
469.804	289.31
470.023	272.31
470.243	285.31
470.462	301.31
470.681	311.31
470.901	312.31
471.12	268.31
471.339	275.31
471.558	283.31
471.777	302.31
471.997	302.31
472.216	301.31
472.435	306.31
472.654	290.31
472.873	296.31
473.092	293.31
473.311	291.31
473.53	291.31
473.749	305.31
473.968	344.31
474.187	402.31
474.406	397.31
474.625	324.31
474.844	316.31
475.063	307.31
475.282	284.31
475.501	313.31
475.72	301.31
475.939	321.31
476.158	295.31
476.377	308.31
476.596	287.31
476.814	299.31
477.033	297.31
477.252	311.31
477.471	300.31
477.69	301.31
477.908	308.31
478.127	305.31
478.346	284.31
478.564	315.31
478.783	312.31
479.002	321.31
479.22	336.31
479.439	326.31
479.658	344.31
479.876	338.31
480.095	341.31
480.313	355.31
480.532	361.31
480.751	356.31
480.969	349.31
481.188	393.31
481.406	420.31
481.624	387.31
481.843	358.31
482.061	349.31
482.28	343.31
482.498	318.31
482.717	340.31
482.935	338.31
483.153	328.31
483.372	333.31
483.59	326.31
483.808	340.31
484.027	338.31
484.245	329.31
484.463	337.31
484.681	375.31
484.9	337.31
485.118	346.31
485.336	344.31
485.554	352.31
485.772	355.31
485.99	343.31
486.209	356.31
486.427	342.31
486.645	370.31
486.863	374.31
487.081	358.31
487.299	350.31
487.517	362.31
487.735	359.31
487.953	365.31
488.171	355.31
488.389	376.31
488.607	363.31
488.825	359.31
489.043	349.31
489.261	361.31
489.479	374.31
489.696	372.31
489.914	372.31
490.132	354.31
490.35	381.31
490.568	372.31
490.786	385.31
491.003	400.31
491.221	416.31
491.439	420.31
491.657	417.31
491.874	407.31
492.092	429.31
492.31	418.31
492.527	425.31
492.745	413.31
492.963	406.31
493.18	433.31
493.398	426.31
493.615	419.31
493.833	415.31
494.05	437.31
494.268	412.31
494.485	445.31
494.703	432.31
494.92	435.31
495.138	420.31
495.355	407.31
495.573	452.31
495.79	438.31
496.008	414.31
496.225	418.31
496.442	419.31
496.66	440.31
496.877	432.31
497.094	455.31
497.312	437.31
497.529	437.31
497.746	442.31
497.963	439.31
498.181	448.31
498.398	462.31
498.615	453.31
498.832	457.31
499.049	458.31
499.267	476.31
499.484	489.31
499.701	476.31
499.918	489.31
500.135	487.31
500.352	504.31
500.569	517.31
500.786	544.31
501.003	506.31
501.22	488.31
501.437	492.31
501.654	505.31
501.871	506.31
502.088	489.31
502.305	469.31
502.522	456.31
502.739	472.31
502.956	444.31
503.172	426.31
503.389	439.31
503.606	465.31
503.823	427.31
504.04	437.31
504.256	448.31
504.473	417.31
504.69	403.31
504.907	425.31
505.123	403.31
505.34	416.31
505.557	408.31
505.773	403.31
505.99	430.31
506.207	424.31
506.423	398.31
506.64	397.31
506.856	401.31
507.073	421.31
507.289	421.31
507.506	403.31
507.722	416.31
507.939	412.31
508.155	408.31
508.372	417.31
508.588	420.31
508.805	373.31
509.021	395.31
509.238	407.31
509.454	414.31
509.67	406.31
509.887	424.31
510.103	400.31
510.319	436.31
510.536	485.31
510.752	803.31
510.968	625.31
511.184	428.31
511.401	402.31
511.617	400.31
511.833	387.31
512.049	390.31
512.265	379.31
512.481	392.31
512.698	401.31
512.914	389.31
513.13	373.31
513.346	377.31
513.562	385.31
513.778	401.31
513.994	382.31
514.21	394.31
514.426	432.31
514.642	430.31
514.858	469.31
515.074	488.31
515.29	581.31
515.506	889.31
515.721	696.31
515.937	491.31
516.153	432.31
516.369	420.31
516.585	402.31
516.801	387.31
517.016	391.31
517.232	395.31
517.448	372.31
517.664	379.31
517.879	365.31
518.095	384.31
518.311	372.31
518.527	398.31
518.742	392.31
518.958	373.31
519.173	376.31
519.389	377.31
519.605	374.31
519.82	388.31
520.036	392.31
520.251	406.31
520.467	405.31
520.682	426.31
520.898	444.31
521.113	459.31
521.329	480.31
521.544	577.31
521.76	714.31
521.975	1162.31
522.19	1106.31
522.406	612.31
522.621	448.31
522.836	410.31
523.052	398.31
523.267	362.31
523.482	339.31
523.698	360.31
523.913	363.31
524.128	363.31
524.343	384.31
524.559	346.31
524.774	355.31
524.989	336.31
525.204	335.31
525.419	356.31
525.634	329.31
525.849	321.31
526.064	322.31
526.28	334.31
526.495	323.31
526.71	333.31
526.925	314.31
527.14	305.31
527.355	303.31
527.57	313.31
527.785	286.31
527.999	312.31
528.214	326.31
528.429	296.31
528.644	312.31
528.859	310.31
529.074	328.31
529.289	327.31
529.503	395.31
529.718	374.31
529.933	320.31
530.148	332.31
530.363	309.31
530.577	304.31
530.792	308.31
531.007	297.31
531.221	301.31
531.436	306.31
531.651	299.31
531.865	280.31
532.08	282.31
532.295	292.31
532.509	285.31
532.724	291.31
532.938	319.31
533.153	289.31
533.367	296.31
533.582	284.31
533.796	273.31
534.011	295.31
534.225	302.31
534.44	289.31
534.654	287.31
534.868	281.31
535.083	263.31
535.297	288.31
535.511	304.31
535.726	310.31
535.94	295.31
536.154	282.31
536.369	284.31
536.583	297.31
536.797	285.31
537.011	285.31
537.225	285.31
537.44	300.31
537.654	294.31
537.868	299.31
538.082	288.31
538.296	294.31
538.51	283.31
538.724	288.31
538.938	283.31
539.153	293.31
539.367	285.31
539.581	277.31
539.795	287.31
540.009	270.31
540.222	283.31
540.436	278.31
540.65	282.31
540.864	263.31
541.078	292.31
541.292	300.31
541.506	279.31
541.72	293.31
541.934	301.31
542.147	296.31
542.361	291.31
542.575	284.31
542.789	289.31
543.002	277.31
543.216	281.31
543.43	288.31
543.644	293.31
543.857	283.31
544.071	298.31
544.285	298.31
544.498	290.31
544.712	273.31
544.925	287.31
545.139	282.31
545.352	279.31
545.566	293.31
545.779	263.31
545.993	276.31
546.206	266.31
546.42	266.31
546.633	259.31
546.847	275.31
547.06	281.31
547.274	267.31
547.487	271.31
547.7	273.31
547.914	267.31
548.127	260.31
548.34	266.31
548.554	276.31
548.767	288.31
548.98	249.31
549.193	269.31
549.407	254.31
549.62	256.31
549.833	265.31
550.046	248.31
550.259	268.31
550.473	250.31
550.686	268.31
550.899	269.31
551.112	268.31
551.325	236.31
551.538	270.31
551.751	254.31
551.964	246.31
552.177	233.31
552.39	243.31
552.603	273.31
552.816	253.31
553.029	266.31
553.242	272.31
553.455	279.31
553.667	280.31
553.88	275.31
554.093	253.31
554.306	294.31
554.519	277.31
554.732	276.31
554.944	269.31
555.157	265.31
555.37	246.31
555.583	236.31
555.795	246.31
556.008	256.31
556.221	258.31
556.433	242.31
556.646	241.31
556.859	234.31
557.071	236.31
557.284	241.31
557.496	255.31
557.709	245.31
557.921	251.31
558.134	222.31
558.346	249.31
558.559	250.31
558.771	223.31
558.984	242.31
559.196	242.31
559.409	248.31
559.621	233.31
559.833	225.31
560.046	245.31
560.258	228.31
560.47	225.31
560.683	244.31
560.895	240.31
561.107	254.31
561.32	232.31
561.532	230.31
561.744	225.31
561.956	246.31
562.168	249.31
562.381	255.31
562.593	231.31
562.805	241.31
563.017	216.31
563.229	238.31
563.441	245.31
563.653	234.31
563.865	256.31
564.077	254.31
564.289	250.31
564.501	235.31
564.713	263.31
564.925	245.31
565.137	238.31
565.349	233.31
565.561	249.31
565.773	237.31
565.985	262.31
566.197	258.31
566.408	240.31
566.62	275.31
566.832	266.31
567.044	258.31
567.255	277.31
567.467	280.31
567.679	268.31
567.891	259.31
568.102	259.31
568.314	249.31
568.526	278.31
568.737	264.31
568.949	262.31
569.161	250.31
569.372	251.31
569.584	253.31
569.795	248.31
570.007	256.31
570.218	271.31
570.43	258.31
570.641	229.31
570.853	244.31
571.064	236.31
571.276	225.31
571.487	255.31
571.698	221.31
571.91	226.31
572.121	224.31
572.333	205.31
572.544	214.31
572.755	202.31
572.966	222.31
573.178	210.31
573.389	221.31
573.6	220.31
573.811	204.31
574.023	211.31
574.234	214.31
574.445	219.31
574.656	212.31
574.867	197.31
575.078	204.31
575.289	202.31
575.501	213.31
575.712	209.31
575.923	221.31
576.134	216.31
576.345	215.31
576.556	198.31
576.767	196.31
576.978	192.31
577.188	226.31
577.399	202.31
577.61	192.31
577.821	196.31
578.032	217.31
578.243	245.31
578.454	390.31
578.665	285.31
578.875	230.31
579.086	216.31
579.297	204.31
579.508	190.31
579.718	180.31
579.929	194.31
580.14	191.31
580.35	219.31
580.561	202.31
580.772	207.31
580.982	188.31
581.193	192.31
581.403	211.31
581.614	184.31
581.825	212.31
582.035	198.31
582.246	193.31
582.456	187.31
582.667	206.31
582.877	195.31
583.087	196.31
583.298	193.31
583.508	191.31
583.719	194.31
583.929	192.31
584.139	203.31
584.35	211.31
584.56	210.31
584.77	184.31
584.981	203.31
585.191	197.31
585.401	192.31
585.611	198.31
585.821	201.31
586.032	200.31
586.242	197.31
586.452	192.31
586.662	186.31
586.872	193.31
587.082	190.31
587.292	188.31
587.502	195.31
587.713	196.31
587.923	202.31
588.133	205.31
588.343	189.31
588.553	177.31
588.762	199.31
588.972	189.31
589.182	199.31
589.392	191.31
589.602	182.31
589.812	202.31
590.022	185.31
590.232	194.31
590.441	199.31
590.651	192.31
590.861	181.31
591.071	193.31
591.281	180.31
591.49	184.31
591.7	200.31
591.91	181.31
592.119	200.31
592.329	206.31
592.539	202.31
592.748	199.31
592.958	189.31
593.167	197.31
593.377	196.31
593.587	175.31
593.796	178.31
594.006	201.31
594.215	190.31
594.424	204.31
594.634	204.31
594.843	188.31
595.053	199.31
595.262	198.31
595.472	177.31
595.681	178.31
595.89	188.31
596.1	181.31
596.309	186.31
596.518	177.31
596.727	165.31
596.937	171.31
597.146	187.31
597.355	178.31
597.564	185.31
597.774	182.31
597.983	184.31
598.192	162.31
598.401	181.31
598.61	191.31
598.819	172.31
599.028	168.31
599.237	188.31
599.446	164.31
599.655	175.31
599.864	182.31
600.073	162.31
600.282	178.31
600.491	164.31
600.7	176.31
600.909	188.31
601.118	184.31
601.327	161.31
601.536	148.31
601.745	158.31
601.953	171.31
602.162	170.31
602.371	165.31
602.58	167.31
602.789	178.31
602.997	162.31
603.206	163.31
603.415	166.31
603.623	171.31
603.832	161.31
604.041	169.31
604.249	163.31
604.458	185.31
604.666	171.31
604.875	160.31
605.084	165.31
605.292	170.31
605.501	182.31
605.709	172.31
605.918	173.31
606.126	170.31
606.334	180.31
606.543	160.31
606.751	166.31
606.96	166.31
607.168	155.31
607.376	156.31
607.585	169.31
607.793	168.31
608.001	164.31
608.21	155.31
608.418	152.31
608.626	153.31
608.834	163.31
609.043	176.31
609.251	164.31
609.459	163.31
609.667	152.31
609.875	148.31
610.083	151.31
610.291	172.31
610.499	170.31
610.707	176.31
610.916	169.31
611.124	160.31
611.332	176.31
611.54	159.31
611.748	182.31
611.955	176.31
612.163	156.31
612.371	171.31
612.579	147.31
612.787	162.31
612.995	162.31
613.203	170.31
613.411	160.31
613.618	165.31
613.826	156.31
614.034	166.31
614.242	162.31
614.449	185.31
614.657	161.31
614.865	146.31
615.072	171.31
615.28	160.31
615.488	168.31
615.695	155.31
615.903	152.31
616.111	141.31
616.318	159.31
616.526	177.31
616.733	172.31
616.941	161.31
617.148	154.31
617.356	166.31
617.563	171.31
617.771	158.31
617.978	171.31
618.185	151.31
618.393	164.31
618.6	154.31
618.807	152.31
619.015	160.31
619.222	137.31
619.429	157.31
619.637	158.31
619.844	150.31
620.051	153.31
620.258	156.31
620.466	166.31
620.673	153.31
620.88	142.31
621.087	149.31
621.294	149.31
621.501	149.31
621.708	146.31
621.915	158.31
622.122	160.31
622.329	167.31
622.536	165.31
622.743	144.31
622.95	141.31
623.157	145.31
623.364	155.31
623.571	156.31
623.778	149.31
623.985	156.31
624.192	128.31
624.399	136.31
624.606	150.31
624.812	144.31
625.019	145.31
625.226	147.31
625.433	142.31
625.639	161.31
625.846	146.31
626.053	133.31
626.259	147.31
626.466	150.31
626.673	137.31
626.879	136.31
627.086	151.31
627.293	149.31
627.499	155.31
627.706	146.31
627.912	140.31
628.119	152.31
628.325	147.31
628.532	158.31
628.738	137.31
628.945	143.31
629.151	143.31
629.357	146.31
629.564	150.31
629.77	137.31
629.976	124.31
630.183	124.31
630.389	137.31
630.595	137.31
630.802	149.31
631.008	140.31
631.214	143.31
631.42	149.31
631.627	147.31
631.833	120.31
632.039	135.31
632.245	143.31
632.451	154.31
632.657	140.31
632.863	131.31
633.069	143.31
633.275	134.31
633.481	142.31
633.688	125.31
633.893	139.31
634.099	135.31
634.305	135.31
634.511	131.31
634.717	147.31
634.923	132.31
635.129	133.31
635.335	138.31
635.541	130.31
635.747	133.31
635.952	138.31
636.158	141.31
636.364	140.31
636.57	134.31
636.775	146.31
636.981	126.31
637.187	142.31
637.392	125.31
637.598	132.31
637.804	136.31
638.009	121.31
638.215	136.31
638.421	130.31
638.626	133.31
638.832	145.31
639.037	126.31
639.243	149.31
639.448	132.31
639.654	128.31
639.859	136.31
640.065	134.31
640.27	126.31
640.475	125.31
640.681	127.31
640.886	130.31
641.091	122.31
641.297	143.31
641.502	138.31
641.707	123.31
641.913	119.31
642.118	129.31
642.323	121.31
642.528	116.31
642.733	130.31
642.939	132.31
643.144	145.31
643.349	130.31
643.554	124.31
643.759	122.31
643.964	129.31
644.169	135.31
644.374	124.31
644.579	139.31
644.784	140.31
644.989	136.31
645.194	130.31
645.399	128.31
645.604	132.31
645.809	124.31
646.014	131.31
646.219	136.31
646.423	122.31
646.628	122.31
646.833	136.31
647.038	125.31
647.243	136.31
647.447	127.31
647.652	137.31
647.857	135.31
648.062	149.31
648.266	126.31
648.471	129.31
648.676	130.31
648.88	146.31
649.085	135.31
649.289	130.31
649.494	127.31
649.698	137.31
649.903	145.31
650.107	132.31
650.312	125.31
650.516	115.31
650.721	119.31
650.925	121.31
651.13	113.31
651.334	105.31
651.539	116.31
651.743	114.31
651.947	131.31
652.152	129.31
652.356	124.31
652.56	115.31
652.764	108.31
652.969	114.31
653.173	128.31
653.377	130.31
653.581	115.31
653.785	130.31
653.99	124.31
654.194	110.31
654.398	112.31
654.602	109.31
654.806	112.31
655.01	119.31
655.214	123.31
655.418	123.31
655.622	105.31
655.826	119.31
656.03	113.31
656.234	124.31
656.438	104.31
656.642	101.31
656.846	125.31
657.049	111.31
657.253	109.31
657.457	120.31
657.661	117.31
657.865	100.31
658.068	102.31
658.272	99.31
658.476	99.31
658.68	103.31
658.883	103.31
659.087	95.31
659.291	96.31
659.494	92.31
659.698	95.31
659.901	103.31
660.105	88.31
660.309	97.31
660.512	93.31
660.716	79.31
660.919	77.31
661.123	84.31
661.326	77.31
661.53	92.31
661.733	93.31
661.936	96.31
662.14	82.31
662.343	96.31
662.546	88.31
662.75	90.31
662.953	77.31
663.156	83.31
663.36	84.31
663.563	92.31
663.766	90.31
663.969	84.31
664.173	82.31
664.376	89.31
664.579	86.31
664.782	76.31
664.985	60.31
665.188	87.31
665.391	92.31
665.594	91.31
665.797	85.31
666	81.31
666.203	86.31
666.406	84.31
666.609	75.31
666.812	90.31
667.015	68.31
667.218	85.31
667.421	83.31
667.624	79.31
667.827	75.31
668.03	74.31
668.232	71.31
668.435	72.31
668.638	90.31
668.841	83.31
669.043	85.31
669.246	74.31
669.449	67.31
669.651	76.31
669.854	95.31
670.057	81.31
670.259	82.31
670.462	85.31
670.665	69.31
670.867	75.31
671.07	83.31
671.272	74.31
671.475	87.31
671.677	72.31
671.88	85.31
672.082	73.31
672.284	72.31
672.487	76.31
672.689	86.31
672.892	81.31
