Data from 1982.PennyLincolnUp.Lamp.En5.5.200Scan.071819.P1_HRD10591_16-44-45-961.txt Node
Date: Thu Jul 18 16:44:45 EDT 2019
User: cochatt
Spectrometer: HR+D1059
Trigger mode: 1
Integration Time (sec): 1.000000E-1
Scans to average: 1
Electric dark correction enabled: true
Nonlinearity correction enabled: false
Boxcar width: 0
XAxis mode: Wavelengths
Number of Pixels in Spectrum: 2048
>>>>>Begin Spectral Data<<<<<
223.165	-1
223.4	-1
223.635	-1
223.869	-14
224.104	-13
224.338	-13
224.573	-14
224.808	-18
225.042	-13
225.277	-18
225.511	-5
225.746	17
225.98	-4
226.215	11
226.449	19
226.683	26
226.918	15
227.152	25
227.387	27
227.621	38
227.856	48
228.09	43
228.324	47
228.559	59
228.793	67
229.027	95
229.262	88
229.496	90
229.73	93
229.964	102
230.199	92
230.433	92
230.667	80
230.901	101
231.136	96
231.37	86
231.604	88
231.838	92
232.072	97
232.306	104
232.541	101
232.775	69
233.009	102
233.243	106
233.477	90
233.711	90
233.945	103
234.179	93
234.413	93
234.647	90
234.881	90
235.115	89
235.349	90
235.583	104
235.817	94
236.051	102
236.285	104
236.519	100
236.753	111
236.987	104
237.221	119
237.455	141
237.689	113
237.922	89
238.156	97
238.39	85
238.624	95
238.858	108
239.091	95
239.325	76
239.559	89
239.793	100
240.027	98
240.26	102
240.494	103
240.728	121
240.961	107
241.195	97
241.429	96
241.662	116
241.896	107
242.13	97
242.363	101
242.597	94
242.83	92
243.064	103
243.298	89
243.531	95
243.765	111
243.998	98
244.232	117
244.465	109
244.699	107
244.932	113
245.166	104
245.399	113
245.633	123
245.866	110
246.099	91
246.333	122
246.566	98
246.8	108
247.033	97
247.266	118
247.5	119
247.733	105
247.966	121
248.2	140
248.433	125
248.666	115
248.899	129
249.133	126
249.366	143
249.599	126
249.832	119
250.066	131
250.299	117
250.532	139
250.765	137
250.998	138
251.231	133
251.465	152
251.698	139
251.931	143
252.164	141
252.397	156
252.63	142
252.863	141
253.096	142
253.329	153
253.562	149
253.795	144
254.028	129
254.261	131
254.494	148
254.727	143
254.96	169
255.193	165
255.426	158
255.659	153
255.892	153
256.124	123
256.357	156
256.59	150
256.823	148
257.056	133
257.289	140
257.521	141
257.754	150
257.987	129
258.22	138
258.452	142
258.685	140
258.918	151
259.151	138
259.383	143
259.616	147
259.849	156
260.081	161
260.314	141
260.547	161
260.779	157
261.012	153
261.244	153
261.477	152
261.71	162
261.942	141
262.175	153
262.407	149
262.64	141
262.872	149
263.105	149
263.337	156
263.57	130
263.802	151
264.035	142
264.267	153
264.499	129
264.732	141
264.964	138
265.197	134
265.429	137
265.661	147
265.894	126
266.126	137
266.358	146
266.591	156
266.823	152
267.055	157
267.287	156
267.52	143
267.752	134
267.984	134
268.216	156
268.448	153
268.681	152
268.913	159
269.145	169
269.377	164
269.609	195
269.841	166
270.073	176
270.306	166
270.538	162
270.77	190
271.002	179
271.234	183
271.466	168
271.698	192
271.93	177
272.162	171
272.394	185
272.626	188
272.858	185
273.09	188
273.322	176
273.553	159
273.785	158
274.017	159
274.249	159
274.481	163
274.713	165
274.945	169
275.176	165
275.408	156
275.64	158
275.872	155
276.104	177
276.335	172
276.567	179
276.799	167
277.031	191
277.262	203
277.494	200
277.726	179
277.957	177
278.189	170
278.421	162
278.652	158
278.884	175
279.115	169
279.347	172
279.579	168
279.81	177
280.042	185
280.273	185
280.505	168
280.736	182
280.968	169
281.199	165
281.431	158
281.662	173
281.894	171
282.125	175
282.356	170
282.588	190
282.819	182
283.051	169
283.282	175
283.513	180
283.745	181
283.976	173
284.207	200
284.439	177
284.67	178
284.901	171
285.132	185
285.364	177
285.595	177
285.826	159
286.057	168
286.288	163
286.52	169
286.751	175
286.982	183
287.213	179
287.444	163
287.675	188
287.906	181
288.138	181
288.369	194
288.6	199
288.831	185
289.062	179
289.293	187
289.524	178
289.755	174
289.986	181
290.217	177
290.448	173
290.679	174
290.91	168
291.141	186
291.371	192
291.602	173
291.833	191
292.064	177
292.295	188
292.526	197
292.757	163
292.987	168
293.218	177
293.449	182
293.68	183
293.91	179
294.141	185
294.372	183
294.603	188
294.833	183
295.064	196
295.295	189
295.525	168
295.756	182
295.987	206
296.217	200
296.448	198
296.679	181
296.909	195
297.14	197
297.37	174
297.601	187
297.831	207
298.062	201
298.292	193
298.523	198
298.753	177
298.984	199
299.214	197
299.445	175
299.675	202
299.905	192
300.136	205
300.366	193
300.597	197
300.827	191
301.057	202
301.288	189
301.518	202
301.748	183
301.979	193
302.209	186
302.439	197
302.669	191
302.9	195
303.13	203
303.36	203
303.59	206
303.82	215
304.051	190
304.281	196
304.511	198
304.741	204
304.971	207
305.201	201
305.431	215
305.661	210
305.891	186
306.121	212
306.352	218
306.582	216
306.812	213
307.042	206
307.272	203
307.502	205
307.731	205
307.961	203
308.191	196
308.421	198
308.651	216
308.881	215
309.111	201
309.341	207
309.571	224
309.8	222
310.03	224
310.26	237
310.49	216
310.72	225
310.949	211
311.179	212
311.409	212
311.639	221
311.868	212
312.098	225
312.328	235
312.557	244
312.787	243
313.017	226
313.246	229
313.476	225
313.706	220
313.935	235
314.165	226
314.394	231
314.624	221
314.853	223
315.083	216
315.312	222
315.542	220
315.771	204
316.001	214
316.23	226
316.46	228
316.689	214
316.919	232
317.148	235
317.377	232
317.607	235
317.836	232
318.065	215
318.295	231
318.524	227
318.753	234
318.983	212
319.212	233
319.441	225
319.67	229
319.9	210
320.129	242
320.358	233
320.587	227
320.816	246
321.046	237
321.275	230
321.504	225
321.733	249
321.962	229
322.191	236
322.42	253
322.649	245
322.878	236
323.108	269
323.337	271
323.566	290
323.795	302
324.024	299
324.253	376
324.482	510
324.71	751
324.939	961
325.168	817
325.397	437
325.626	328
325.855	284
326.084	271
326.313	286
326.542	283
326.77	300
326.999	339
327.228	467
327.457	639
327.686	718
327.914	499
328.143	334
328.372	307
328.6	316
328.829	306
329.058	300
329.287	299
329.515	285
329.744	275
329.972	278
330.201	279
330.43	303
330.658	297
330.887	299
331.115	296
331.344	273
331.572	263
331.801	271
332.03	264
332.258	254
332.486	259
332.715	265
332.943	250
333.172	263
333.4	266
333.629	265
333.857	264
334.085	262
334.314	257
334.542	267
334.771	261
334.999	277
335.227	281
335.455	277
335.684	241
335.912	252
336.14	254
336.369	234
336.597	265
336.825	250
337.053	250
337.281	262
337.51	241
337.738	248
337.966	253
338.194	245
338.422	248
338.65	250
338.878	262
339.106	261
339.334	256
339.562	236
339.79	249
340.018	246
340.246	243
340.474	235
340.702	236
340.93	251
341.158	241
341.386	242
341.614	261
341.842	268
342.07	247
342.298	253
342.526	241
342.754	253
342.981	222
343.209	229
343.437	239
343.665	259
343.893	247
344.12	261
344.348	250
344.576	261
344.804	253
345.031	257
345.259	264
345.487	265
345.714	255
345.942	247
346.17	237
346.397	232
346.625	249
346.853	238
347.08	243
347.308	269
347.535	245
347.763	260
347.99	239
348.218	259
348.445	255
348.673	245
348.9	241
349.128	258
349.355	234
349.583	247
349.81	222
350.037	241
350.265	237
350.492	232
350.72	220
350.947	247
351.174	241
351.402	238
351.629	248
351.856	229
352.083	232
352.311	244
352.538	220
352.765	245
352.992	212
353.22	245
353.447	231
353.674	234
353.901	242
354.128	237
354.355	238
354.583	236
354.81	233
355.037	242
355.264	217
355.491	209
355.718	246
355.945	214
356.172	219
356.399	217
356.626	241
356.853	226
357.08	229
357.307	220
357.534	242
357.761	236
357.988	243
358.215	227
358.441	221
358.668	228
358.895	228
359.122	233
359.349	242
359.576	234
359.802	255
360.029	250
360.256	232
360.483	250
360.709	227
360.936	245
361.163	230
361.39	243
361.616	231
361.843	245
362.07	237
362.296	234
362.523	229
362.749	241
362.976	221
363.203	234
363.429	238
363.656	228
363.882	236
364.109	233
364.335	226
364.562	225
364.788	222
365.015	225
365.241	239
365.468	228
365.694	217
365.92	231
366.147	215
366.373	231
366.599	246
366.826	230
367.052	223
367.278	226
367.505	220
367.731	233
367.957	224
368.184	234
368.41	236
368.636	232
368.862	236
369.089	224
369.315	229
369.541	227
369.767	257
369.993	218
370.219	222
370.445	232
370.672	228
370.898	241
371.124	220
371.35	222
371.576	222
371.802	217
372.028	245
372.254	232
372.48	223
372.706	237
372.932	224
373.158	229
373.384	218
373.61	239
373.835	227
374.061	251
374.287	231
374.513	233
374.739	236
374.965	234
375.191	242
375.416	216
375.642	219
375.868	221
376.094	212
376.319	219
376.545	212
376.771	231
376.997	236
377.222	219
377.448	230
377.674	219
377.899	217
378.125	234
378.35	223
378.576	208
378.802	227
379.027	226
379.253	244
379.478	212
379.704	231
379.929	222
380.155	222
380.38	225
380.606	225
380.831	238
381.057	229
381.282	244
381.507	241
381.733	224
381.958	231
382.184	238
382.409	231
382.634	221
382.86	236
383.085	248
383.31	244
383.535	228
383.761	213
383.986	238
384.211	253
384.436	244
384.662	238
384.887	226
385.112	224
385.337	251
385.562	230
385.787	232
386.013	250
386.238	237
386.463	236
386.688	244
386.913	235
387.138	235
387.363	238
387.588	239
387.813	245
388.038	256
388.263	238
388.488	244
388.713	230
388.938	240
389.163	235
389.387	253
389.612	246
389.837	258
390.062	236
390.287	243
390.512	232
390.736	231
390.961	221
391.186	221
391.411	241
391.636	254
391.86	239
392.085	251
392.31	251
392.534	245
392.759	245
392.984	257
393.208	234
393.433	250
393.658	232
393.882	228
394.107	220
394.331	252
394.556	242
394.78	263
395.005	239
395.229	238
395.454	270
395.678	231
395.903	248
396.127	261
396.352	256
396.576	260
396.801	250
397.025	249
397.249	256
397.474	268
397.698	258
397.922	254
398.147	277
398.371	254
398.595	260
398.82	272
399.044	253
399.268	259
399.492	283
399.717	293
399.941	300
400.165	322
400.389	312
400.613	275
400.837	267
401.062	278
401.286	255
401.51	260
401.734	270
401.958	251
402.182	271
402.406	271
402.63	265
402.854	274
403.078	277
403.302	272
403.526	286
403.75	258
403.974	284
404.198	241
404.422	285
404.645	267
404.869	267
405.093	281
405.317	291
405.541	307
405.765	290
405.988	272
406.212	277
406.436	291
406.66	293
406.883	302
407.107	293
407.331	306
407.555	341
407.778	327
408.002	318
408.226	295
408.449	284
408.673	288
408.896	291
409.12	322
409.344	305
409.567	282
409.791	255
410.014	274
410.238	270
410.461	264
410.685	281
410.908	292
411.132	320
411.355	305
411.578	307
411.802	293
412.025	261
412.249	270
412.472	278
412.695	298
412.919	274
413.142	275
413.365	262
413.589	274
413.812	266
414.035	263
414.258	258
414.482	246
414.705	251
414.928	249
415.151	237
415.374	234
415.597	249
415.821	238
416.044	245
416.267	249
416.49	258
416.713	259
416.936	261
417.159	229
417.382	278
417.605	257
417.828	265
418.051	270
418.274	264
418.497	263
418.72	250
418.943	249
419.166	267
419.389	274
419.611	249
419.834	256
420.057	278
420.28	277
420.503	258
420.726	257
420.948	249
421.171	293
421.394	301
421.617	264
421.839	280
422.062	268
422.285	277
422.507	304
422.73	307
422.953	310
423.175	287
423.398	285
423.621	270
423.843	287
424.066	274
424.288	271
424.511	283
424.733	311
424.956	358
425.178	317
425.401	319
425.623	343
425.846	294
426.068	278
426.291	282
426.513	270
426.735	292
426.958	294
427.18	331
427.402	400
427.625	439
427.847	357
428.069	325
428.292	288
428.514	260
428.736	264
428.958	273
429.181	237
429.403	277
429.625	270
429.847	263
430.069	334
430.292	291
430.514	294
430.736	260
430.958	236
431.18	265
431.402	258
431.624	260
431.846	235
432.068	255
432.29	236
432.512	246
432.734	256
432.956	257
433.178	260
433.4	255
433.622	257
433.844	249
434.066	247
434.287	257
434.509	255
434.731	251
434.953	252
435.175	255
435.397	275
435.618	279
435.84	291
436.062	347
436.284	376
436.505	323
436.727	270
436.949	265
437.17	254
437.392	253
437.614	268
437.835	311
438.057	334
438.278	351
438.5	370
438.721	412
438.943	382
439.165	309
439.386	291
439.608	288
439.829	280
440.05	297
440.272	308
440.493	294
440.715	279
440.936	281
441.158	257
441.379	246
441.6	275
441.822	264
442.043	285
442.264	340
442.486	336
442.707	283
442.928	292
443.149	285
443.371	300
443.592	319
443.813	362
444.034	362
444.255	335
444.476	291
444.698	284
444.919	298
445.14	361
445.361	315
445.582	308
445.803	334
446.024	383
446.245	377
446.466	339
446.687	281
446.908	272
447.129	262
447.35	263
447.571	267
447.792	257
448.013	273
448.234	280
448.455	296
448.675	350
448.896	395
449.117	347
449.338	326
449.559	383
449.779	407
450	315
450.221	275
450.442	262
450.662	258
450.883	249
451.104	263
451.324	249
451.545	257
451.766	243
451.986	244
452.207	231
452.428	243
452.648	243
452.869	245
453.089	238
453.31	241
453.53	251
453.751	244
453.971	239
454.192	242
454.412	240
454.633	243
454.853	248
455.073	246
455.294	255
455.514	276
455.734	269
455.955	233
456.175	229
456.395	241
456.616	250
456.836	238
457.056	229
457.276	217
457.497	235
457.717	227
457.937	205
458.157	241
458.377	249
458.598	239
458.818	259
459.038	285
459.258	302
459.478	262
459.698	259
459.918	243
460.138	249
460.358	246
460.578	258
460.798	246
461.018	250
461.238	241
461.458	246
461.678	233
461.898	254
462.118	252
462.338	267
462.558	260
462.777	256
462.997	269
463.217	261
463.437	271
463.657	247
463.876	266
464.096	290
464.316	268
464.536	264
464.755	263
464.975	236
465.195	273
465.414	291
465.634	288
465.854	252
466.073	249
466.293	261
466.512	251
466.732	248
466.951	246
467.171	256
467.391	254
467.61	255
467.829	248
468.049	250
468.268	246
468.488	239
468.707	234
468.927	241
469.146	234
469.365	238
469.585	234
469.804	248
470.023	257
470.243	247
470.462	241
470.681	261
470.901	223
471.12	229
471.339	247
471.558	241
471.777	251
471.997	245
472.216	242
472.435	248
472.654	245
472.873	249
473.092	243
473.311	239
473.53	234
473.749	256
473.968	268
474.187	314
474.406	320
474.625	258
474.844	249
475.063	260
475.282	257
475.501	260
475.72	255
475.939	257
476.158	258
476.377	261
476.596	262
476.814	267
477.033	270
477.252	268
477.471	267
477.69	276
477.908	275
478.127	269
478.346	282
478.564	280
478.783	274
479.002	295
479.22	265
479.439	294
479.658	302
479.876	277
480.095	303
480.313	286
480.532	298
480.751	291
480.969	283
481.188	315
481.406	307
481.624	291
481.843	287
482.061	290
482.28	281
482.498	280
482.717	267
482.935	323
483.153	278
483.372	282
483.59	297
483.808	292
484.027	278
484.245	282
484.463	287
484.681	302
484.9	286
485.118	282
485.336	290
485.554	292
485.772	289
485.99	311
486.209	321
486.427	301
486.645	286
486.863	305
487.081	310
487.299	306
487.517	294
487.735	298
487.953	293
488.171	322
488.389	303
488.607	311
488.825	306
489.043	295
489.261	285
489.479	301
489.696	295
489.914	293
490.132	297
490.35	318
490.568	313
490.786	323
491.003	305
491.221	324
491.439	317
491.657	338
491.874	328
492.092	333
492.31	340
492.527	317
492.745	333
492.963	346
493.18	341
493.398	345
493.615	349
493.833	354
494.05	349
494.268	335
494.485	339
494.703	343
494.92	343
495.138	338
495.355	345
495.573	335
495.79	359
496.008	333
496.225	327
496.442	352
496.66	351
496.877	344
497.094	354
497.312	364
497.529	350
497.746	334
497.963	356
498.181	370
498.398	367
498.615	381
498.832	381
499.049	394
499.267	389
499.484	397
499.701	411
499.918	425
500.135	439
500.352	445
500.569	466
500.786	461
501.003	445
501.22	447
501.437	438
501.654	445
501.871	429
502.088	408
502.305	393
502.522	412
502.739	383
502.956	369
503.172	386
503.389	349
503.606	360
503.823	351
504.04	360
504.256	373
504.473	381
504.69	347
504.907	347
505.123	348
505.34	352
505.557	325
505.773	350
505.99	347
506.207	324
506.423	333
506.64	322
506.856	323
507.073	325
507.289	309
507.506	305
507.722	319
507.939	307
508.155	345
508.372	337
508.588	312
508.805	318
509.021	316
509.238	327
509.454	320
509.67	309
509.887	325
510.103	330
510.319	336
510.536	347
510.752	503
510.968	415
511.184	330
511.401	321
511.617	310
511.833	309
512.049	284
512.265	306
512.481	318
512.698	298
512.914	305
513.13	297
513.346	292
513.562	306
513.778	299
513.994	309
514.21	290
514.426	309
514.642	307
514.858	328
515.074	340
515.29	388
515.506	510
515.721	435
515.937	344
516.153	328
516.369	308
516.585	313
516.801	291
517.016	316
517.232	310
517.448	315
517.664	311
517.879	321
518.095	318
518.311	296
518.527	299
518.742	307
518.958	309
519.173	310
519.389	300
519.605	313
519.82	309
520.036	307
520.251	314
520.467	343
520.682	310
520.898	324
521.113	309
521.329	337
521.544	380
521.76	467
521.975	653
522.19	633
522.406	383
522.621	327
522.836	305
523.052	295
523.267	293
523.482	258
523.698	277
523.913	285
524.128	270
524.343	277
524.559	280
524.774	265
524.989	272
525.204	294
525.419	279
525.634	284
525.849	270
526.064	281
526.28	277
526.495	260
526.71	267
526.925	249
527.14	251
527.355	276
527.57	256
527.785	275
527.999	261
528.214	249
528.429	265
528.644	270
528.859	265
529.074	250
529.289	261
529.503	301
529.718	299
529.933	275
530.148	250
530.363	271
530.577	264
530.792	247
531.007	246
531.221	237
531.436	255
531.651	277
531.865	263
532.08	266
532.295	256
532.509	250
532.724	251
532.938	231
533.153	249
533.367	253
533.582	267
533.796	260
534.011	246
534.225	251
534.44	244
534.654	244
534.868	252
535.083	256
535.297	243
535.511	242
535.726	254
535.94	258
536.154	238
536.369	242
536.583	235
536.797	227
537.011	238
537.225	231
537.44	236
537.654	239
537.868	249
538.082	249
538.296	233
538.51	234
538.724	227
538.938	231
539.153	238
539.367	235
539.581	241
539.795	271
540.009	244
540.222	238
540.436	262
540.65	256
540.864	251
541.078	251
541.292	246
541.506	263
541.72	244
541.934	273
542.147	250
542.361	257
542.575	241
542.789	234
543.002	244
543.216	265
543.43	250
543.644	246
543.857	246
544.071	246
544.285	261
544.498	239
544.712	249
544.925	237
545.139	234
545.352	243
545.566	242
545.779	242
545.993	253
546.206	248
546.42	251
546.633	229
546.847	244
547.06	241
547.274	245
547.487	253
547.7	233
547.914	231
548.127	257
548.34	233
548.554	255
548.767	244
548.98	246
549.193	244
549.407	229
549.62	226
549.833	234
550.046	244
550.259	241
550.473	230
550.686	217
550.899	235
551.112	226
551.325	244
551.538	235
551.751	230
551.964	238
552.177	249
552.39	217
552.603	243
552.816	248
553.029	225
553.242	238
553.455	237
553.667	257
553.88	239
554.093	236
554.306	241
554.519	233
554.732	246
554.944	240
555.157	213
555.37	221
555.583	216
555.795	225
556.008	230
556.221	213
556.433	199
556.646	246
556.859	234
557.071	226
557.284	205
557.496	230
557.709	211
557.921	219
558.134	210
558.346	227
558.559	215
558.771	229
558.984	219
559.196	219
559.409	215
559.621	206
559.833	217
560.046	215
560.258	198
560.47	220
560.683	225
560.895	215
561.107	219
561.32	208
561.532	217
561.744	221
561.956	220
562.168	203
562.381	221
562.593	221
562.805	221
563.017	213
563.229	219
563.441	217
563.653	211
563.865	213
564.077	220
564.289	214
564.501	235
564.713	210
564.925	230
565.137	227
565.349	213
565.561	228
565.773	242
565.985	221
566.197	227
566.408	235
566.62	245
566.832	245
567.044	256
567.255	246
567.467	257
567.679	254
567.891	255
568.102	248
568.314	251
568.526	248
568.737	220
568.949	221
569.161	236
569.372	229
569.584	220
569.795	231
570.007	206
570.218	228
570.43	223
570.641	217
570.853	205
571.064	213
571.276	205
571.487	190
571.698	200
571.91	190
572.121	202
572.333	198
572.544	185
572.755	202
572.966	195
573.178	196
573.389	193
573.6	203
573.811	187
574.023	186
574.234	199
574.445	195
574.656	190
574.867	198
575.078	187
575.289	195
575.501	188
575.712	194
575.923	195
576.134	186
576.345	183
576.556	187
576.767	188
576.978	187
577.188	209
577.399	203
577.61	197
577.821	182
578.032	180
578.243	193
578.454	271
578.665	224
578.875	199
579.086	194
579.297	196
579.508	182
579.718	183
579.929	195
580.14	190
580.35	177
580.561	179
580.772	182
580.982	177
581.193	186
581.403	174
581.614	171
581.825	169
582.035	178
582.246	171
582.456	174
582.667	181
582.877	187
583.087	175
583.298	187
583.508	177
583.719	173
583.929	195
584.139	168
584.35	173
584.56	186
584.77	165
584.981	171
585.191	188
585.401	171
585.611	167
585.821	168
586.032	180
586.242	171
586.452	173
586.662	165
586.872	183
587.082	168
587.292	173
587.502	175
587.713	188
587.923	170
588.133	175
588.343	179
588.553	171
588.762	180
588.972	181
589.182	213
589.392	205
589.602	173
589.812	201
590.022	193
590.232	186
590.441	181
590.651	185
590.861	172
591.071	179
591.281	170
591.49	181
591.7	162
591.91	161
592.119	172
592.329	186
592.539	170
592.748	165
592.958	172
593.167	178
593.377	182
593.587	193
593.796	185
594.006	173
594.215	162
594.424	183
594.634	168
594.843	190
595.053	177
595.262	168
595.472	177
595.681	159
595.89	180
596.1	167
596.309	161
596.518	181
596.727	162
596.937	168
597.146	165
597.355	165
597.564	171
597.774	167
597.983	177
598.192	173
598.401	179
598.61	155
598.819	161
599.028	149
599.237	161
599.446	160
599.655	150
599.864	156
600.073	152
600.282	169
600.491	161
600.7	168
600.909	161
601.118	154
601.327	168
601.536	150
601.745	162
601.953	144
602.162	158
602.371	161
602.58	158
602.789	164
602.997	158
603.206	154
603.415	154
603.623	152
603.832	162
604.041	157
604.249	156
604.458	149
604.666	157
604.875	153
605.084	152
605.292	172
605.501	163
605.709	161
605.918	155
606.126	156
606.334	147
606.543	173
606.751	153
606.96	158
607.168	155
607.376	165
607.585	158
607.793	158
608.001	155
608.21	148
608.418	135
608.626	161
608.834	167
609.043	144
609.251	157
609.459	148
609.667	156
609.875	152
610.083	158
610.291	167
610.499	175
610.707	151
610.916	155
611.124	160
611.332	169
611.54	155
611.748	172
611.955	155
612.163	153
612.371	165
612.579	149
612.787	159
612.995	161
613.203	170
613.411	154
613.618	156
613.826	163
614.034	135
614.242	158
614.449	138
614.657	142
614.865	164
615.072	147
615.28	138
615.488	142
615.695	155
615.903	154
616.111	149
616.318	155
616.526	154
616.733	133
616.941	152
617.148	161
617.356	162
617.563	156
617.771	158
617.978	156
618.185	150
618.393	169
618.6	157
618.807	159
619.015	138
619.222	157
619.429	139
619.637	150
619.844	139
620.051	133
620.258	137
620.466	154
620.673	136
620.88	139
621.087	135
621.294	148
621.501	151
621.708	159
621.915	146
622.122	142
622.329	128
622.536	147
622.743	154
622.95	156
623.157	143
623.364	129
623.571	135
623.778	157
623.985	145
624.192	133
624.399	152
624.606	133
624.812	166
625.019	146
625.226	122
625.433	127
625.639	131
625.846	143
626.053	133
626.259	151
626.466	158
626.673	129
626.879	146
627.086	139
627.293	158
627.499	142
627.706	133
627.912	133
628.119	145
628.325	138
628.532	154
628.738	153
628.945	128
629.151	139
629.357	139
629.564	149
629.77	125
629.976	128
630.183	131
630.389	141
630.595	145
630.802	138
631.008	115
631.214	135
631.42	141
631.627	127
631.833	131
632.039	136
632.245	135
632.451	135
632.657	132
632.863	134
633.069	131
633.275	122
633.481	123
633.688	126
633.893	124
634.099	126
634.305	134
634.511	115
634.717	118
634.923	124
635.129	134
635.335	141
635.541	142
635.747	123
635.952	131
636.158	129
636.364	130
636.57	131
636.775	124
636.981	127
637.187	139
637.392	129
637.598	126
637.804	111
638.009	126
638.215	129
638.421	125
638.626	126
638.832	127
639.037	120
639.243	124
639.448	135
639.654	138
639.859	125
640.065	135
640.27	134
640.475	122
640.681	129
640.886	117
641.091	138
641.297	135
641.502	120
641.707	119
641.913	115
642.118	116
642.323	123
642.528	126
642.733	122
642.939	136
643.144	124
643.349	124
643.554	119
643.759	130
643.964	114
644.169	126
644.374	109
644.579	127
644.784	120
644.989	129
645.194	121
645.399	129
645.604	121
645.809	125
646.014	129
646.219	138
646.423	129
646.628	113
646.833	122
647.038	117
647.243	111
647.447	117
647.652	127
647.857	136
648.062	135
648.266	122
648.471	115
648.676	117
648.88	114
649.085	133
649.289	122
649.494	125
649.698	118
649.903	129
650.107	115
650.312	134
650.516	106
650.721	114
650.925	129
651.13	107
651.334	109
651.539	118
651.743	121
651.947	110
652.152	94
652.356	114
652.56	123
652.764	114
652.969	126
653.173	125
653.377	108
653.581	115
653.785	118
653.99	109
654.194	113
654.398	116
654.602	97
654.806	121
655.01	118
655.214	122
655.418	121
655.622	115
655.826	88
656.03	120
656.234	103
656.438	127
656.642	116
656.846	114
657.049	115
657.253	96
657.457	107
657.661	110
657.865	116
658.068	99
658.272	90
658.476	95
658.68	103
658.883	94
659.087	104
659.291	86
659.494	88
659.698	73
659.901	104
660.105	94
660.309	84
660.512	88
660.716	87
660.919	85
661.123	98
661.326	94
661.53	89
661.733	92
661.936	99
662.14	72
662.343	84
662.546	95
662.75	78
662.953	99
663.156	87
663.36	88
663.563	99
663.766	81
663.969	85
664.173	77
664.376	95
664.579	89
664.782	94
664.985	76
665.188	84
665.391	73
665.594	72
665.797	87
666	88
666.203	81
666.406	77
666.609	68
666.812	91
667.015	81
667.218	79
667.421	81
667.624	91
667.827	79
668.03	73
668.232	70
668.435	85
668.638	80
668.841	79
669.043	82
669.246	85
669.449	89
669.651	83
669.854	76
670.057	91
670.259	80
670.462	91
670.665	78
670.867	83
671.07	98
671.272	83
671.475	96
671.677	90
671.88	81
672.082	77
672.284	82
672.487	78
672.689	86
672.892	90
