Data from 1984.PennyLincolnUp.Lamp.En5.5.200Scan.071819.P1_HRD10591_16-58-16-967.txt Node
Date: Thu Jul 18 16:58:16 EDT 2019
User: cochatt
Spectrometer: HR+D1059
Trigger mode: 1
Integration Time (sec): 1.000000E-1
Scans to average: 1
Electric dark correction enabled: true
Nonlinearity correction enabled: false
Boxcar width: 0
XAxis mode: Wavelengths
Number of Pixels in Spectrum: 2048
>>>>>Begin Spectral Data<<<<<
223.165	-24
223.4	-24
223.635	-24
223.869	-14
224.104	-18
224.338	-12
224.573	-18
224.808	-26
225.042	-11
225.277	4
225.511	0
225.746	9
225.98	10
226.215	7
226.449	17
226.683	30
226.918	22
227.152	24
227.387	20
227.621	46
227.856	41
228.09	53
228.324	45
228.559	61
228.793	58
229.027	74
229.262	92
229.496	99
229.73	116
229.964	113
230.199	108
230.433	97
230.667	120
230.901	101
231.136	105
231.37	102
231.604	102
231.838	114
232.072	95
232.306	113
232.541	115
232.775	105
233.009	111
233.243	111
233.477	113
233.711	121
233.945	122
234.179	108
234.413	107
234.647	116
234.881	96
235.115	120
235.349	106
235.583	100
235.817	121
236.051	114
236.285	121
236.519	110
236.753	116
236.987	120
237.221	155
237.455	162
237.689	144
237.922	126
238.156	116
238.39	120
238.624	127
238.858	103
239.091	116
239.325	116
239.559	104
239.793	119
240.027	130
240.26	134
240.494	140
240.728	136
240.961	130
241.195	128
241.429	113
241.662	124
241.896	136
242.13	126
242.363	114
242.597	122
242.83	134
243.064	125
243.298	137
243.531	127
243.765	138
243.998	127
244.232	132
244.465	142
244.699	140
244.932	124
245.166	124
245.399	133
245.633	133
245.866	140
246.099	140
246.333	143
246.566	152
246.8	135
247.033	150
247.266	144
247.5	128
247.733	153
247.966	148
248.2	144
248.433	156
248.666	160
248.899	147
249.133	188
249.366	166
249.599	164
249.832	157
250.066	156
250.299	166
250.532	180
250.765	176
250.998	179
251.231	189
251.465	178
251.698	170
251.931	156
252.164	178
252.397	171
252.63	172
252.863	178
253.096	181
253.329	195
253.562	180
253.795	195
254.028	194
254.261	185
254.494	194
254.727	213
254.96	214
255.193	223
255.426	196
255.659	198
255.892	193
256.124	227
256.357	224
256.59	221
256.823	200
257.056	185
257.289	183
257.521	185
257.754	180
257.987	179
258.22	183
258.452	181
258.685	174
258.918	192
259.151	182
259.383	194
259.616	182
259.849	198
260.081	208
260.314	219
260.547	216
260.779	217
261.012	204
261.244	210
261.477	190
261.71	193
261.942	175
262.175	182
262.407	190
262.64	166
262.872	194
263.105	186
263.337	183
263.57	197
263.802	196
264.035	209
264.267	199
264.499	193
264.732	202
264.964	192
265.197	197
265.429	205
265.661	195
265.894	204
266.126	201
266.358	201
266.591	231
266.823	215
267.055	179
267.287	219
267.52	213
267.752	209
267.984	207
268.216	222
268.448	213
268.681	227
268.913	225
269.145	218
269.377	234
269.609	252
269.841	230
270.073	225
270.306	229
270.538	252
270.77	242
271.002	251
271.234	259
271.466	255
271.698	257
271.93	272
272.162	254
272.394	269
272.626	270
272.858	244
273.09	238
273.322	243
273.553	241
273.785	240
274.017	225
274.249	234
274.481	238
274.713	232
274.945	238
275.176	256
275.408	252
275.64	232
275.872	249
276.104	258
276.335	234
276.567	260
276.799	246
277.031	251
277.262	247
277.494	264
277.726	265
277.957	270
278.189	246
278.421	242
278.652	254
278.884	258
279.115	253
279.347	248
279.579	251
279.81	259
280.042	240
280.273	254
280.505	243
280.736	255
280.968	263
281.199	259
281.431	234
281.662	262
281.894	264
282.125	246
282.356	264
282.588	263
282.819	280
283.051	264
283.282	240
283.513	249
283.745	262
283.976	271
284.207	273
284.439	285
284.67	273
284.901	259
285.132	256
285.364	267
285.595	263
285.826	272
286.057	265
286.288	258
286.52	285
286.751	281
286.982	265
287.213	280
287.444	292
287.675	271
287.906	254
288.138	278
288.369	280
288.6	294
288.831	272
289.062	298
289.293	279
289.524	273
289.755	284
289.986	279
290.217	279
290.448	273
290.679	270
290.91	265
291.141	285
291.371	268
291.602	287
291.833	270
292.064	290
292.295	281
292.526	284
292.757	285
292.987	278
293.218	271
293.449	284
293.68	292
293.91	266
294.141	283
294.372	304
294.603	292
294.833	285
295.064	289
295.295	292
295.525	281
295.756	304
295.987	294
296.217	316
296.448	319
296.679	288
296.909	278
297.14	284
297.37	280
297.601	292
297.831	286
298.062	300
298.292	317
298.523	292
298.753	304
298.984	290
299.214	288
299.445	280
299.675	294
299.905	310
300.136	310
300.366	296
300.597	310
300.827	304
301.057	324
301.288	312
301.518	331
301.748	299
301.979	325
302.209	307
302.439	328
302.669	330
302.9	333
303.13	318
303.36	317
303.59	328
303.82	314
304.051	329
304.281	340
304.511	328
304.741	317
304.971	319
305.201	320
305.431	329
305.661	326
305.891	294
306.121	297
306.352	313
306.582	302
306.812	313
307.042	303
307.272	309
307.502	316
307.731	323
307.961	311
308.191	302
308.421	304
308.651	318
308.881	302
309.111	311
309.341	324
309.571	338
309.8	329
310.03	322
310.26	346
310.49	330
310.72	337
310.949	344
311.179	346
311.409	336
311.639	351
311.868	344
312.098	341
312.328	346
312.557	366
312.787	359
313.017	367
313.246	339
313.476	339
313.706	343
313.935	361
314.165	369
314.394	374
314.624	359
314.853	382
315.083	322
315.312	343
315.542	346
315.771	331
316.001	349
316.23	348
316.46	356
316.689	340
316.919	353
317.148	359
317.377	355
317.607	358
317.836	347
318.065	336
318.295	339
318.524	348
318.753	337
318.983	363
319.212	334
319.441	344
319.67	350
319.9	351
320.129	367
320.358	342
320.587	354
320.816	360
321.046	355
321.275	376
321.504	362
321.733	372
321.962	341
322.191	374
322.42	396
322.649	391
322.878	385
323.108	374
323.337	405
323.566	419
323.795	433
324.024	460
324.253	520
324.482	690
324.71	956
324.939	1375
325.168	1200
325.397	657
325.626	514
325.855	448
326.084	423
326.313	440
326.542	406
326.77	436
326.999	517
327.228	661
327.457	895
327.686	1050
327.914	774
328.143	572
328.372	508
328.6	481
328.829	499
329.058	444
329.287	473
329.515	456
329.744	459
329.972	460
330.201	499
330.43	520
330.658	509
330.887	500
331.115	463
331.344	434
331.572	428
331.801	452
332.03	437
332.258	405
332.486	427
332.715	431
332.943	431
333.172	443
333.4	455
333.629	451
333.857	501
334.085	512
334.314	529
334.542	554
334.771	588
334.999	505
335.227	475
335.455	447
335.684	433
335.912	433
336.14	427
336.369	410
336.597	425
336.825	420
337.053	414
337.281	440
337.51	422
337.738	403
337.966	403
338.194	395
338.422	396
338.65	409
338.878	393
339.106	410
339.334	395
339.562	401
339.79	386
340.018	394
340.246	412
340.474	379
340.702	392
340.93	386
341.158	373
341.386	391
341.614	398
341.842	391
342.07	374
342.298	372
342.526	379
342.754	384
342.981	375
343.209	382
343.437	395
343.665	408
343.893	425
344.12	450
344.348	426
344.576	396
344.804	410
345.031	392
345.259	405
345.487	378
345.714	387
345.942	361
346.17	377
346.397	384
346.625	378
346.853	376
347.08	366
347.308	367
347.535	379
347.763	370
347.99	368
348.218	340
348.445	372
348.673	361
348.9	375
349.128	364
349.355	360
349.583	371
349.81	353
350.037	360
350.265	372
350.492	352
350.72	342
350.947	365
351.174	386
351.402	368
351.629	363
351.856	364
352.083	386
352.311	363
352.538	378
352.765	371
352.992	383
353.22	356
353.447	360
353.674	355
353.901	370
354.128	355
354.355	352
354.583	360
354.81	344
355.037	352
355.264	357
355.491	342
355.718	356
355.945	332
356.172	343
356.399	347
356.626	356
356.853	344
357.08	363
357.307	343
357.534	348
357.761	346
357.988	347
358.215	345
358.441	345
358.668	347
358.895	339
359.122	340
359.349	341
359.576	364
359.802	384
360.029	379
360.256	404
360.483	368
360.709	360
360.936	368
361.163	358
361.39	359
361.616	369
361.843	376
362.07	373
362.296	364
362.523	376
362.749	349
362.976	348
363.203	364
363.429	365
363.656	352
363.882	336
364.109	350
364.335	357
364.562	362
364.788	344
365.015	336
365.241	360
365.468	355
365.694	363
365.92	350
366.147	352
366.373	334
366.599	355
366.826	345
367.052	350
367.278	352
367.505	323
367.731	336
367.957	355
368.184	341
368.41	350
368.636	348
368.862	379
369.089	339
369.315	340
369.541	330
369.767	352
369.993	354
370.219	348
370.445	367
370.672	358
370.898	355
371.124	368
371.35	354
371.576	344
371.802	358
372.028	354
372.254	352
372.48	364
372.706	373
372.932	353
373.158	376
373.384	378
373.61	356
373.835	357
374.061	350
374.287	372
374.513	345
374.739	370
374.965	374
375.191	383
375.416	385
375.642	369
375.868	359
376.094	363
376.319	361
376.545	360
376.771	356
376.997	340
377.222	350
377.448	343
377.674	376
377.899	344
378.125	349
378.35	361
378.576	345
378.802	355
379.027	353
379.253	346
379.478	339
379.704	350
379.929	354
380.155	358
380.38	359
380.606	350
380.831	348
381.057	382
381.282	366
381.507	351
381.733	349
381.958	365
382.184	346
382.409	374
382.634	370
382.86	358
383.085	380
383.31	379
383.535	394
383.761	372
383.986	407
384.211	396
384.436	392
384.662	388
384.887	410
385.112	380
385.337	414
385.562	387
385.787	405
386.013	414
386.238	411
386.463	410
386.688	390
386.913	413
387.138	394
387.363	404
387.588	390
387.813	400
388.038	409
388.263	415
388.488	416
388.713	388
388.938	407
389.163	402
389.387	382
389.612	389
389.837	369
390.062	411
390.287	387
390.512	416
390.736	407
390.961	411
391.186	417
391.411	416
391.636	416
391.86	440
392.085	439
392.31	453
392.534	437
392.759	425
392.984	418
393.208	425
393.433	401
393.658	405
393.882	410
394.107	411
394.331	420
394.556	413
394.78	410
395.005	412
395.229	402
395.454	396
395.678	426
395.903	437
396.127	437
396.352	441
396.576	441
396.801	417
397.025	439
397.249	432
397.474	430
397.698	438
397.922	453
398.147	444
398.371	448
398.595	451
398.82	468
399.044	500
399.268	523
399.492	583
399.717	618
399.941	657
400.165	616
400.389	600
400.613	516
400.837	480
401.062	475
401.286	463
401.51	490
401.734	456
401.958	488
402.182	483
402.406	493
402.63	489
402.854	500
403.078	490
403.302	496
403.526	500
403.75	503
403.974	523
404.198	518
404.422	524
404.645	524
404.869	510
405.093	538
405.317	563
405.541	588
405.765	547
405.988	528
406.212	535
406.436	530
406.66	551
406.883	538
407.107	568
407.331	594
407.555	634
407.778	614
408.002	580
408.226	588
408.449	542
408.673	530
408.896	552
409.12	566
409.344	561
409.567	527
409.791	512
410.014	532
410.238	508
410.461	485
410.685	491
410.908	493
411.132	512
411.355	534
411.578	510
411.802	508
412.025	484
412.249	518
412.472	508
412.695	565
412.919	548
413.142	487
413.365	504
413.589	476
413.812	460
414.035	454
414.258	456
414.482	454
414.705	465
414.928	465
415.151	463
415.374	470
415.597	452
415.821	461
416.044	431
416.267	459
416.49	455
416.713	433
416.936	476
417.159	470
417.382	463
417.605	468
417.828	480
418.051	464
418.274	466
418.497	459
418.72	469
418.943	474
419.166	486
419.389	504
419.611	494
419.834	484
420.057	499
420.28	513
420.503	512
420.726	471
420.948	475
421.171	496
421.394	510
421.617	502
421.839	489
422.062	488
422.285	496
422.507	525
422.73	579
422.953	574
423.175	508
423.398	505
423.621	517
423.843	514
424.066	502
424.288	502
424.511	501
424.733	531
424.956	576
425.178	579
425.401	555
425.623	559
425.846	522
426.068	487
426.291	471
426.513	488
426.735	460
426.958	490
427.18	539
427.402	615
427.625	682
427.847	630
428.069	554
428.292	489
428.514	470
428.736	463
428.958	450
429.181	443
429.403	445
429.625	438
429.847	447
430.069	502
430.292	510
430.514	446
430.736	438
430.958	420
431.18	435
431.402	419
431.624	417
431.846	424
432.068	425
432.29	440
432.512	439
432.734	449
432.956	443
433.178	414
433.4	421
433.622	423
433.844	415
434.066	441
434.287	427
434.509	448
434.731	450
434.953	454
435.175	481
435.397	481
435.618	466
435.84	474
436.062	546
436.284	584
436.505	477
436.727	462
436.949	439
437.17	440
437.392	432
437.614	448
437.835	449
438.057	498
438.278	551
438.5	554
438.721	593
438.943	584
439.165	516
439.386	484
439.608	463
439.829	455
440.05	478
440.272	523
440.493	466
440.715	462
440.936	455
441.158	459
441.379	469
441.6	488
441.822	459
442.043	514
442.264	545
442.486	581
442.707	524
442.928	475
443.149	486
443.371	491
443.592	517
443.813	580
444.034	623
444.255	546
444.476	532
444.698	537
444.919	526
445.14	611
445.361	551
445.582	518
445.803	532
446.024	576
446.245	588
446.466	533
446.687	498
446.908	478
447.129	448
447.35	444
447.571	438
447.792	416
448.013	416
448.234	430
448.455	480
448.675	514
448.896	586
449.117	489
449.338	490
449.559	562
449.779	604
450	519
450.221	446
450.442	422
450.662	411
450.883	426
451.104	410
451.324	417
451.545	437
451.766	401
451.986	389
452.207	386
452.428	383
452.648	390
452.869	389
453.089	390
453.31	409
453.53	399
453.751	399
453.971	385
454.192	391
454.412	397
454.633	404
454.853	383
455.073	384
455.294	407
455.514	437
455.734	434
455.955	394
456.175	386
456.395	375
456.616	384
456.836	367
457.056	352
457.276	368
457.497	356
457.717	379
457.937	380
458.157	391
458.377	395
458.598	413
458.818	423
459.038	491
459.258	488
459.478	464
459.698	450
459.918	452
460.138	452
460.358	477
460.578	464
460.798	464
461.018	474
461.238	467
461.458	454
461.678	451
461.898	477
462.118	476
462.338	476
462.558	495
462.777	481
462.997	537
463.217	559
463.437	560
463.657	552
463.876	510
464.096	514
464.316	499
464.536	502
464.755	530
464.975	517
465.195	504
465.414	516
465.634	477
465.854	434
466.073	425
466.293	407
466.512	410
466.732	398
466.951	410
467.171	406
467.391	416
467.61	411
467.829	383
468.049	435
468.268	418
468.488	397
468.707	392
468.927	417
469.146	378
469.365	409
469.585	407
469.804	422
470.023	420
470.243	410
470.462	412
470.681	417
470.901	419
471.12	402
471.339	410
471.558	400
471.777	404
471.997	387
472.216	423
472.435	457
472.654	428
472.873	404
473.092	388
473.311	417
473.53	407
473.749	412
473.968	449
474.187	495
474.406	486
474.625	427
474.844	406
475.063	407
475.282	395
475.501	404
475.72	417
475.939	408
476.158	423
476.377	396
476.596	423
476.814	415
477.033	415
477.252	418
477.471	422
477.69	437
477.908	444
478.127	446
478.346	455
478.564	468
478.783	464
479.002	481
479.22	481
479.439	479
479.658	480
479.876	483
480.095	479
480.313	505
480.532	540
480.751	515
480.969	524
481.188	573
481.406	589
481.624	527
481.843	496
482.061	480
482.28	456
482.498	446
482.717	463
482.935	464
483.153	494
483.372	456
483.59	454
483.808	484
484.027	455
484.245	451
484.463	458
484.681	473
484.9	463
485.118	475
485.336	480
485.554	470
485.772	486
485.99	475
486.209	470
486.427	467
486.645	464
486.863	508
487.081	485
487.299	480
487.517	492
487.735	472
487.953	482
488.171	491
488.389	492
488.607	498
488.825	483
489.043	489
489.261	487
489.479	488
489.696	477
489.914	463
490.132	492
490.35	521
490.568	518
490.786	512
491.003	528
491.221	555
491.439	531
491.657	544
491.874	554
492.092	556
492.31	558
492.527	542
492.745	544
492.963	578
493.18	554
493.398	578
493.615	566
493.833	526
494.05	579
494.268	573
494.485	572
494.703	542
494.92	570
495.138	550
495.355	547
495.573	541
495.79	554
496.008	552
496.225	561
496.442	571
496.66	576
496.877	574
497.094	601
497.312	588
497.529	603
497.746	603
497.963	614
498.181	640
498.398	651
498.615	664
498.832	653
499.049	737
499.267	756
499.484	776
499.701	853
499.918	891
500.135	971
500.352	1058
500.569	1089
500.786	1118
501.003	1033
501.22	972
501.437	946
501.654	866
501.871	811
502.088	739
502.305	739
502.522	695
502.739	670
502.956	632
503.172	625
503.389	630
503.606	598
503.823	570
504.04	586
504.256	608
504.473	607
504.69	605
504.907	593
505.123	569
505.34	559
505.557	519
505.773	529
505.99	525
506.207	505
506.423	516
506.64	522
506.856	514
507.073	502
507.289	503
507.506	511
507.722	508
507.939	502
508.155	496
508.372	468
508.588	492
508.805	498
509.021	474
509.238	491
509.454	492
509.67	473
509.887	495
510.103	484
510.319	484
510.536	552
510.752	834
510.968	657
511.184	489
511.401	474
511.617	470
511.833	488
512.049	486
512.265	483
512.481	458
512.698	459
512.914	470
513.13	478
513.346	459
513.562	468
513.778	454
513.994	475
514.21	443
514.426	477
514.642	510
514.858	502
515.074	512
515.29	615
515.506	794
515.721	682
515.937	520
516.153	503
516.369	531
516.585	510
516.801	514
517.016	523
517.232	517
517.448	539
517.664	546
517.879	523
518.095	545
518.311	553
518.527	539
518.742	525
518.958	521
519.173	500
519.389	499
519.605	505
519.82	487
520.036	498
520.251	496
520.467	497
520.682	493
520.898	489
521.113	498
521.329	524
521.544	539
521.76	640
521.975	937
522.19	939
522.406	586
522.621	481
522.836	450
523.052	450
523.267	426
523.482	423
523.698	410
523.913	418
524.128	409
524.343	420
524.559	397
524.774	414
524.989	396
525.204	414
525.419	409
525.634	414
525.849	422
526.064	392
526.28	407
526.495	415
526.71	390
526.925	420
527.14	388
527.355	389
527.57	387
527.785	396
527.999	377
528.214	389
528.429	403
528.644	387
528.859	403
529.074	393
529.289	400
529.503	456
529.718	430
529.933	403
530.148	400
530.363	388
530.577	399
530.792	395
531.007	390
531.221	396
531.436	386
531.651	394
531.865	392
532.08	383
532.295	404
532.509	391
532.724	382
532.938	380
533.153	388
533.367	394
533.582	387
533.796	391
534.011	394
534.225	373
534.44	384
534.654	376
534.868	379
535.083	389
535.297	372
535.511	386
535.726	380
535.94	371
536.154	376
536.369	366
536.583	371
536.797	371
537.011	355
537.225	377
537.44	375
537.654	374
537.868	358
538.082	362
538.296	369
538.51	350
538.724	375
538.938	379
539.153	373
539.367	372
539.581	364
539.795	378
540.009	374
540.222	373
540.436	374
540.65	371
540.864	364
541.078	376
541.292	363
541.506	375
541.72	350
541.934	350
542.147	356
542.361	375
542.575	360
542.789	378
543.002	359
543.216	372
543.43	366
543.644	374
543.857	371
544.071	380
544.285	379
544.498	368
544.712	357
544.925	375
545.139	362
545.352	378
545.566	368
545.779	382
545.993	383
546.206	377
546.42	374
546.633	367
546.847	346
547.06	359
547.274	380
547.487	391
547.7	353
547.914	359
548.127	360
548.34	360
548.554	345
548.767	356
548.98	350
549.193	364
549.407	361
549.62	384
549.833	370
550.046	375
550.259	356
550.473	366
550.686	363
550.899	374
551.112	364
551.325	345
551.538	352
551.751	370
551.964	355
552.177	376
552.39	378
552.603	362
552.816	378
553.029	382
553.242	375
553.455	389
553.667	387
553.88	383
554.093	370
554.306	367
554.519	364
554.732	358
554.944	358
555.157	361
555.37	363
555.583	355
555.795	349
556.008	337
556.221	344
556.433	331
556.646	335
556.859	331
557.071	323
557.284	343
557.496	335
557.709	324
557.921	323
558.134	313
558.346	329
558.559	330
558.771	322
558.984	304
559.196	312
559.409	310
559.621	312
559.833	295
560.046	319
560.258	318
560.47	327
560.683	323
560.895	326
561.107	312
561.32	322
561.532	328
561.744	325
561.956	329
562.168	321
562.381	340
562.593	336
562.805	319
563.017	336
563.229	320
563.441	316
563.653	340
563.865	331
564.077	340
564.289	322
564.501	339
564.713	344
564.925	335
565.137	368
565.349	360
565.561	357
565.773	353
565.985	372
566.197	385
566.408	417
566.62	402
566.832	437
567.044	452
567.255	463
567.467	454
567.679	473
567.891	509
568.102	502
568.314	514
568.526	452
568.737	450
568.949	417
569.161	393
569.372	363
569.584	353
569.795	333
570.007	366
570.218	358
570.43	356
570.641	324
570.853	329
571.064	324
571.276	331
571.487	307
571.698	303
571.91	315
572.121	294
572.333	307
572.544	298
572.755	286
572.966	294
573.178	284
573.389	280
573.6	275
573.811	293
574.023	270
574.234	284
574.445	294
574.656	286
574.867	276
575.078	298
575.289	286
575.501	284
575.712	265
575.923	270
576.134	303
576.345	269
576.556	274
576.767	276
576.978	279
577.188	270
577.399	273
577.61	266
577.821	285
578.032	270
578.243	296
578.454	397
578.665	325
578.875	265
579.086	264
579.297	275
579.508	230
579.718	270
579.929	234
580.14	257
580.35	251
580.561	261
580.772	254
580.982	242
581.193	241
581.403	257
581.614	247
581.825	267
582.035	256
582.246	240
582.456	246
582.667	265
582.877	250
583.087	263
583.298	246
583.508	248
583.719	257
583.929	244
584.139	244
584.35	248
584.56	261
584.77	235
584.981	251
585.191	241
585.401	244
585.611	232
585.821	252
586.032	245
586.242	250
586.452	260
586.662	248
586.872	242
587.082	242
587.292	257
587.502	247
587.713	232
587.923	249
588.133	247
588.343	226
588.553	241
588.762	257
588.972	241
589.182	250
589.392	261
589.602	252
589.812	239
590.022	254
590.232	263
590.441	255
590.651	242
590.861	221
591.071	250
591.281	260
591.49	253
591.7	244
591.91	247
592.119	267
592.329	275
592.539	278
592.748	281
592.958	276
593.167	298
593.377	281
593.587	294
593.796	287
594.006	294
594.215	294
594.424	292
594.634	304
594.843	291
595.053	283
595.262	275
595.472	261
595.681	246
595.89	247
596.1	242
596.309	255
596.518	250
596.727	254
596.937	243
597.146	229
597.355	231
597.564	245
597.774	212
597.983	208
598.192	219
598.401	230
598.61	215
598.819	221
599.028	219
599.237	229
599.446	221
599.655	235
599.864	222
600.073	218
600.282	235
600.491	230
600.7	224
600.909	192
601.118	212
601.327	218
601.536	202
601.745	224
601.953	206
602.162	229
602.371	229
602.58	203
602.789	214
602.997	210
603.206	211
603.415	212
603.623	212
603.832	211
604.041	218
604.249	210
604.458	216
604.666	216
604.875	211
605.084	211
605.292	204
605.501	211
605.709	206
605.918	211
606.126	199
606.334	204
606.543	205
606.751	210
606.96	192
607.168	195
607.376	202
607.585	198
607.793	206
608.001	201
608.21	200
608.418	204
608.626	203
608.834	198
609.043	181
609.251	214
609.459	220
609.667	219
609.875	191
610.083	187
610.291	202
610.499	194
610.707	193
610.916	214
611.124	214
611.332	216
611.54	219
611.748	205
611.955	203
612.163	189
612.371	204
612.579	198
612.787	212
612.995	200
613.203	202
613.411	204
613.618	206
613.826	211
614.034	205
614.242	194
614.449	197
614.657	204
614.865	188
615.072	205
615.28	201
615.488	199
615.695	211
615.903	219
616.111	198
616.318	215
616.526	196
616.733	184
616.941	204
617.148	202
617.356	200
617.563	195
617.771	210
617.978	177
618.185	186
618.393	172
618.6	191
618.807	194
619.015	179
619.222	190
619.429	193
619.637	195
619.844	222
620.051	190
620.258	188
620.466	190
620.673	185
620.88	184
621.087	198
621.294	205
621.501	194
621.708	193
621.915	190
622.122	171
622.329	181
622.536	192
622.743	182
622.95	180
623.157	194
623.364	186
623.571	190
623.778	185
623.985	186
624.192	184
624.399	176
624.606	175
624.812	179
625.019	184
625.226	176
625.433	172
625.639	178
625.846	181
626.053	163
626.259	192
626.466	196
626.673	172
626.879	158
627.086	177
627.293	175
627.499	169
627.706	174
627.912	171
628.119	178
628.325	176
628.532	169
628.738	165
628.945	165
629.151	168
629.357	175
629.564	166
629.77	166
629.976	169
630.183	152
630.389	153
630.595	166
630.802	168
631.008	178
631.214	155
631.42	165
631.627	171
631.833	159
632.039	160
632.245	191
632.451	155
632.657	140
632.863	153
633.069	155
633.275	170
633.481	164
633.688	164
633.893	159
634.099	171
634.305	168
634.511	136
634.717	151
634.923	154
635.129	158
635.335	154
635.541	163
635.747	163
635.952	152
636.158	162
636.364	163
636.57	163
636.775	147
636.981	160
637.187	146
637.392	171
637.598	148
637.804	171
638.009	163
638.215	146
638.421	166
638.626	127
638.832	156
639.037	144
639.243	147
639.448	143
639.654	153
639.859	135
640.065	146
640.27	146
640.475	154
640.681	149
640.886	155
641.091	151
641.297	146
641.502	148
641.707	146
641.913	146
642.118	150
642.323	165
642.528	149
642.733	149
642.939	138
643.144	148
643.349	144
643.554	167
643.759	154
643.964	147
644.169	149
644.374	143
644.579	139
644.784	138
644.989	145
645.194	133
645.399	146
645.604	143
645.809	157
646.014	152
646.219	156
646.423	140
646.628	147
646.833	137
647.038	127
647.243	145
647.447	146
647.652	159
647.857	155
648.062	146
648.266	144
648.471	161
648.676	146
648.88	147
649.085	147
649.289	151
649.494	166
649.698	164
649.903	164
650.107	157
650.312	149
650.516	144
650.721	138
650.925	142
651.13	137
651.334	138
651.539	137
651.743	129
651.947	160
652.152	146
652.356	130
652.56	126
652.764	123
652.969	123
653.173	126
653.377	132
653.581	129
653.785	128
653.99	126
654.194	129
654.398	133
654.602	112
654.806	122
655.01	122
655.214	120
655.418	117
655.622	135
655.826	127
656.03	128
656.234	118
656.438	139
656.642	135
656.846	127
657.049	114
657.253	119
657.457	107
657.661	105
657.865	112
658.068	110
658.272	100
658.476	110
658.68	104
658.883	104
659.087	102
659.291	99
659.494	105
659.698	100
659.901	104
660.105	92
660.309	78
660.512	95
660.716	85
660.919	85
661.123	89
661.326	70
661.53	92
661.733	79
661.936	84
662.14	85
662.343	91
662.546	82
662.75	89
662.953	86
663.156	73
663.36	80
663.563	87
663.766	74
663.969	86
664.173	79
664.376	74
664.579	82
664.782	84
664.985	73
665.188	84
665.391	95
665.594	74
665.797	80
666	75
666.203	88
666.406	76
666.609	90
666.812	72
667.015	75
667.218	90
667.421	88
667.624	90
667.827	93
668.03	76
668.232	76
668.435	80
668.638	81
668.841	81
669.043	76
669.246	75
669.449	87
669.651	79
669.854	69
670.057	83
670.259	79
670.462	71
670.665	96
670.867	79
671.07	74
671.272	65
671.475	75
671.677	75
671.88	70
672.082	86
672.284	92
672.487	90
672.689	76
672.892	88
