Data from 1986.PennyLincolnUp.Lamp.En5.5.200Scan.071819.P2_HRD10591_17-09-41-974.txt Node
Date: Thu Jul 18 17:09:41 EDT 2019
User: cochatt
Spectrometer: HR+D1059
Trigger mode: 1
Integration Time (sec): 1.000000E-1
Scans to average: 1
Electric dark correction enabled: true
Nonlinearity correction enabled: false
Boxcar width: 0
XAxis mode: Wavelengths
Number of Pixels in Spectrum: 2048
>>>>>Begin Spectral Data<<<<<
223.165	-23.81
223.4	-23.81
223.635	-23.81
223.869	-14.81
224.104	-21.81
224.338	-15.81
224.573	-21.81
224.808	-4.81
225.042	-14.81
225.277	-9.81
225.511	6.19
225.746	12.19
225.98	-1.81
226.215	7.19
226.449	24.19
226.683	24.19
226.918	32.19
227.152	23.19
227.387	41.19
227.621	44.19
227.856	38.19
228.09	43.19
228.324	44.19
228.559	57.19
228.793	78.19
229.027	100.19
229.262	103.19
229.496	104.19
229.73	118.19
229.964	142.19
230.199	109.19
230.433	100.19
230.667	112.19
230.901	124.19
231.136	110.19
231.37	98.19
231.604	99.19
231.838	91.19
232.072	90.19
232.306	101.19
232.541	113.19
232.775	113.19
233.009	110.19
233.243	120.19
233.477	107.19
233.711	110.19
233.945	110.19
234.179	124.19
234.413	110.19
234.647	96.19
234.881	104.19
235.115	99.19
235.349	102.19
235.583	121.19
235.817	122.19
236.051	105.19
236.285	122.19
236.519	128.19
236.753	117.19
236.987	133.19
237.221	150.19
237.455	198.19
237.689	158.19
237.922	130.19
238.156	126.19
238.39	112.19
238.624	116.19
238.858	116.19
239.091	117.19
239.325	122.19
239.559	137.19
239.793	118.19
240.027	136.19
240.26	129.19
240.494	132.19
240.728	130.19
240.961	132.19
241.195	140.19
241.429	150.19
241.662	123.19
241.896	134.19
242.13	123.19
242.363	134.19
242.597	125.19
242.83	132.19
243.064	118.19
243.298	118.19
243.531	114.19
243.765	119.19
243.998	128.19
244.232	121.19
244.465	136.19
244.699	133.19
244.932	136.19
245.166	128.19
245.399	133.19
245.633	140.19
245.866	132.19
246.099	119.19
246.333	143.19
246.566	118.19
246.8	130.19
247.033	142.19
247.266	140.19
247.5	154.19
247.733	146.19
247.966	147.19
248.2	152.19
248.433	158.19
248.666	145.19
248.899	158.19
249.133	181.19
249.366	201.19
249.599	181.19
249.832	174.19
250.066	167.19
250.299	169.19
250.532	165.19
250.765	179.19
250.998	190.19
251.231	194.19
251.465	183.19
251.698	176.19
251.931	186.19
252.164	187.19
252.397	179.19
252.63	181.19
252.863	190.19
253.096	187.19
253.329	217.19
253.562	201.19
253.795	193.19
254.028	196.19
254.261	188.19
254.494	194.19
254.727	217.19
254.96	212.19
255.193	232.19
255.426	208.19
255.659	217.19
255.892	225.19
256.124	201.19
256.357	183.19
256.59	182.19
256.823	177.19
257.056	182.19
257.289	201.19
257.521	185.19
257.754	186.19
257.987	186.19
258.22	188.19
258.452	204.19
258.685	183.19
258.918	194.19
259.151	190.19
259.383	170.19
259.616	204.19
259.849	210.19
260.081	216.19
260.314	216.19
260.547	206.19
260.779	220.19
261.012	206.19
261.244	192.19
261.477	202.19
261.71	200.19
261.942	181.19
262.175	198.19
262.407	199.19
262.64	187.19
262.872	174.19
263.105	173.19
263.337	187.19
263.57	194.19
263.802	184.19
264.035	192.19
264.267	193.19
264.499	181.19
264.732	185.19
264.964	191.19
265.197	168.19
265.429	186.19
265.661	186.19
265.894	180.19
266.126	167.19
266.358	186.19
266.591	189.19
266.823	204.19
267.055	201.19
267.287	182.19
267.52	183.19
267.752	189.19
267.984	193.19
268.216	206.19
268.448	201.19
268.681	202.19
268.913	201.19
269.145	222.19
269.377	232.19
269.609	239.19
269.841	222.19
270.073	221.19
270.306	233.19
270.538	257.19
270.77	251.19
271.002	254.19
271.234	238.19
271.466	246.19
271.698	233.19
271.93	269.19
272.162	246.19
272.394	284.19
272.626	245.19
272.858	232.19
273.09	238.19
273.322	240.19
273.553	223.19
273.785	217.19
274.017	213.19
274.249	218.19
274.481	211.19
274.713	217.19
274.945	227.19
275.176	235.19
275.408	223.19
275.64	210.19
275.872	224.19
276.104	226.19
276.335	233.19
276.567	226.19
276.799	241.19
277.031	247.19
277.262	256.19
277.494	266.19
277.726	240.19
277.957	265.19
278.189	237.19
278.421	220.19
278.652	236.19
278.884	232.19
279.115	218.19
279.347	222.19
279.579	228.19
279.81	218.19
280.042	229.19
280.273	229.19
280.505	222.19
280.736	221.19
280.968	233.19
281.199	225.19
281.431	221.19
281.662	230.19
281.894	225.19
282.125	235.19
282.356	233.19
282.588	244.19
282.819	246.19
283.051	227.19
283.282	212.19
283.513	216.19
283.745	223.19
283.976	239.19
284.207	232.19
284.439	211.19
284.67	215.19
284.901	208.19
285.132	217.19
285.364	235.19
285.595	209.19
285.826	221.19
286.057	216.19
286.288	233.19
286.52	227.19
286.751	234.19
286.982	224.19
287.213	237.19
287.444	217.19
287.675	234.19
287.906	242.19
288.138	240.19
288.369	247.19
288.6	235.19
288.831	222.19
289.062	241.19
289.293	253.19
289.524	236.19
289.755	232.19
289.986	216.19
290.217	229.19
290.448	225.19
290.679	231.19
290.91	243.19
291.141	223.19
291.371	234.19
291.602	255.19
291.833	247.19
292.064	240.19
292.295	241.19
292.526	220.19
292.757	221.19
292.987	245.19
293.218	221.19
293.449	221.19
293.68	260.19
293.91	225.19
294.141	217.19
294.372	249.19
294.603	232.19
294.833	234.19
295.064	243.19
295.295	239.19
295.525	233.19
295.756	239.19
295.987	238.19
296.217	267.19
296.448	260.19
296.679	239.19
296.909	238.19
297.14	244.19
297.37	237.19
297.601	244.19
297.831	233.19
298.062	223.19
298.292	246.19
298.523	244.19
298.753	223.19
298.984	262.19
299.214	255.19
299.445	245.19
299.675	250.19
299.905	254.19
300.136	252.19
300.366	249.19
300.597	226.19
300.827	241.19
301.057	243.19
301.288	261.19
301.518	278.19
301.748	256.19
301.979	254.19
302.209	246.19
302.439	249.19
302.669	250.19
302.9	264.19
303.13	252.19
303.36	254.19
303.59	262.19
303.82	266.19
304.051	274.19
304.281	246.19
304.511	263.19
304.741	268.19
304.971	258.19
305.201	263.19
305.431	244.19
305.661	265.19
305.891	264.19
306.121	275.19
306.352	253.19
306.582	272.19
306.812	272.19
307.042	268.19
307.272	251.19
307.502	241.19
307.731	255.19
307.961	253.19
308.191	260.19
308.421	263.19
308.651	261.19
308.881	270.19
309.111	289.19
309.341	297.19
309.571	300.19
309.8	279.19
310.03	290.19
310.26	298.19
310.49	294.19
310.72	295.19
310.949	324.19
311.179	315.19
311.409	303.19
311.639	300.19
311.868	290.19
312.098	298.19
312.328	296.19
312.557	308.19
312.787	317.19
313.017	319.19
313.246	306.19
313.476	283.19
313.706	294.19
313.935	314.19
314.165	295.19
314.394	312.19
314.624	303.19
314.853	304.19
315.083	295.19
315.312	288.19
315.542	298.19
315.771	300.19
316.001	287.19
316.23	289.19
316.46	292.19
316.689	300.19
316.919	305.19
317.148	305.19
317.377	294.19
317.607	288.19
317.836	296.19
318.065	308.19
318.295	297.19
318.524	282.19
318.753	290.19
318.983	281.19
319.212	310.19
319.441	302.19
319.67	311.19
319.9	314.19
320.129	283.19
320.358	276.19
320.587	302.19
320.816	295.19
321.046	310.19
321.275	317.19
321.504	308.19
321.733	320.19
321.962	322.19
322.191	337.19
322.42	322.19
322.649	340.19
322.878	338.19
323.108	333.19
323.337	369.19
323.566	378.19
323.795	399.19
324.024	433.19
324.253	492.19
324.482	705.19
324.71	1089.19
324.939	1591.19
325.168	1370.19
325.397	712.19
325.626	474.19
325.855	426.19
326.084	396.19
326.313	396.19
326.542	395.19
326.77	419.19
326.999	490.19
327.228	664.19
327.457	1001.19
327.686	1198.19
327.914	820.19
328.143	558.19
328.372	472.19
328.6	441.19
328.829	419.19
329.058	440.19
329.287	450.19
329.515	421.19
329.744	382.19
329.972	356.19
330.201	356.19
330.43	387.19
330.658	428.19
330.887	450.19
331.115	449.19
331.344	398.19
331.572	375.19
331.801	358.19
332.03	356.19
332.258	362.19
332.486	342.19
332.715	340.19
332.943	343.19
333.172	336.19
333.4	359.19
333.629	345.19
333.857	345.19
334.085	325.19
334.314	332.19
334.542	328.19
334.771	353.19
334.999	336.19
335.227	343.19
335.455	333.19
335.684	332.19
335.912	346.19
336.14	340.19
336.369	328.19
336.597	338.19
336.825	338.19
337.053	319.19
337.281	341.19
337.51	324.19
337.738	347.19
337.966	336.19
338.194	355.19
338.422	346.19
338.65	334.19
338.878	333.19
339.106	310.19
339.334	306.19
339.562	329.19
339.79	341.19
340.018	322.19
340.246	338.19
340.474	326.19
340.702	340.19
340.93	321.19
341.158	334.19
341.386	332.19
341.614	320.19
341.842	334.19
342.07	340.19
342.298	336.19
342.526	331.19
342.754	328.19
342.981	318.19
343.209	316.19
343.437	325.19
343.665	311.19
343.893	304.19
344.12	345.19
344.348	331.19
344.576	338.19
344.804	341.19
345.031	338.19
345.259	337.19
345.487	330.19
345.714	345.19
345.942	312.19
346.17	344.19
346.397	317.19
346.625	327.19
346.853	326.19
347.08	313.19
347.308	334.19
347.535	334.19
347.763	344.19
347.99	322.19
348.218	321.19
348.445	327.19
348.673	330.19
348.9	338.19
349.128	316.19
349.355	297.19
349.583	317.19
349.81	303.19
350.037	310.19
350.265	310.19
350.492	313.19
350.72	323.19
350.947	314.19
351.174	316.19
351.402	334.19
351.629	326.19
351.856	321.19
352.083	335.19
352.311	349.19
352.538	312.19
352.765	322.19
352.992	342.19
353.22	316.19
353.447	328.19
353.674	331.19
353.901	330.19
354.128	314.19
354.355	299.19
354.583	303.19
354.81	308.19
355.037	300.19
355.264	296.19
355.491	292.19
355.718	293.19
355.945	287.19
356.172	297.19
356.399	305.19
356.626	288.19
356.853	302.19
357.08	292.19
357.307	304.19
357.534	303.19
357.761	305.19
357.988	317.19
358.215	313.19
358.441	307.19
358.668	302.19
358.895	313.19
359.122	308.19
359.349	308.19
359.576	307.19
359.802	332.19
360.029	349.19
360.256	353.19
360.483	337.19
360.709	330.19
360.936	311.19
361.163	328.19
361.39	336.19
361.616	312.19
361.843	312.19
362.07	309.19
362.296	324.19
362.523	314.19
362.749	323.19
362.976	310.19
363.203	316.19
363.429	317.19
363.656	313.19
363.882	308.19
364.109	299.19
364.335	301.19
364.562	311.19
364.788	312.19
365.015	320.19
365.241	317.19
365.468	329.19
365.694	312.19
365.92	318.19
366.147	312.19
366.373	297.19
366.599	307.19
366.826	308.19
367.052	314.19
367.278	306.19
367.505	322.19
367.731	320.19
367.957	293.19
368.184	298.19
368.41	316.19
368.636	320.19
368.862	342.19
369.089	314.19
369.315	316.19
369.541	315.19
369.767	298.19
369.993	312.19
370.219	310.19
370.445	297.19
370.672	304.19
370.898	316.19
371.124	302.19
371.35	300.19
371.576	300.19
371.802	298.19
372.028	290.19
372.254	304.19
372.48	306.19
372.706	301.19
372.932	302.19
373.158	314.19
373.384	313.19
373.61	314.19
373.835	318.19
374.061	300.19
374.287	325.19
374.513	295.19
374.739	304.19
374.965	303.19
375.191	300.19
375.416	295.19
375.642	306.19
375.868	316.19
376.094	318.19
376.319	298.19
376.545	305.19
376.771	309.19
376.997	296.19
377.222	286.19
377.448	303.19
377.674	316.19
377.899	290.19
378.125	281.19
378.35	292.19
378.576	290.19
378.802	289.19
379.027	311.19
379.253	302.19
379.478	321.19
379.704	312.19
379.929	320.19
380.155	314.19
380.38	312.19
380.606	305.19
380.831	316.19
381.057	310.19
381.282	312.19
381.507	309.19
381.733	323.19
381.958	299.19
382.184	323.19
382.409	329.19
382.634	316.19
382.86	318.19
383.085	312.19
383.31	318.19
383.535	328.19
383.761	329.19
383.986	336.19
384.211	320.19
384.436	322.19
384.662	313.19
384.887	320.19
385.112	309.19
385.337	331.19
385.562	314.19
385.787	313.19
386.013	341.19
386.238	331.19
386.463	342.19
386.688	324.19
386.913	301.19
387.138	332.19
387.363	325.19
387.588	325.19
387.813	331.19
388.038	308.19
388.263	321.19
388.488	330.19
388.713	336.19
388.938	332.19
389.163	338.19
389.387	359.19
389.612	305.19
389.837	318.19
390.062	338.19
390.287	317.19
390.512	336.19
390.736	328.19
390.961	316.19
391.186	314.19
391.411	326.19
391.636	336.19
391.86	335.19
392.085	320.19
392.31	319.19
392.534	346.19
392.759	326.19
392.984	300.19
393.208	316.19
393.433	346.19
393.658	349.19
393.882	327.19
394.107	314.19
394.331	324.19
394.556	333.19
394.78	314.19
395.005	325.19
395.229	319.19
395.454	322.19
395.678	318.19
395.903	336.19
396.127	356.19
396.352	342.19
396.576	335.19
396.801	344.19
397.025	354.19
397.249	332.19
397.474	337.19
397.698	343.19
397.922	353.19
398.147	373.19
398.371	345.19
398.595	372.19
398.82	344.19
399.044	361.19
399.268	376.19
399.492	378.19
399.717	402.19
399.941	414.19
400.165	427.19
400.389	432.19
400.613	416.19
400.837	383.19
401.062	374.19
401.286	360.19
401.51	373.19
401.734	374.19
401.958	350.19
402.182	373.19
402.406	359.19
402.63	386.19
402.854	396.19
403.078	362.19
403.302	360.19
403.526	352.19
403.75	366.19
403.974	376.19
404.198	372.19
404.422	357.19
404.645	373.19
404.869	375.19
405.093	391.19
405.317	397.19
405.541	403.19
405.765	377.19
405.988	390.19
406.212	394.19
406.436	401.19
406.66	418.19
406.883	405.19
407.107	423.19
407.331	458.19
407.555	507.19
407.778	500.19
408.002	457.19
408.226	421.19
408.449	426.19
408.673	407.19
408.896	431.19
409.12	452.19
409.344	423.19
409.567	408.19
409.791	385.19
410.014	394.19
410.238	369.19
410.461	367.19
410.685	391.19
410.908	393.19
411.132	426.19
411.355	422.19
411.578	433.19
411.802	382.19
412.025	384.19
412.249	374.19
412.472	359.19
412.695	369.19
412.919	362.19
413.142	366.19
413.365	343.19
413.589	369.19
413.812	348.19
414.035	343.19
414.258	343.19
414.482	369.19
414.705	350.19
414.928	340.19
415.151	348.19
415.374	353.19
415.597	358.19
415.821	361.19
416.044	366.19
416.267	370.19
416.49	361.19
416.713	355.19
416.936	360.19
417.159	358.19
417.382	348.19
417.605	374.19
417.828	352.19
418.051	360.19
418.274	378.19
418.497	356.19
418.72	340.19
418.943	363.19
419.166	359.19
419.389	382.19
419.611	380.19
419.834	376.19
420.057	368.19
420.28	358.19
420.503	361.19
420.726	360.19
420.948	376.19
421.171	413.19
421.394	440.19
421.617	380.19
421.839	367.19
422.062	355.19
422.285	414.19
422.507	422.19
422.73	494.19
422.953	482.19
423.175	420.19
423.398	420.19
423.621	429.19
423.843	424.19
424.066	405.19
424.288	414.19
424.511	413.19
424.733	456.19
424.956	518.19
425.178	502.19
425.401	507.19
425.623	508.19
425.846	448.19
426.068	410.19
426.291	412.19
426.513	398.19
426.735	407.19
426.958	440.19
427.18	487.19
427.402	593.19
427.625	658.19
427.847	615.19
428.069	492.19
428.292	439.19
428.514	396.19
428.736	385.19
428.958	386.19
429.181	389.19
429.403	373.19
429.625	369.19
429.847	403.19
430.069	446.19
430.292	477.19
430.514	406.19
430.736	365.19
430.958	390.19
431.18	374.19
431.402	357.19
431.624	351.19
431.846	364.19
432.068	346.19
432.29	345.19
432.512	345.19
432.734	366.19
432.956	354.19
433.178	356.19
433.4	376.19
433.622	369.19
433.844	358.19
434.066	367.19
434.287	354.19
434.509	349.19
434.731	372.19
434.953	359.19
435.175	358.19
435.397	395.19
435.618	410.19
435.84	453.19
436.062	504.19
436.284	561.19
436.505	460.19
436.727	437.19
436.949	399.19
437.17	380.19
437.392	400.19
437.614	384.19
437.835	406.19
438.057	496.19
438.278	575.19
438.5	553.19
438.721	624.19
438.943	602.19
439.165	483.19
439.386	438.19
439.608	417.19
439.829	414.19
440.05	446.19
440.272	472.19
440.493	438.19
440.715	422.19
440.936	380.19
441.158	389.19
441.379	386.19
441.6	398.19
441.822	413.19
442.043	447.19
442.264	504.19
442.486	538.19
442.707	478.19
442.928	401.19
443.149	445.19
443.371	441.19
443.592	461.19
443.813	549.19
444.034	567.19
444.255	481.19
444.476	436.19
444.698	420.19
444.919	425.19
445.14	517.19
445.361	485.19
445.582	444.19
445.803	485.19
446.024	564.19
446.245	578.19
446.466	516.19
446.687	454.19
446.908	408.19
447.129	380.19
447.35	382.19
447.571	395.19
447.792	382.19
448.013	378.19
448.234	384.19
448.455	432.19
448.675	553.19
448.896	619.19
449.117	500.19
449.338	503.19
449.559	568.19
449.779	621.19
450	511.19
450.221	422.19
450.442	386.19
450.662	388.19
450.883	383.19
451.104	379.19
451.324	387.19
451.545	338.19
451.766	336.19
451.986	344.19
452.207	328.19
452.428	312.19
452.648	338.19
452.869	359.19
453.089	353.19
453.31	349.19
453.53	346.19
453.751	341.19
453.971	336.19
454.192	372.19
454.412	353.19
454.633	361.19
454.853	330.19
455.073	342.19
455.294	364.19
455.514	401.19
455.734	394.19
455.955	329.19
456.175	338.19
456.395	328.19
456.616	306.19
456.836	314.19
457.056	317.19
457.276	344.19
457.497	335.19
457.717	322.19
457.937	329.19
458.157	341.19
458.377	324.19
458.598	360.19
458.818	400.19
459.038	440.19
459.258	439.19
459.478	401.19
459.698	361.19
459.918	349.19
460.138	361.19
460.358	357.19
460.578	352.19
460.798	347.19
461.018	349.19
461.238	366.19
461.458	341.19
461.678	336.19
461.898	356.19
462.118	346.19
462.338	370.19
462.558	373.19
462.777	390.19
462.997	362.19
463.217	369.19
463.437	369.19
463.657	356.19
463.876	375.19
464.096	381.19
464.316	370.19
464.536	380.19
464.755	378.19
464.975	386.19
465.195	428.19
465.414	464.19
465.634	418.19
465.854	375.19
466.073	368.19
466.293	363.19
466.512	332.19
466.732	345.19
466.951	328.19
467.171	346.19
467.391	342.19
467.61	348.19
467.829	352.19
468.049	356.19
468.268	358.19
468.488	326.19
468.707	320.19
468.927	328.19
469.146	324.19
469.365	332.19
469.585	360.19
469.804	358.19
470.023	363.19
470.243	356.19
470.462	353.19
470.681	358.19
470.901	349.19
471.12	372.19
471.339	341.19
471.558	349.19
471.777	330.19
471.997	352.19
472.216	348.19
472.435	357.19
472.654	340.19
472.873	347.19
473.092	356.19
473.311	307.19
473.53	353.19
473.749	343.19
473.968	380.19
474.187	447.19
474.406	492.19
474.625	401.19
474.844	392.19
475.063	373.19
475.282	377.19
475.501	355.19
475.72	356.19
475.939	370.19
476.158	354.19
476.377	379.19
476.596	360.19
476.814	374.19
477.033	388.19
477.252	375.19
477.471	385.19
477.69	388.19
477.908	384.19
478.127	375.19
478.346	373.19
478.564	372.19
478.783	388.19
479.002	383.19
479.22	396.19
479.439	412.19
479.658	414.19
479.876	408.19
480.095	451.19
480.313	450.19
480.532	447.19
480.751	422.19
480.969	411.19
481.188	406.19
481.406	429.19
481.624	426.19
481.843	421.19
482.061	399.19
482.28	409.19
482.498	413.19
482.717	396.19
482.935	412.19
483.153	417.19
483.372	413.19
483.59	417.19
483.808	423.19
484.027	428.19
484.245	414.19
484.463	424.19
484.681	416.19
484.9	438.19
485.118	443.19
485.336	428.19
485.554	410.19
485.772	428.19
485.99	433.19
486.209	433.19
486.427	421.19
486.645	451.19
486.863	441.19
487.081	455.19
487.299	434.19
487.517	436.19
487.735	428.19
487.953	465.19
488.171	447.19
488.389	430.19
488.607	439.19
488.825	460.19
489.043	433.19
489.261	423.19
489.479	436.19
489.696	446.19
489.914	450.19
490.132	471.19
490.35	463.19
490.568	469.19
490.786	465.19
491.003	475.19
491.221	492.19
491.439	491.19
491.657	492.19
491.874	499.19
492.092	526.19
492.31	501.19
492.527	496.19
492.745	498.19
492.963	511.19
493.18	518.19
493.398	508.19
493.615	509.19
493.833	517.19
494.05	511.19
494.268	496.19
494.485	520.19
494.703	526.19
494.92	502.19
495.138	521.19
495.355	544.19
495.573	508.19
495.79	525.19
496.008	507.19
496.225	526.19
496.442	526.19
496.66	516.19
496.877	516.19
497.094	523.19
497.312	547.19
497.529	517.19
497.746	570.19
497.963	531.19
498.181	558.19
498.398	598.19
498.615	554.19
498.832	578.19
499.049	575.19
499.267	605.19
499.484	620.19
499.701	630.19
499.918	614.19
500.135	660.19
500.352	678.19
500.569	655.19
500.786	680.19
501.003	685.19
501.22	649.19
501.437	631.19
501.654	641.19
501.871	631.19
502.088	625.19
502.305	608.19
502.522	581.19
502.739	578.19
502.956	558.19
503.172	581.19
503.389	566.19
503.606	554.19
503.823	522.19
504.04	553.19
504.256	554.19
504.473	538.19
504.69	522.19
504.907	526.19
505.123	505.19
505.34	513.19
505.557	510.19
505.773	508.19
505.99	506.19
506.207	501.19
506.423	507.19
506.64	528.19
506.856	517.19
507.073	497.19
507.289	516.19
507.506	494.19
507.722	500.19
507.939	520.19
508.155	491.19
508.372	490.19
508.588	500.19
508.805	491.19
509.021	473.19
509.238	484.19
509.454	483.19
509.67	487.19
509.887	498.19
510.103	485.19
510.319	504.19
510.536	564.19
510.752	952.19
510.968	763.19
511.184	512.19
511.401	492.19
511.617	467.19
511.833	471.19
512.049	456.19
512.265	452.19
512.481	453.19
512.698	452.19
512.914	443.19
513.13	463.19
513.346	455.19
513.562	447.19
513.778	472.19
513.994	463.19
514.21	465.19
514.426	494.19
514.642	524.19
514.858	542.19
515.074	579.19
515.29	669.19
515.506	1024.19
515.721	809.19
515.937	564.19
516.153	503.19
516.369	509.19
516.585	475.19
516.801	467.19
517.016	470.19
517.232	463.19
517.448	454.19
517.664	472.19
517.879	480.19
518.095	481.19
518.311	483.19
518.527	463.19
518.742	484.19
518.958	465.19
519.173	457.19
519.389	450.19
519.605	450.19
519.82	470.19
520.036	498.19
520.251	496.19
520.467	492.19
520.682	507.19
520.898	513.19
521.113	522.19
521.329	566.19
521.544	633.19
521.76	768.19
521.975	1319.19
522.19	1271.19
522.406	718.19
522.621	549.19
522.836	478.19
523.052	460.19
523.267	434.19
523.482	438.19
523.698	445.19
523.913	432.19
524.128	420.19
524.343	437.19
524.559	418.19
524.774	434.19
524.989	413.19
525.204	398.19
525.419	397.19
525.634	406.19
525.849	407.19
526.064	396.19
526.28	401.19
526.495	382.19
526.71	416.19
526.925	404.19
527.14	400.19
527.355	377.19
527.57	380.19
527.785	406.19
527.999	380.19
528.214	376.19
528.429	376.19
528.644	379.19
528.859	382.19
529.074	380.19
529.289	404.19
529.503	463.19
529.718	454.19
529.933	411.19
530.148	376.19
530.363	373.19
530.577	365.19
530.792	355.19
531.007	384.19
531.221	373.19
531.436	382.19
531.651	369.19
531.865	369.19
532.08	372.19
532.295	376.19
532.509	384.19
532.724	360.19
532.938	359.19
533.153	366.19
533.367	365.19
533.582	360.19
533.796	352.19
534.011	374.19
534.225	367.19
534.44	348.19
534.654	363.19
534.868	364.19
535.083	355.19
535.297	368.19
535.511	361.19
535.726	382.19
535.94	374.19
536.154	369.19
536.369	359.19
536.583	373.19
536.797	348.19
537.011	352.19
537.225	348.19
537.44	349.19
537.654	346.19
537.868	352.19
538.082	349.19
538.296	334.19
538.51	353.19
538.724	370.19
538.938	355.19
539.153	367.19
539.367	379.19
539.581	367.19
539.795	353.19
540.009	348.19
540.222	371.19
540.436	362.19
540.65	344.19
540.864	339.19
541.078	359.19
541.292	352.19
541.506	358.19
541.72	353.19
541.934	344.19
542.147	349.19
542.361	353.19
542.575	364.19
542.789	344.19
543.002	360.19
543.216	369.19
543.43	346.19
543.644	378.19
543.857	329.19
544.071	353.19
544.285	350.19
544.498	341.19
544.712	334.19
544.925	358.19
545.139	345.19
545.352	356.19
545.566	344.19
545.779	349.19
545.993	343.19
546.206	348.19
546.42	349.19
546.633	353.19
546.847	333.19
547.06	342.19
547.274	333.19
547.487	334.19
547.7	343.19
547.914	331.19
548.127	337.19
548.34	343.19
548.554	327.19
548.767	333.19
548.98	348.19
549.193	342.19
549.407	324.19
549.62	343.19
549.833	327.19
550.046	343.19
550.259	354.19
550.473	338.19
550.686	333.19
550.899	309.19
551.112	326.19
551.325	326.19
551.538	339.19
551.751	320.19
551.964	316.19
552.177	328.19
552.39	325.19
552.603	327.19
552.816	333.19
553.029	343.19
553.242	338.19
553.455	326.19
553.667	358.19
553.88	359.19
554.093	335.19
554.306	348.19
554.519	332.19
554.732	332.19
554.944	322.19
555.157	332.19
555.37	328.19
555.583	316.19
555.795	325.19
556.008	307.19
556.221	301.19
556.433	312.19
556.646	305.19
556.859	321.19
557.071	299.19
557.284	293.19
557.496	304.19
557.709	298.19
557.921	300.19
558.134	308.19
558.346	307.19
558.559	307.19
558.771	314.19
558.984	296.19
559.196	304.19
559.409	288.19
559.621	315.19
559.833	298.19
560.046	298.19
560.258	283.19
560.47	320.19
560.683	314.19
560.895	312.19
561.107	317.19
561.32	295.19
561.532	308.19
561.744	297.19
561.956	305.19
562.168	284.19
562.381	310.19
562.593	307.19
562.805	296.19
563.017	313.19
563.229	301.19
563.441	294.19
563.653	327.19
563.865	327.19
564.077	305.19
564.289	320.19
564.501	311.19
564.713	312.19
564.925	313.19
565.137	308.19
565.349	330.19
565.561	318.19
565.773	324.19
565.985	324.19
566.197	334.19
566.408	327.19
566.62	329.19
566.832	357.19
567.044	338.19
567.255	348.19
567.467	340.19
567.679	349.19
567.891	329.19
568.102	341.19
568.314	341.19
568.526	339.19
568.737	314.19
568.949	331.19
569.161	325.19
569.372	326.19
569.584	308.19
569.795	306.19
570.007	298.19
570.218	334.19
570.43	318.19
570.641	301.19
570.853	304.19
571.064	290.19
571.276	275.19
571.487	283.19
571.698	309.19
571.91	294.19
572.121	296.19
572.333	285.19
572.544	285.19
572.755	278.19
572.966	287.19
573.178	281.19
573.389	281.19
573.6	264.19
573.811	270.19
574.023	270.19
574.234	255.19
574.445	272.19
574.656	264.19
574.867	264.19
575.078	260.19
575.289	272.19
575.501	281.19
575.712	263.19
575.923	255.19
576.134	252.19
576.345	268.19
576.556	261.19
576.767	252.19
576.978	259.19
577.188	266.19
577.399	255.19
577.61	250.19
577.821	280.19
578.032	252.19
578.243	292.19
578.454	469.19
578.665	360.19
578.875	277.19
579.086	271.19
579.297	249.19
579.508	264.19
579.718	262.19
579.929	244.19
580.14	238.19
580.35	253.19
580.561	257.19
580.772	240.19
580.982	240.19
581.193	245.19
581.403	247.19
581.614	255.19
581.825	244.19
582.035	242.19
582.246	252.19
582.456	247.19
582.667	264.19
582.877	237.19
583.087	232.19
583.298	234.19
583.508	249.19
583.719	232.19
583.929	237.19
584.139	232.19
584.35	250.19
584.56	259.19
584.77	238.19
584.981	233.19
585.191	242.19
585.401	250.19
585.611	252.19
585.821	238.19
586.032	253.19
586.242	242.19
586.452	241.19
586.662	249.19
586.872	232.19
587.082	225.19
587.292	238.19
587.502	237.19
587.713	244.19
587.923	244.19
588.133	243.19
588.343	240.19
588.553	245.19
588.762	252.19
588.972	256.19
589.182	337.19
589.392	332.19
589.602	274.19
589.812	328.19
590.022	296.19
590.232	249.19
590.441	253.19
590.651	239.19
590.861	249.19
591.071	241.19
591.281	224.19
591.49	239.19
591.7	252.19
591.91	231.19
592.119	214.19
592.329	250.19
592.539	242.19
592.748	246.19
592.958	239.19
593.167	239.19
593.377	249.19
593.587	241.19
593.796	241.19
594.006	240.19
594.215	242.19
594.424	219.19
594.634	231.19
594.843	247.19
595.053	233.19
595.262	228.19
595.472	227.19
595.681	231.19
595.89	236.19
596.1	239.19
596.309	234.19
596.518	231.19
596.727	225.19
596.937	216.19
597.146	207.19
597.355	225.19
597.564	216.19
597.774	209.19
597.983	228.19
598.192	229.19
598.401	234.19
598.61	204.19
598.819	211.19
599.028	228.19
599.237	221.19
599.446	222.19
599.655	218.19
599.864	228.19
600.073	221.19
600.282	201.19
600.491	197.19
600.7	214.19
600.909	215.19
601.118	222.19
601.327	225.19
601.536	208.19
601.745	210.19
601.953	214.19
602.162	232.19
602.371	210.19
602.58	211.19
602.789	218.19
602.997	207.19
603.206	210.19
603.415	202.19
603.623	206.19
603.832	212.19
604.041	203.19
604.249	215.19
604.458	206.19
604.666	191.19
604.875	203.19
605.084	189.19
605.292	193.19
605.501	192.19
605.709	203.19
605.918	208.19
606.126	201.19
606.334	196.19
606.543	197.19
606.751	198.19
606.96	210.19
607.168	204.19
607.376	187.19
607.585	200.19
607.793	190.19
608.001	205.19
608.21	191.19
608.418	194.19
608.626	205.19
608.834	204.19
609.043	208.19
609.251	203.19
609.459	213.19
609.667	204.19
609.875	193.19
610.083	209.19
610.291	198.19
610.499	199.19
610.707	205.19
610.916	194.19
611.124	195.19
611.332	196.19
611.54	209.19
611.748	196.19
611.955	194.19
612.163	198.19
612.371	185.19
612.579	200.19
612.787	211.19
612.995	213.19
613.203	200.19
613.411	196.19
613.618	194.19
613.826	220.19
614.034	198.19
614.242	190.19
614.449	205.19
614.657	189.19
614.865	216.19
615.072	193.19
615.28	205.19
615.488	201.19
615.695	176.19
615.903	176.19
616.111	197.19
616.318	213.19
616.526	190.19
616.733	198.19
616.941	210.19
617.148	193.19
617.356	201.19
617.563	193.19
617.771	202.19
617.978	212.19
618.185	193.19
618.393	191.19
618.6	208.19
618.807	181.19
619.015	209.19
619.222	183.19
619.429	194.19
619.637	200.19
619.844	188.19
620.051	193.19
620.258	184.19
620.466	190.19
620.673	174.19
620.88	188.19
621.087	198.19
621.294	185.19
621.501	176.19
621.708	195.19
621.915	166.19
622.122	187.19
622.329	198.19
622.536	184.19
622.743	174.19
622.95	189.19
623.157	177.19
623.364	188.19
623.571	190.19
623.778	167.19
623.985	172.19
624.192	185.19
624.399	190.19
624.606	192.19
624.812	177.19
625.019	194.19
625.226	170.19
625.433	173.19
625.639	181.19
625.846	188.19
626.053	174.19
626.259	199.19
626.466	186.19
626.673	158.19
626.879	167.19
627.086	188.19
627.293	186.19
627.499	177.19
627.706	180.19
627.912	192.19
628.119	169.19
628.325	164.19
628.532	167.19
628.738	166.19
628.945	172.19
629.151	170.19
629.357	187.19
629.564	167.19
629.77	167.19
629.976	177.19
630.183	176.19
630.389	168.19
630.595	160.19
630.802	164.19
631.008	173.19
631.214	145.19
631.42	166.19
631.627	165.19
631.833	161.19
632.039	160.19
632.245	154.19
632.451	162.19
632.657	166.19
632.863	184.19
633.069	166.19
633.275	165.19
633.481	167.19
633.688	168.19
633.893	168.19
634.099	164.19
634.305	166.19
634.511	157.19
634.717	156.19
634.923	161.19
635.129	171.19
635.335	170.19
635.541	164.19
635.747	158.19
635.952	167.19
636.158	156.19
636.364	161.19
636.57	164.19
636.775	172.19
636.981	166.19
637.187	159.19
637.392	164.19
637.598	152.19
637.804	161.19
638.009	164.19
638.215	168.19
638.421	141.19
638.626	148.19
638.832	151.19
639.037	162.19
639.243	150.19
639.448	143.19
639.654	161.19
639.859	153.19
640.065	145.19
640.27	161.19
640.475	153.19
640.681	147.19
640.886	159.19
641.091	159.19
641.297	135.19
641.502	148.19
641.707	158.19
641.913	149.19
642.118	162.19
642.323	143.19
642.528	156.19
642.733	148.19
642.939	151.19
643.144	146.19
643.349	146.19
643.554	150.19
643.759	142.19
643.964	145.19
644.169	164.19
644.374	158.19
644.579	140.19
644.784	143.19
644.989	141.19
645.194	140.19
645.399	138.19
645.604	150.19
645.809	144.19
646.014	147.19
646.219	154.19
646.423	152.19
646.628	153.19
646.833	146.19
647.038	159.19
647.243	161.19
647.447	158.19
647.652	150.19
647.857	146.19
648.062	144.19
648.266	145.19
648.471	164.19
648.676	148.19
648.88	153.19
649.085	126.19
649.289	154.19
649.494	162.19
649.698	154.19
649.903	173.19
650.107	134.19
650.312	147.19
650.516	153.19
650.721	139.19
650.925	145.19
651.13	134.19
651.334	140.19
651.539	148.19
651.743	128.19
651.947	136.19
652.152	133.19
652.356	137.19
652.56	129.19
652.764	124.19
652.969	130.19
653.173	124.19
653.377	142.19
653.581	125.19
653.785	135.19
653.99	134.19
654.194	125.19
654.398	128.19
654.602	128.19
654.806	139.19
655.01	133.19
655.214	137.19
655.418	126.19
655.622	125.19
655.826	128.19
656.03	125.19
656.234	124.19
656.438	128.19
656.642	133.19
656.846	148.19
657.049	117.19
657.253	122.19
657.457	126.19
657.661	128.19
657.865	116.19
658.068	114.19
658.272	100.19
658.476	103.19
658.68	104.19
658.883	100.19
659.087	89.19
659.291	92.19
659.494	103.19
659.698	103.19
659.901	101.19
660.105	103.19
660.309	101.19
660.512	98.19
660.716	82.19
660.919	106.19
661.123	117.19
661.326	105.19
661.53	69.19
661.733	77.19
661.936	85.19
662.14	90.19
662.343	89.19
662.546	93.19
662.75	96.19
662.953	97.19
663.156	95.19
663.36	88.19
663.563	92.19
663.766	91.19
663.969	95.19
664.173	81.19
664.376	100.19
664.579	90.19
664.782	80.19
664.985	94.19
665.188	87.19
665.391	76.19
665.594	88.19
665.797	91.19
666	91.19
666.203	82.19
666.406	79.19
666.609	86.19
666.812	92.19
667.015	95.19
667.218	89.19
667.421	100.19
667.624	90.19
667.827	94.19
668.03	80.19
668.232	91.19
668.435	100.19
668.638	85.19
668.841	94.19
669.043	77.19
669.246	83.19
669.449	83.19
669.651	96.19
669.854	89.19
670.057	92.19
670.259	91.19
670.462	84.19
670.665	105.19
670.867	73.19
671.07	96.19
671.272	86.19
671.475	98.19
671.677	105.19
671.88	88.19
672.082	90.19
672.284	68.19
672.487	82.19
672.689	89.19
672.892	86.19
