Data from 1987.PennyLincolnUp.Lamp.En5.5.200Scan.071819.P2_HRD10591_17-14-09-973.txt Node
Date: Thu Jul 18 17:14:09 EDT 2019
User: cochatt
Spectrometer: HR+D1059
Trigger mode: 1
Integration Time (sec): 1.000000E-1
Scans to average: 1
Electric dark correction enabled: true
Nonlinearity correction enabled: false
Boxcar width: 0
XAxis mode: Wavelengths
Number of Pixels in Spectrum: 2048
>>>>>Begin Spectral Data<<<<<
223.165	-9.69
223.4	-9.69
223.635	-9.69
223.869	-10.69
224.104	-21.69
224.338	-0.69
224.573	-18.69
224.808	-8.69
225.042	-8.69
225.277	-1.69
225.511	-4.69
225.746	-3.69
225.98	-9.69
226.215	4.31
226.449	16.31
226.683	35.31
226.918	16.31
227.152	26.31
227.387	46.31
227.621	43.31
227.856	39.31
228.09	45.31
228.324	53.31
228.559	49.31
228.793	68.31
229.027	94.31
229.262	113.31
229.496	107.31
229.73	139.31
229.964	143.31
230.199	128.31
230.433	131.31
230.667	129.31
230.901	107.31
231.136	120.31
231.37	106.31
231.604	108.31
231.838	118.31
232.072	102.31
232.306	101.31
232.541	110.31
232.775	105.31
233.009	101.31
233.243	106.31
233.477	105.31
233.711	109.31
233.945	116.31
234.179	101.31
234.413	111.31
234.647	120.31
234.881	116.31
235.115	99.31
235.349	115.31
235.583	119.31
235.817	118.31
236.051	116.31
236.285	119.31
236.519	132.31
236.753	131.31
236.987	142.31
237.221	183.31
237.455	211.31
237.689	180.31
237.922	143.31
238.156	133.31
238.39	134.31
238.624	103.31
238.858	123.31
239.091	129.31
239.325	101.31
239.559	107.31
239.793	125.31
240.027	133.31
240.26	147.31
240.494	151.31
240.728	144.31
240.961	152.31
241.195	111.31
241.429	112.31
241.662	141.31
241.896	129.31
242.13	116.31
242.363	131.31
242.597	119.31
242.83	120.31
243.064	127.31
243.298	129.31
243.531	134.31
243.765	126.31
243.998	126.31
244.232	137.31
244.465	141.31
244.699	140.31
244.932	129.31
245.166	141.31
245.399	129.31
245.633	136.31
245.866	133.31
246.099	134.31
246.333	133.31
246.566	137.31
246.8	131.31
247.033	140.31
247.266	137.31
247.5	151.31
247.733	158.31
247.966	168.31
248.2	157.31
248.433	164.31
248.666	158.31
248.899	170.31
249.133	199.31
249.366	197.31
249.599	181.31
249.832	174.31
250.066	164.31
250.299	171.31
250.532	161.31
250.765	185.31
250.998	192.31
251.231	197.31
251.465	195.31
251.698	189.31
251.931	195.31
252.164	181.31
252.397	191.31
252.63	192.31
252.863	197.31
253.096	187.31
253.329	200.31
253.562	218.31
253.795	193.31
254.028	200.31
254.261	193.31
254.494	191.31
254.727	227.31
254.96	256.31
255.193	261.31
255.426	224.31
255.659	215.31
255.892	215.31
256.124	205.31
256.357	191.31
256.59	195.31
256.823	187.31
257.056	181.31
257.289	179.31
257.521	186.31
257.754	172.31
257.987	189.31
258.22	184.31
258.452	174.31
258.685	181.31
258.918	181.31
259.151	186.31
259.383	193.31
259.616	201.31
259.849	196.31
260.081	212.31
260.314	207.31
260.547	236.31
260.779	225.31
261.012	233.31
261.244	183.31
261.477	204.31
261.71	195.31
261.942	189.31
262.175	206.31
262.407	217.31
262.64	181.31
262.872	193.31
263.105	172.31
263.337	177.31
263.57	182.31
263.802	178.31
264.035	188.31
264.267	166.31
264.499	183.31
264.732	165.31
264.964	181.31
265.197	182.31
265.429	174.31
265.661	170.31
265.894	184.31
266.126	171.31
266.358	188.31
266.591	169.31
266.823	181.31
267.055	198.31
267.287	175.31
267.52	186.31
267.752	183.31
267.984	183.31
268.216	198.31
268.448	192.31
268.681	219.31
268.913	205.31
269.145	204.31
269.377	214.31
269.609	234.31
269.841	230.31
270.073	223.31
270.306	249.31
270.538	263.31
270.77	263.31
271.002	252.31
271.234	265.31
271.466	265.31
271.698	261.31
271.93	282.31
272.162	275.31
272.394	286.31
272.626	256.31
272.858	261.31
273.09	243.31
273.322	249.31
273.553	233.31
273.785	236.31
274.017	213.31
274.249	228.31
274.481	227.31
274.713	206.31
274.945	209.31
275.176	231.31
275.408	221.31
275.64	214.31
275.872	203.31
276.104	224.31
276.335	236.31
276.567	220.31
276.799	228.31
277.031	261.31
277.262	263.31
277.494	248.31
277.726	249.31
277.957	243.31
278.189	228.31
278.421	202.31
278.652	229.31
278.884	205.31
279.115	198.31
279.347	215.31
279.579	204.31
279.81	222.31
280.042	195.31
280.273	212.31
280.505	209.31
280.736	213.31
280.968	211.31
281.199	196.31
281.431	218.31
281.662	204.31
281.894	191.31
282.125	222.31
282.356	228.31
282.588	246.31
282.819	256.31
283.051	223.31
283.282	217.31
283.513	214.31
283.745	198.31
283.976	214.31
284.207	215.31
284.439	214.31
284.67	213.31
284.901	212.31
285.132	219.31
285.364	213.31
285.595	231.31
285.826	215.31
286.057	231.31
286.288	205.31
286.52	200.31
286.751	211.31
286.982	222.31
287.213	220.31
287.444	206.31
287.675	216.31
287.906	212.31
288.138	238.31
288.369	234.31
288.6	235.31
288.831	232.31
289.062	225.31
289.293	236.31
289.524	234.31
289.755	210.31
289.986	229.31
290.217	227.31
290.448	214.31
290.679	212.31
290.91	218.31
291.141	207.31
291.371	189.31
291.602	201.31
291.833	211.31
292.064	226.31
292.295	218.31
292.526	211.31
292.757	216.31
292.987	215.31
293.218	222.31
293.449	212.31
293.68	218.31
293.91	227.31
294.141	211.31
294.372	230.31
294.603	211.31
294.833	230.31
295.064	213.31
295.295	215.31
295.525	236.31
295.756	217.31
295.987	246.31
296.217	268.31
296.448	263.31
296.679	238.31
296.909	232.31
297.14	210.31
297.37	219.31
297.601	222.31
297.831	214.31
298.062	229.31
298.292	223.31
298.523	215.31
298.753	218.31
298.984	224.31
299.214	221.31
299.445	228.31
299.675	215.31
299.905	241.31
300.136	227.31
300.366	226.31
300.597	237.31
300.827	246.31
301.057	238.31
301.288	241.31
301.518	234.31
301.748	235.31
301.979	250.31
302.209	237.31
302.439	257.31
302.669	242.31
302.9	232.31
303.13	222.31
303.36	255.31
303.59	247.31
303.82	255.31
304.051	261.31
304.281	238.31
304.511	234.31
304.741	245.31
304.971	239.31
305.201	229.31
305.431	269.31
305.661	238.31
305.891	226.31
306.121	243.31
306.352	261.31
306.582	261.31
306.812	258.31
307.042	265.31
307.272	249.31
307.502	261.31
307.731	247.31
307.961	248.31
308.191	255.31
308.421	244.31
308.651	254.31
308.881	264.31
309.111	255.31
309.341	274.31
309.571	280.31
309.8	290.31
310.03	290.31
310.26	301.31
310.49	279.31
310.72	300.31
310.949	318.31
311.179	334.31
311.409	288.31
311.639	293.31
311.868	303.31
312.098	296.31
312.328	303.31
312.557	325.31
312.787	330.31
313.017	324.31
313.246	298.31
313.476	293.31
313.706	297.31
313.935	289.31
314.165	323.31
314.394	307.31
314.624	343.31
314.853	305.31
315.083	312.31
315.312	290.31
315.542	282.31
315.771	290.31
316.001	285.31
316.23	293.31
316.46	288.31
316.689	283.31
316.919	275.31
317.148	311.31
317.377	312.31
317.607	289.31
317.836	306.31
318.065	284.31
318.295	295.31
318.524	285.31
318.753	288.31
318.983	293.31
319.212	297.31
319.441	295.31
319.67	310.31
319.9	286.31
320.129	295.31
320.358	306.31
320.587	302.31
320.816	317.31
321.046	312.31
321.275	314.31
321.504	316.31
321.733	323.31
321.962	317.31
322.191	334.31
322.42	360.31
322.649	345.31
322.878	381.31
323.108	403.31
323.337	411.31
323.566	467.31
323.795	490.31
324.024	536.31
324.253	657.31
324.482	934.31
324.71	1467.31
324.939	2001.31
325.168	1773.31
325.397	972.31
325.626	630.31
325.855	506.31
326.084	455.31
326.313	463.31
326.542	447.31
326.77	496.31
326.999	551.31
327.228	820.31
327.457	1244.31
327.686	1531.31
327.914	1081.31
328.143	706.31
328.372	587.31
328.6	539.31
328.829	495.31
329.058	507.31
329.287	513.31
329.515	469.31
329.744	441.31
329.972	406.31
330.201	428.31
330.43	446.31
330.658	480.31
330.887	524.31
331.115	504.31
331.344	435.31
331.572	421.31
331.801	404.31
332.03	404.31
332.258	370.31
332.486	345.31
332.715	328.31
332.943	323.31
333.172	338.31
333.4	326.31
333.629	359.31
333.857	349.31
334.085	332.31
334.314	342.31
334.542	335.31
334.771	356.31
334.999	358.31
335.227	360.31
335.455	323.31
335.684	346.31
335.912	327.31
336.14	341.31
336.369	305.31
336.597	329.31
336.825	336.31
337.053	332.31
337.281	338.31
337.51	337.31
337.738	329.31
337.966	330.31
338.194	337.31
338.422	357.31
338.65	345.31
338.878	308.31
339.106	319.31
339.334	333.31
339.562	338.31
339.79	320.31
340.018	335.31
340.246	326.31
340.474	321.31
340.702	356.31
340.93	317.31
341.158	320.31
341.386	330.31
341.614	347.31
341.842	330.31
342.07	329.31
342.298	321.31
342.526	332.31
342.754	305.31
342.981	309.31
343.209	304.31
343.437	299.31
343.665	334.31
343.893	325.31
344.12	323.31
344.348	311.31
344.576	309.31
344.804	346.31
345.031	329.31
345.259	357.31
345.487	350.31
345.714	329.31
345.942	339.31
346.17	323.31
346.397	312.31
346.625	311.31
346.853	322.31
347.08	333.31
347.308	332.31
347.535	334.31
347.763	361.31
347.99	359.31
348.218	342.31
348.445	346.31
348.673	342.31
348.9	337.31
349.128	317.31
349.355	319.31
349.583	322.31
349.81	340.31
350.037	318.31
350.265	315.31
350.492	331.31
350.72	301.31
350.947	323.31
351.174	342.31
351.402	342.31
351.629	331.31
351.856	347.31
352.083	335.31
352.311	352.31
352.538	359.31
352.765	348.31
352.992	354.31
353.22	337.31
353.447	337.31
353.674	301.31
353.901	298.31
354.128	319.31
354.355	301.31
354.583	322.31
354.81	269.31
355.037	309.31
355.264	301.31
355.491	291.31
355.718	291.31
355.945	306.31
356.172	296.31
356.399	292.31
356.626	290.31
356.853	282.31
357.08	287.31
357.307	302.31
357.534	277.31
357.761	297.31
357.988	299.31
358.215	301.31
358.441	311.31
358.668	298.31
358.895	301.31
359.122	307.31
359.349	327.31
359.576	337.31
359.802	370.31
360.029	403.31
360.256	388.31
360.483	371.31
360.709	344.31
360.936	345.31
361.163	333.31
361.39	356.31
361.616	352.31
361.843	342.31
362.07	320.31
362.296	338.31
362.523	316.31
362.749	339.31
362.976	309.31
363.203	317.31
363.429	321.31
363.656	299.31
363.882	331.31
364.109	327.31
364.335	313.31
364.562	303.31
364.788	315.31
365.015	297.31
365.241	301.31
365.468	311.31
365.694	316.31
365.92	321.31
366.147	325.31
366.373	297.31
366.599	314.31
366.826	325.31
367.052	300.31
367.278	292.31
367.505	307.31
367.731	306.31
367.957	301.31
368.184	315.31
368.41	318.31
368.636	339.31
368.862	341.31
369.089	336.31
369.315	296.31
369.541	310.31
369.767	309.31
369.993	313.31
370.219	319.31
370.445	319.31
370.672	318.31
370.898	297.31
371.124	312.31
371.35	292.31
371.576	294.31
371.802	302.31
372.028	310.31
372.254	295.31
372.48	294.31
372.706	286.31
372.932	304.31
373.158	292.31
373.384	316.31
373.61	327.31
373.835	307.31
374.061	304.31
374.287	308.31
374.513	309.31
374.739	325.31
374.965	314.31
375.191	324.31
375.416	318.31
375.642	300.31
375.868	302.31
376.094	310.31
376.319	299.31
376.545	310.31
376.771	309.31
376.997	305.31
377.222	296.31
377.448	303.31
377.674	317.31
377.899	328.31
378.125	317.31
378.35	291.31
378.576	304.31
378.802	302.31
379.027	315.31
379.253	283.31
379.478	308.31
379.704	303.31
379.929	317.31
380.155	293.31
380.38	296.31
380.606	315.31
380.831	314.31
381.057	309.31
381.282	297.31
381.507	317.31
381.733	322.31
381.958	307.31
382.184	303.31
382.409	315.31
382.634	312.31
382.86	307.31
383.085	325.31
383.31	328.31
383.535	313.31
383.761	330.31
383.986	335.31
384.211	333.31
384.436	315.31
384.662	317.31
384.887	308.31
385.112	311.31
385.337	317.31
385.562	318.31
385.787	314.31
386.013	327.31
386.238	302.31
386.463	345.31
386.688	323.31
386.913	302.31
387.138	314.31
387.363	313.31
387.588	338.31
387.813	330.31
388.038	332.31
388.263	312.31
388.488	331.31
388.713	310.31
388.938	331.31
389.163	339.31
389.387	354.31
389.612	345.31
389.837	318.31
390.062	319.31
390.287	323.31
390.512	338.31
390.736	319.31
390.961	323.31
391.186	311.31
391.411	328.31
391.636	309.31
391.86	334.31
392.085	341.31
392.31	347.31
392.534	341.31
392.759	335.31
392.984	337.31
393.208	348.31
393.433	334.31
393.658	354.31
393.882	336.31
394.107	348.31
394.331	341.31
394.556	332.31
394.78	321.31
395.005	331.31
395.229	328.31
395.454	330.31
395.678	346.31
395.903	329.31
396.127	346.31
396.352	382.31
396.576	349.31
396.801	358.31
397.025	372.31
397.249	350.31
397.474	347.31
397.698	352.31
397.922	357.31
398.147	362.31
398.371	367.31
398.595	372.31
398.82	347.31
399.044	375.31
399.268	369.31
399.492	379.31
399.717	406.31
399.941	432.31
400.165	427.31
400.389	441.31
400.613	420.31
400.837	389.31
401.062	392.31
401.286	373.31
401.51	377.31
401.734	353.31
401.958	360.31
402.182	380.31
402.406	399.31
402.63	387.31
402.854	365.31
403.078	380.31
403.302	385.31
403.526	388.31
403.75	366.31
403.974	366.31
404.198	373.31
404.422	387.31
404.645	390.31
404.869	377.31
405.093	377.31
405.317	430.31
405.541	441.31
405.765	409.31
405.988	400.31
406.212	417.31
406.436	443.31
406.66	485.31
406.883	457.31
407.107	433.31
407.331	476.31
407.555	538.31
407.778	540.31
408.002	491.31
408.226	459.31
408.449	442.31
408.673	447.31
408.896	450.31
409.12	477.31
409.344	473.31
409.567	415.31
409.791	409.31
410.014	414.31
410.238	388.31
410.461	382.31
410.685	398.31
410.908	413.31
411.132	448.31
411.355	444.31
411.578	450.31
411.802	403.31
412.025	374.31
412.249	396.31
412.472	407.31
412.695	404.31
412.919	405.31
413.142	359.31
413.365	372.31
413.589	366.31
413.812	372.31
414.035	377.31
414.258	370.31
414.482	366.31
414.705	364.31
414.928	367.31
415.151	364.31
415.374	377.31
415.597	366.31
415.821	353.31
416.044	367.31
416.267	378.31
416.49	355.31
416.713	370.31
416.936	383.31
417.159	387.31
417.382	415.31
417.605	389.31
417.828	388.31
418.051	399.31
418.274	383.31
418.497	378.31
418.72	373.31
418.943	380.31
419.166	385.31
419.389	409.31
419.611	403.31
419.834	387.31
420.057	412.31
420.28	417.31
420.503	404.31
420.726	394.31
420.948	432.31
421.171	451.31
421.394	472.31
421.617	435.31
421.839	414.31
422.062	407.31
422.285	418.31
422.507	495.31
422.73	523.31
422.953	523.31
423.175	436.31
423.398	421.31
423.621	421.31
423.843	450.31
424.066	454.31
424.288	444.31
424.511	468.31
424.733	518.31
424.956	586.31
425.178	585.31
425.401	590.31
425.623	573.31
425.846	502.31
426.068	469.31
426.291	475.31
426.513	477.31
426.735	475.31
426.958	513.31
427.18	571.31
427.402	695.31
427.625	790.31
427.847	691.31
428.069	564.31
428.292	502.31
428.514	458.31
428.736	458.31
428.958	449.31
429.181	416.31
429.403	449.31
429.625	437.31
429.847	489.31
430.069	531.31
430.292	539.31
430.514	462.31
430.736	427.31
430.958	433.31
431.18	400.31
431.402	407.31
431.624	403.31
431.846	389.31
432.068	393.31
432.29	400.31
432.512	382.31
432.734	408.31
432.956	407.31
433.178	385.31
433.4	410.31
433.622	399.31
433.844	387.31
434.066	370.31
434.287	398.31
434.509	400.31
434.731	403.31
434.953	404.31
435.175	414.31
435.397	441.31
435.618	457.31
435.84	516.31
436.062	581.31
436.284	661.31
436.505	527.31
436.727	487.31
436.949	441.31
437.17	436.31
437.392	435.31
437.614	449.31
437.835	500.31
438.057	585.31
438.278	670.31
438.5	663.31
438.721	731.31
438.943	687.31
439.165	580.31
439.386	488.31
439.608	497.31
439.829	481.31
440.05	509.31
440.272	527.31
440.493	520.31
440.715	457.31
440.936	470.31
441.158	408.31
441.379	433.31
441.6	446.31
441.822	475.31
442.043	509.31
442.264	572.31
442.486	613.31
442.707	547.31
442.928	494.31
443.149	503.31
443.371	505.31
443.592	551.31
443.813	609.31
444.034	655.31
444.255	522.31
444.476	481.31
444.698	458.31
444.919	458.31
445.14	541.31
445.361	522.31
445.582	491.31
445.803	551.31
446.024	642.31
446.245	664.31
446.466	588.31
446.687	534.31
446.908	466.31
447.129	453.31
447.35	450.31
447.571	449.31
447.792	439.31
448.013	461.31
448.234	466.31
448.455	514.31
448.675	596.31
448.896	674.31
449.117	600.31
449.338	585.31
449.559	658.31
449.779	722.31
450	621.31
450.221	523.31
450.442	482.31
450.662	445.31
450.883	447.31
451.104	462.31
451.324	453.31
451.545	425.31
451.766	407.31
451.986	383.31
452.207	401.31
452.428	389.31
452.648	381.31
452.869	394.31
453.089	406.31
453.31	411.31
453.53	405.31
453.751	393.31
453.971	387.31
454.192	421.31
454.412	408.31
454.633	399.31
454.853	381.31
455.073	382.31
455.294	400.31
455.514	467.31
455.734	470.31
455.955	391.31
456.175	385.31
456.395	359.31
456.616	370.31
456.836	377.31
457.056	364.31
457.276	341.31
457.497	361.31
457.717	350.31
457.937	353.31
458.157	379.31
458.377	379.31
458.598	377.31
458.818	468.31
459.038	551.31
459.258	563.31
459.478	470.31
459.698	401.31
459.918	405.31
460.138	406.31
460.358	388.31
460.578	379.31
460.798	375.31
461.018	402.31
461.238	399.31
461.458	376.31
461.678	385.31
461.898	374.31
462.118	378.31
462.338	381.31
462.558	379.31
462.777	396.31
462.997	395.31
463.217	399.31
463.437	403.31
463.657	389.31
463.876	390.31
464.096	389.31
464.316	399.31
464.536	388.31
464.755	415.31
464.975	422.31
465.195	479.31
465.414	578.31
465.634	501.31
465.854	437.31
466.073	412.31
466.293	414.31
466.512	385.31
466.732	366.31
466.951	381.31
467.171	387.31
467.391	402.31
467.61	382.31
467.829	400.31
468.049	383.31
468.268	390.31
468.488	402.31
468.707	355.31
468.927	365.31
469.146	343.31
469.365	378.31
469.585	387.31
469.804	382.31
470.023	406.31
470.243	380.31
470.462	406.31
470.681	433.31
470.901	424.31
471.12	387.31
471.339	393.31
471.558	385.31
471.777	390.31
471.997	383.31
472.216	376.31
472.435	394.31
472.654	388.31
472.873	388.31
473.092	393.31
473.311	374.31
473.53	395.31
473.749	400.31
473.968	437.31
474.187	544.31
474.406	550.31
474.625	447.31
474.844	415.31
475.063	394.31
475.282	387.31
475.501	398.31
475.72	383.31
475.939	412.31
476.158	403.31
476.377	401.31
476.596	407.31
476.814	417.31
477.033	422.31
477.252	426.31
477.471	427.31
477.69	422.31
477.908	406.31
478.127	416.31
478.346	426.31
478.564	422.31
478.783	418.31
479.002	436.31
479.22	447.31
479.439	454.31
479.658	454.31
479.876	480.31
480.095	490.31
480.313	498.31
480.532	487.31
480.751	477.31
480.969	478.31
481.188	498.31
481.406	488.31
481.624	463.31
481.843	460.31
482.061	450.31
482.28	436.31
482.498	445.31
482.717	468.31
482.935	481.31
483.153	447.31
483.372	478.31
483.59	456.31
483.808	460.31
484.027	470.31
484.245	473.31
484.463	481.31
484.681	475.31
484.9	478.31
485.118	461.31
485.336	483.31
485.554	473.31
485.772	490.31
485.99	486.31
486.209	485.31
486.427	516.31
486.645	515.31
486.863	535.31
487.081	518.31
487.299	522.31
487.517	525.31
487.735	533.31
487.953	493.31
488.171	513.31
488.389	505.31
488.607	511.31
488.825	507.31
489.043	521.31
489.261	514.31
489.479	525.31
489.696	519.31
489.914	537.31
490.132	534.31
490.35	552.31
490.568	555.31
490.786	537.31
491.003	545.31
491.221	564.31
491.439	552.31
491.657	581.31
491.874	574.31
492.092	578.31
492.31	616.31
492.527	597.31
492.745	603.31
492.963	590.31
493.18	584.31
493.398	586.31
493.615	604.31
493.833	609.31
494.05	586.31
494.268	594.31
494.485	615.31
494.703	598.31
494.92	608.31
495.138	628.31
495.355	620.31
495.573	626.31
495.79	608.31
496.008	625.31
496.225	593.31
496.442	610.31
496.66	602.31
496.877	634.31
497.094	611.31
497.312	635.31
497.529	615.31
497.746	629.31
497.963	620.31
498.181	669.31
498.398	654.31
498.615	641.31
498.832	655.31
499.049	636.31
499.267	665.31
499.484	694.31
499.701	692.31
499.918	705.31
500.135	714.31
500.352	734.31
500.569	717.31
500.786	728.31
501.003	737.31
501.22	725.31
501.437	702.31
501.654	712.31
501.871	733.31
502.088	709.31
502.305	688.31
502.522	697.31
502.739	683.31
502.956	641.31
503.172	651.31
503.389	632.31
503.606	624.31
503.823	641.31
504.04	631.31
504.256	592.31
504.473	605.31
504.69	636.31
504.907	592.31
505.123	621.31
505.34	614.31
505.557	619.31
505.773	608.31
505.99	613.31
506.207	605.31
506.423	616.31
506.64	590.31
506.856	577.31
507.073	602.31
507.289	604.31
507.506	595.31
507.722	608.31
507.939	634.31
508.155	601.31
508.372	577.31
508.588	623.31
508.805	580.31
509.021	602.31
509.238	597.31
509.454	601.31
509.67	583.31
509.887	577.31
510.103	587.31
510.319	619.31
510.536	708.31
510.752	1194.31
510.968	1022.31
511.184	658.31
511.401	583.31
511.617	582.31
511.833	565.31
512.049	589.31
512.265	583.31
512.481	558.31
512.698	553.31
512.914	570.31
513.13	575.31
513.346	558.31
513.562	551.31
513.778	555.31
513.994	597.31
514.21	600.31
514.426	608.31
514.642	692.31
514.858	717.31
515.074	730.31
515.29	908.31
515.506	1388.31
515.721	1139.31
515.937	723.31
516.153	647.31
516.369	634.31
516.585	590.31
516.801	599.31
517.016	573.31
517.232	566.31
517.448	572.31
517.664	569.31
517.879	569.31
518.095	552.31
518.311	561.31
518.527	590.31
518.742	571.31
518.958	555.31
519.173	547.31
519.389	533.31
519.605	559.31
519.82	591.31
520.036	585.31
520.251	604.31
520.467	659.31
520.682	645.31
520.898	647.31
521.113	689.31
521.329	739.31
521.544	859.31
521.76	1107.31
521.975	1846.31
522.19	1847.31
522.406	994.31
522.621	735.31
522.836	641.31
523.052	591.31
523.267	553.31
523.482	548.31
523.698	541.31
523.913	567.31
524.128	541.31
524.343	512.31
524.559	509.31
524.774	527.31
524.989	524.31
525.204	502.31
525.419	489.31
525.634	478.31
525.849	509.31
526.064	492.31
526.28	451.31
526.495	468.31
526.71	474.31
526.925	451.31
527.14	448.31
527.355	457.31
527.57	468.31
527.785	469.31
527.999	442.31
528.214	448.31
528.429	452.31
528.644	467.31
528.859	456.31
529.074	481.31
529.289	493.31
529.503	579.31
529.718	549.31
529.933	497.31
530.148	474.31
530.363	449.31
530.577	442.31
530.792	452.31
531.007	455.31
531.221	456.31
531.436	434.31
531.651	441.31
531.865	430.31
532.08	413.31
532.295	405.31
532.509	430.31
532.724	420.31
532.938	443.31
533.153	433.31
533.367	406.31
533.582	428.31
533.796	411.31
534.011	403.31
534.225	433.31
534.44	413.31
534.654	420.31
534.868	417.31
535.083	433.31
535.297	426.31
535.511	405.31
535.726	445.31
535.94	426.31
536.154	428.31
536.369	414.31
536.583	418.31
536.797	435.31
537.011	431.31
537.225	417.31
537.44	405.31
537.654	406.31
537.868	408.31
538.082	410.31
538.296	423.31
538.51	390.31
538.724	407.31
538.938	412.31
539.153	414.31
539.367	422.31
539.581	429.31
539.795	438.31
540.009	413.31
540.222	409.31
540.436	407.31
540.65	406.31
540.864	426.31
541.078	421.31
541.292	394.31
541.506	417.31
541.72	405.31
541.934	414.31
542.147	385.31
542.361	379.31
542.575	400.31
542.789	395.31
543.002	404.31
543.216	401.31
543.43	400.31
543.644	415.31
543.857	404.31
544.071	401.31
544.285	412.31
544.498	393.31
544.712	391.31
544.925	387.31
545.139	398.31
545.352	402.31
545.566	377.31
545.779	395.31
545.993	390.31
546.206	398.31
546.42	398.31
546.633	370.31
546.847	375.31
547.06	393.31
547.274	381.31
547.487	386.31
547.7	367.31
547.914	378.31
548.127	367.31
548.34	385.31
548.554	353.31
548.767	383.31
548.98	373.31
549.193	369.31
549.407	367.31
549.62	375.31
549.833	355.31
550.046	365.31
550.259	354.31
550.473	356.31
550.686	371.31
550.899	355.31
551.112	371.31
551.325	360.31
551.538	355.31
551.751	375.31
551.964	371.31
552.177	349.31
552.39	379.31
552.603	361.31
552.816	366.31
553.029	370.31
553.242	349.31
553.455	348.31
553.667	370.31
553.88	375.31
554.093	379.31
554.306	383.31
554.519	366.31
554.732	376.31
554.944	362.31
555.157	343.31
555.37	359.31
555.583	349.31
555.795	366.31
556.008	342.31
556.221	338.31
556.433	345.31
556.646	343.31
556.859	348.31
557.071	330.31
557.284	338.31
557.496	323.31
557.709	350.31
557.921	327.31
558.134	341.31
558.346	327.31
558.559	349.31
558.771	339.31
558.984	332.31
559.196	342.31
559.409	328.31
559.621	329.31
559.833	340.31
560.046	305.31
560.258	341.31
560.47	359.31
560.683	332.31
560.895	338.31
561.107	349.31
561.32	336.31
561.532	341.31
561.744	340.31
561.956	348.31
562.168	345.31
562.381	328.31
562.593	350.31
562.805	342.31
563.017	334.31
563.229	347.31
563.441	337.31
563.653	347.31
563.865	333.31
564.077	337.31
564.289	326.31
564.501	348.31
564.713	355.31
564.925	355.31
565.137	365.31
565.349	350.31
565.561	359.31
565.773	342.31
565.985	343.31
566.197	350.31
566.408	349.31
566.62	359.31
566.832	366.31
567.044	364.31
567.255	372.31
567.467	377.31
567.679	377.31
567.891	365.31
568.102	341.31
568.314	362.31
568.526	365.31
568.737	361.31
568.949	350.31
569.161	341.31
569.372	331.31
569.584	327.31
569.795	351.31
570.007	330.31
570.218	374.31
570.43	387.31
570.641	331.31
570.853	309.31
571.064	342.31
571.276	338.31
571.487	326.31
571.698	329.31
571.91	314.31
572.121	301.31
572.333	305.31
572.544	311.31
572.755	315.31
572.966	301.31
573.178	302.31
573.389	314.31
573.6	302.31
573.811	279.31
574.023	318.31
574.234	295.31
574.445	293.31
574.656	267.31
574.867	286.31
575.078	307.31
575.289	297.31
575.501	286.31
575.712	297.31
575.923	285.31
576.134	301.31
576.345	296.31
576.556	286.31
576.767	285.31
576.978	282.31
577.188	279.31
577.399	287.31
577.61	294.31
577.821	286.31
578.032	295.31
578.243	323.31
578.454	565.31
578.665	422.31
578.875	297.31
579.086	263.31
579.297	284.31
579.508	266.31
579.718	272.31
579.929	272.31
580.14	270.31
580.35	248.31
580.561	283.31
580.772	265.31
580.982	263.31
581.193	265.31
581.403	263.31
581.614	277.31
581.825	246.31
582.035	286.31
582.246	273.31
582.456	282.31
582.667	263.31
582.877	265.31
583.087	261.31
583.298	258.31
583.508	249.31
583.719	281.31
583.929	258.31
584.139	287.31
584.35	273.31
584.56	262.31
584.77	281.31
584.981	268.31
585.191	265.31
585.401	264.31
585.611	255.31
585.821	264.31
586.032	251.31
586.242	283.31
586.452	257.31
586.662	265.31
586.872	268.31
587.082	262.31
587.292	247.31
587.502	254.31
587.713	261.31
587.923	259.31
588.133	266.31
588.343	272.31
588.553	259.31
588.762	249.31
588.972	279.31
589.182	379.31
589.392	395.31
589.602	283.31
589.812	360.31
590.022	318.31
590.232	275.31
590.441	270.31
590.651	249.31
590.861	253.31
591.071	241.31
591.281	258.31
591.49	251.31
591.7	236.31
591.91	257.31
592.119	250.31
592.329	262.31
592.539	267.31
592.748	255.31
592.958	270.31
593.167	260.31
593.377	266.31
593.587	284.31
593.796	262.31
594.006	254.31
594.215	261.31
594.424	260.31
594.634	255.31
594.843	259.31
595.053	262.31
595.262	266.31
595.472	238.31
595.681	253.31
595.89	240.31
596.1	231.31
596.309	246.31
596.518	241.31
596.727	236.31
596.937	253.31
597.146	236.31
597.355	228.31
597.564	238.31
597.774	244.31
597.983	254.31
598.192	231.31
598.401	237.31
598.61	228.31
598.819	229.31
599.028	239.31
599.237	223.31
599.446	244.31
599.655	242.31
599.864	218.31
600.073	231.31
600.282	235.31
600.491	235.31
600.7	228.31
600.909	239.31
601.118	222.31
601.327	222.31
601.536	219.31
601.745	238.31
601.953	217.31
602.162	219.31
602.371	215.31
602.58	224.31
602.789	238.31
602.997	224.31
603.206	225.31
603.415	229.31
603.623	215.31
603.832	229.31
604.041	223.31
604.249	226.31
604.458	216.31
604.666	228.31
604.875	218.31
605.084	217.31
605.292	242.31
605.501	233.31
605.709	231.31
605.918	214.31
606.126	207.31
606.334	222.31
606.543	206.31
606.751	216.31
606.96	221.31
607.168	213.31
607.376	220.31
607.585	229.31
607.793	215.31
608.001	199.31
608.21	221.31
608.418	222.31
608.626	201.31
608.834	199.31
609.043	202.31
609.251	207.31
609.459	204.31
609.667	218.31
609.875	215.31
610.083	202.31
610.291	217.31
610.499	206.31
610.707	205.31
610.916	213.31
611.124	221.31
611.332	207.31
611.54	222.31
611.748	211.31
611.955	216.31
612.163	209.31
612.371	209.31
612.579	214.31
612.787	215.31
612.995	227.31
613.203	213.31
613.411	205.31
613.618	196.31
613.826	210.31
614.034	213.31
614.242	198.31
614.449	203.31
614.657	208.31
614.865	209.31
615.072	200.31
615.28	207.31
615.488	209.31
615.695	210.31
615.903	221.31
616.111	210.31
616.318	202.31
616.526	208.31
616.733	227.31
616.941	197.31
617.148	193.31
617.356	212.31
617.563	214.31
617.771	201.31
617.978	191.31
618.185	221.31
618.393	205.31
618.6	205.31
618.807	202.31
619.015	204.31
619.222	210.31
619.429	189.31
619.637	215.31
619.844	213.31
620.051	202.31
620.258	196.31
620.466	197.31
620.673	197.31
620.88	205.31
621.087	198.31
621.294	185.31
621.501	216.31
621.708	211.31
621.915	218.31
622.122	193.31
622.329	214.31
622.536	211.31
622.743	195.31
622.95	201.31
623.157	211.31
623.364	185.31
623.571	203.31
623.778	188.31
623.985	195.31
624.192	187.31
624.399	181.31
624.606	177.31
624.812	176.31
625.019	184.31
625.226	181.31
625.433	180.31
625.639	181.31
625.846	195.31
626.053	192.31
626.259	190.31
626.466	203.31
626.673	199.31
626.879	181.31
627.086	192.31
627.293	188.31
627.499	189.31
627.706	196.31
627.912	187.31
628.119	180.31
628.325	195.31
628.532	193.31
628.738	178.31
628.945	169.31
629.151	185.31
629.357	182.31
629.564	191.31
629.77	178.31
629.976	165.31
630.183	173.31
630.389	187.31
630.595	170.31
630.802	174.31
631.008	177.31
631.214	163.31
631.42	197.31
631.627	171.31
631.833	179.31
632.039	167.31
632.245	172.31
632.451	181.31
632.657	170.31
632.863	159.31
633.069	168.31
633.275	182.31
633.481	163.31
633.688	156.31
633.893	187.31
634.099	165.31
634.305	158.31
634.511	159.31
634.717	172.31
634.923	159.31
635.129	167.31
635.335	164.31
635.541	158.31
635.747	185.31
635.952	166.31
636.158	166.31
636.364	157.31
636.57	163.31
636.775	158.31
636.981	166.31
637.187	152.31
637.392	164.31
637.598	150.31
637.804	181.31
638.009	169.31
638.215	166.31
638.421	162.31
638.626	158.31
638.832	160.31
639.037	154.31
639.243	160.31
639.448	168.31
639.654	159.31
639.859	147.31
640.065	152.31
640.27	155.31
640.475	169.31
640.681	141.31
640.886	155.31
641.091	163.31
641.297	160.31
641.502	165.31
641.707	153.31
641.913	150.31
642.118	167.31
642.323	154.31
642.528	171.31
642.733	148.31
642.939	141.31
643.144	147.31
643.349	142.31
643.554	159.31
643.759	165.31
643.964	151.31
644.169	154.31
644.374	165.31
644.579	155.31
644.784	143.31
644.989	168.31
645.194	154.31
645.399	149.31
645.604	145.31
645.809	138.31
646.014	143.31
646.219	149.31
646.423	169.31
646.628	154.31
646.833	157.31
647.038	151.31
647.243	151.31
647.447	155.31
647.652	172.31
647.857	150.31
648.062	166.31
648.266	140.31
648.471	157.31
648.676	140.31
648.88	159.31
649.085	143.31
649.289	149.31
649.494	169.31
649.698	177.31
649.903	181.31
650.107	162.31
650.312	151.31
650.516	149.31
650.721	136.31
650.925	136.31
651.13	123.31
651.334	144.31
651.539	126.31
651.743	143.31
651.947	146.31
652.152	144.31
652.356	132.31
652.56	144.31
652.764	133.31
652.969	107.31
653.173	127.31
653.377	127.31
653.581	131.31
653.785	126.31
653.99	137.31
654.194	121.31
654.398	139.31
654.602	134.31
654.806	127.31
655.01	129.31
655.214	126.31
655.418	123.31
655.622	136.31
655.826	123.31
656.03	115.31
656.234	121.31
656.438	123.31
656.642	123.31
656.846	125.31
657.049	113.31
657.253	114.31
657.457	128.31
657.661	115.31
657.865	115.31
658.068	106.31
658.272	108.31
658.476	104.31
658.68	108.31
658.883	104.31
659.087	106.31
659.291	110.31
659.494	106.31
659.698	94.31
659.901	104.31
660.105	86.31
660.309	88.31
660.512	99.31
660.716	104.31
660.919	100.31
661.123	99.31
661.326	88.31
661.53	95.31
661.733	83.31
661.936	88.31
662.14	96.31
662.343	89.31
662.546	92.31
662.75	78.31
662.953	85.31
663.156	106.31
663.36	79.31
663.563	92.31
663.766	93.31
663.969	103.31
664.173	78.31
664.376	94.31
664.579	70.31
664.782	78.31
664.985	78.31
665.188	73.31
665.391	84.31
665.594	84.31
665.797	70.31
666	81.31
666.203	83.31
666.406	88.31
666.609	92.31
666.812	83.31
667.015	73.31
667.218	96.31
667.421	74.31
667.624	82.31
667.827	82.31
668.03	75.31
668.232	73.31
668.435	85.31
668.638	78.31
668.841	82.31
669.043	75.31
669.246	70.31
669.449	85.31
669.651	92.31
669.854	64.31
670.057	79.31
670.259	97.31
670.462	89.31
670.665	87.31
670.867	78.31
671.07	84.31
671.272	99.31
671.475	103.31
671.677	84.31
671.88	85.31
672.082	79.31
672.284	70.31
672.487	96.31
672.689	87.31
672.892	68.31
