Data from 1987.PennyLincolnUp.Lamp.En5.5.200Scan.071819.P2_HRD10591_17-13-57-971.txt Node
Date: Thu Jul 18 17:13:57 EDT 2019
User: cochatt
Spectrometer: HR+D1059
Trigger mode: 1
Integration Time (sec): 1.000000E-1
Scans to average: 1
Electric dark correction enabled: true
Nonlinearity correction enabled: false
Boxcar width: 0
XAxis mode: Wavelengths
Number of Pixels in Spectrum: 2048
>>>>>Begin Spectral Data<<<<<
223.165	-17.69
223.4	-17.69
223.635	-17.69
223.869	-17.69
224.104	-25.69
224.338	-3.69
224.573	-13.69
224.808	-9.69
225.042	-10.69
225.277	2.31
225.511	-6.69
225.746	-0.69
225.98	3.31
226.215	15.31
226.449	15.31
226.683	14.31
226.918	28.31
227.152	27.31
227.387	24.31
227.621	46.31
227.856	39.31
228.09	55.31
228.324	63.31
228.559	47.31
228.793	72.31
229.027	92.31
229.262	104.31
229.496	99.31
229.73	131.31
229.964	139.31
230.199	111.31
230.433	97.31
230.667	90.31
230.901	103.31
231.136	118.31
231.37	91.31
231.604	99.31
231.838	87.31
232.072	104.31
232.306	113.31
232.541	105.31
232.775	109.31
233.009	110.31
233.243	121.31
233.477	90.31
233.711	106.31
233.945	106.31
234.179	118.31
234.413	107.31
234.647	109.31
234.881	119.31
235.115	103.31
235.349	95.31
235.583	102.31
235.817	103.31
236.051	122.31
236.285	120.31
236.519	118.31
236.753	122.31
236.987	122.31
237.221	164.31
237.455	206.31
237.689	166.31
237.922	126.31
238.156	119.31
238.39	110.31
238.624	104.31
238.858	112.31
239.091	107.31
239.325	105.31
239.559	108.31
239.793	109.31
240.027	113.31
240.26	120.31
240.494	129.31
240.728	135.31
240.961	129.31
241.195	140.31
241.429	126.31
241.662	111.31
241.896	119.31
242.13	108.31
242.363	106.31
242.597	112.31
242.83	122.31
243.064	119.31
243.298	134.31
243.531	127.31
243.765	123.31
243.998	123.31
244.232	128.31
244.465	127.31
244.699	129.31
244.932	122.31
245.166	127.31
245.399	118.31
245.633	119.31
245.866	138.31
246.099	128.31
246.333	130.31
246.566	127.31
246.8	131.31
247.033	143.31
247.266	135.31
247.5	147.31
247.733	143.31
247.966	144.31
248.2	135.31
248.433	164.31
248.666	139.31
248.899	142.31
249.133	171.31
249.366	174.31
249.599	176.31
249.832	147.31
250.066	180.31
250.299	164.31
250.532	164.31
250.765	166.31
250.998	176.31
251.231	189.31
251.465	194.31
251.698	180.31
251.931	191.31
252.164	170.31
252.397	168.31
252.63	172.31
252.863	163.31
253.096	175.31
253.329	199.31
253.562	169.31
253.795	190.31
254.028	182.31
254.261	180.31
254.494	197.31
254.727	216.31
254.96	227.31
255.193	225.31
255.426	209.31
255.659	191.31
255.892	191.31
256.124	185.31
256.357	178.31
256.59	194.31
256.823	174.31
257.056	182.31
257.289	177.31
257.521	184.31
257.754	167.31
257.987	186.31
258.22	165.31
258.452	158.31
258.685	160.31
258.918	196.31
259.151	190.31
259.383	162.31
259.616	189.31
259.849	170.31
260.081	170.31
260.314	188.31
260.547	202.31
260.779	199.31
261.012	189.31
261.244	195.31
261.477	175.31
261.71	171.31
261.942	177.31
262.175	186.31
262.407	189.31
262.64	168.31
262.872	172.31
263.105	175.31
263.337	167.31
263.57	154.31
263.802	166.31
264.035	157.31
264.267	168.31
264.499	156.31
264.732	167.31
264.964	146.31
265.197	155.31
265.429	166.31
265.661	159.31
265.894	166.31
266.126	172.31
266.358	172.31
266.591	169.31
266.823	167.31
267.055	170.31
267.287	180.31
267.52	174.31
267.752	174.31
267.984	151.31
268.216	168.31
268.448	180.31
268.681	181.31
268.913	188.31
269.145	195.31
269.377	213.31
269.609	206.31
269.841	200.31
270.073	203.31
270.306	200.31
270.538	235.31
270.77	255.31
271.002	237.31
271.234	234.31
271.466	226.31
271.698	225.31
271.93	250.31
272.162	237.31
272.394	243.31
272.626	230.31
272.858	224.31
273.09	215.31
273.322	209.31
273.553	207.31
273.785	213.31
274.017	203.31
274.249	196.31
274.481	207.31
274.713	197.31
274.945	195.31
275.176	206.31
275.408	193.31
275.64	204.31
275.872	182.31
276.104	185.31
276.335	206.31
276.567	200.31
276.799	218.31
277.031	239.31
277.262	237.31
277.494	245.31
277.726	211.31
277.957	206.31
278.189	212.31
278.421	207.31
278.652	205.31
278.884	187.31
279.115	218.31
279.347	208.31
279.579	195.31
279.81	200.31
280.042	188.31
280.273	189.31
280.505	182.31
280.736	182.31
280.968	175.31
281.199	176.31
281.431	187.31
281.662	192.31
281.894	191.31
282.125	195.31
282.356	198.31
282.588	213.31
282.819	224.31
283.051	186.31
283.282	173.31
283.513	198.31
283.745	200.31
283.976	183.31
284.207	188.31
284.439	201.31
284.67	192.31
284.901	194.31
285.132	187.31
285.364	188.31
285.595	204.31
285.826	191.31
286.057	206.31
286.288	195.31
286.52	203.31
286.751	192.31
286.982	189.31
287.213	201.31
287.444	208.31
287.675	213.31
287.906	200.31
288.138	217.31
288.369	221.31
288.6	228.31
288.831	199.31
289.062	194.31
289.293	203.31
289.524	192.31
289.755	199.31
289.986	198.31
290.217	196.31
290.448	200.31
290.679	204.31
290.91	192.31
291.141	187.31
291.371	203.31
291.602	206.31
291.833	199.31
292.064	197.31
292.295	203.31
292.526	213.31
292.757	183.31
292.987	185.31
293.218	192.31
293.449	195.31
293.68	188.31
293.91	199.31
294.141	214.31
294.372	194.31
294.603	197.31
294.833	203.31
295.064	212.31
295.295	200.31
295.525	206.31
295.756	207.31
295.987	212.31
296.217	236.31
296.448	235.31
296.679	214.31
296.909	208.31
297.14	192.31
297.37	212.31
297.601	189.31
297.831	199.31
298.062	212.31
298.292	196.31
298.523	221.31
298.753	212.31
298.984	199.31
299.214	202.31
299.445	214.31
299.675	214.31
299.905	210.31
300.136	208.31
300.366	202.31
300.597	204.31
300.827	209.31
301.057	221.31
301.288	229.31
301.518	229.31
301.748	221.31
301.979	207.31
302.209	208.31
302.439	233.31
302.669	230.31
302.9	233.31
303.13	217.31
303.36	221.31
303.59	227.31
303.82	227.31
304.051	224.31
304.281	220.31
304.511	199.31
304.741	226.31
304.971	228.31
305.201	239.31
305.431	208.31
305.661	222.31
305.891	230.31
306.121	232.31
306.352	225.31
306.582	226.31
306.812	223.31
307.042	237.31
307.272	227.31
307.502	223.31
307.731	224.31
307.961	232.31
308.191	218.31
308.421	236.31
308.651	233.31
308.881	227.31
309.111	229.31
309.341	240.31
309.571	281.31
309.8	256.31
310.03	243.31
310.26	252.31
310.49	254.31
310.72	276.31
310.949	286.31
311.179	286.31
311.409	259.31
311.639	260.31
311.868	259.31
312.098	272.31
312.328	256.31
312.557	277.31
312.787	284.31
313.017	280.31
313.246	284.31
313.476	256.31
313.706	250.31
313.935	277.31
314.165	278.31
314.394	268.31
314.624	291.31
314.853	276.31
315.083	278.31
315.312	266.31
315.542	253.31
315.771	252.31
316.001	247.31
316.23	247.31
316.46	246.31
316.689	241.31
316.919	262.31
317.148	262.31
317.377	256.31
317.607	253.31
317.836	255.31
318.065	261.31
318.295	265.31
318.524	270.31
318.753	260.31
318.983	260.31
319.212	266.31
319.441	261.31
319.67	262.31
319.9	282.31
320.129	267.31
320.358	258.31
320.587	276.31
320.816	270.31
321.046	279.31
321.275	277.31
321.504	277.31
321.733	282.31
321.962	308.31
322.191	284.31
322.42	311.31
322.649	328.31
322.878	331.31
323.108	343.31
323.337	345.31
323.566	376.31
323.795	409.31
324.024	419.31
324.253	519.31
324.482	730.31
324.71	1131.31
324.939	1618.31
325.168	1456.31
325.397	764.31
325.626	540.31
325.855	429.31
326.084	388.31
326.313	365.31
326.542	370.31
326.77	412.31
326.999	466.31
327.228	638.31
327.457	1029.31
327.686	1244.31
327.914	879.31
328.143	592.31
328.372	498.31
328.6	424.31
328.829	427.31
329.058	443.31
329.287	456.31
329.515	414.31
329.744	352.31
329.972	371.31
330.201	374.31
330.43	378.31
330.658	407.31
330.887	434.31
331.115	441.31
331.344	386.31
331.572	368.31
331.801	364.31
332.03	350.31
332.258	316.31
332.486	298.31
332.715	305.31
332.943	312.31
333.172	281.31
333.4	319.31
333.629	302.31
333.857	310.31
334.085	333.31
334.314	318.31
334.542	326.31
334.771	317.31
334.999	304.31
335.227	308.31
335.455	316.31
335.684	297.31
335.912	292.31
336.14	298.31
336.369	275.31
336.597	300.31
336.825	308.31
337.053	300.31
337.281	292.31
337.51	298.31
337.738	276.31
337.966	309.31
338.194	303.31
338.422	297.31
338.65	302.31
338.878	300.31
339.106	284.31
339.334	285.31
339.562	278.31
339.79	294.31
340.018	297.31
340.246	282.31
340.474	302.31
340.702	314.31
340.93	280.31
341.158	285.31
341.386	282.31
341.614	302.31
341.842	297.31
342.07	284.31
342.298	284.31
342.526	287.31
342.754	284.31
342.981	278.31
343.209	274.31
343.437	283.31
343.665	285.31
343.893	312.31
344.12	293.31
344.348	295.31
344.576	304.31
344.804	301.31
345.031	308.31
345.259	313.31
345.487	325.31
345.714	311.31
345.942	323.31
346.17	292.31
346.397	276.31
346.625	292.31
346.853	285.31
347.08	294.31
347.308	279.31
347.535	308.31
347.763	330.31
347.99	308.31
348.218	294.31
348.445	298.31
348.673	308.31
348.9	281.31
349.128	302.31
349.355	295.31
349.583	288.31
349.81	273.31
350.037	278.31
350.265	294.31
350.492	266.31
350.72	299.31
350.947	286.31
351.174	302.31
351.402	316.31
351.629	308.31
351.856	295.31
352.083	297.31
352.311	301.31
352.538	304.31
352.765	303.31
352.992	314.31
353.22	286.31
353.447	277.31
353.674	295.31
353.901	295.31
354.128	281.31
354.355	275.31
354.583	274.31
354.81	263.31
355.037	264.31
355.264	262.31
355.491	263.31
355.718	263.31
355.945	276.31
356.172	259.31
356.399	270.31
356.626	272.31
356.853	278.31
357.08	296.31
357.307	278.31
357.534	253.31
357.761	263.31
357.988	292.31
358.215	284.31
358.441	283.31
358.668	298.31
358.895	266.31
359.122	282.31
359.349	291.31
359.576	312.31
359.802	318.31
360.029	348.31
360.256	357.31
360.483	335.31
360.709	303.31
360.936	307.31
361.163	291.31
361.39	276.31
361.616	297.31
361.843	295.31
362.07	312.31
362.296	315.31
362.523	298.31
362.749	294.31
362.976	306.31
363.203	300.31
363.429	279.31
363.656	291.31
363.882	292.31
364.109	287.31
364.335	292.31
364.562	291.31
364.788	292.31
365.015	295.31
365.241	281.31
365.468	296.31
365.694	296.31
365.92	294.31
366.147	295.31
366.373	271.31
366.599	291.31
366.826	297.31
367.052	278.31
367.278	275.31
367.505	276.31
367.731	287.31
367.957	277.31
368.184	291.31
368.41	299.31
368.636	296.31
368.862	294.31
369.089	293.31
369.315	292.31
369.541	272.31
369.767	276.31
369.993	285.31
370.219	281.31
370.445	291.31
370.672	301.31
370.898	290.31
371.124	283.31
371.35	290.31
371.576	282.31
371.802	282.31
372.028	273.31
372.254	287.31
372.48	294.31
372.706	281.31
372.932	251.31
373.158	282.31
373.384	272.31
373.61	281.31
373.835	295.31
374.061	293.31
374.287	294.31
374.513	285.31
374.739	298.31
374.965	274.31
375.191	286.31
375.416	297.31
375.642	273.31
375.868	279.31
376.094	306.31
376.319	280.31
376.545	287.31
376.771	271.31
376.997	291.31
377.222	276.31
377.448	295.31
377.674	301.31
377.899	304.31
378.125	270.31
378.35	257.31
378.576	301.31
378.802	295.31
379.027	298.31
379.253	289.31
379.478	268.31
379.704	298.31
379.929	283.31
380.155	302.31
380.38	276.31
380.606	284.31
380.831	291.31
381.057	281.31
381.282	274.31
381.507	291.31
381.733	274.31
381.958	285.31
382.184	287.31
382.409	298.31
382.634	295.31
382.86	296.31
383.085	306.31
383.31	304.31
383.535	279.31
383.761	296.31
383.986	303.31
384.211	309.31
384.436	295.31
384.662	286.31
384.887	296.31
385.112	309.31
385.337	327.31
385.562	309.31
385.787	310.31
386.013	314.31
386.238	315.31
386.463	319.31
386.688	296.31
386.913	302.31
387.138	292.31
387.363	324.31
387.588	306.31
387.813	316.31
388.038	313.31
388.263	325.31
388.488	303.31
388.713	308.31
388.938	310.31
389.163	287.31
389.387	311.31
389.612	316.31
389.837	300.31
390.062	315.31
390.287	314.31
390.512	299.31
390.736	292.31
390.961	300.31
391.186	302.31
391.411	308.31
391.636	320.31
391.86	315.31
392.085	311.31
392.31	298.31
392.534	296.31
392.759	303.31
392.984	295.31
393.208	324.31
393.433	337.31
393.658	359.31
393.882	298.31
394.107	318.31
394.331	312.31
394.556	303.31
394.78	314.31
395.005	324.31
395.229	324.31
395.454	327.31
395.678	314.31
395.903	310.31
396.127	341.31
396.352	342.31
396.576	344.31
396.801	335.31
397.025	337.31
397.249	313.31
397.474	332.31
397.698	332.31
397.922	341.31
398.147	363.31
398.371	345.31
398.595	326.31
398.82	335.31
399.044	328.31
399.268	358.31
399.492	361.31
399.717	365.31
399.941	391.31
400.165	422.31
400.389	429.31
400.613	391.31
400.837	374.31
401.062	361.31
401.286	356.31
401.51	363.31
401.734	352.31
401.958	336.31
402.182	366.31
402.406	375.31
402.63	361.31
402.854	354.31
403.078	358.31
403.302	351.31
403.526	344.31
403.75	372.31
403.974	345.31
404.198	342.31
404.422	374.31
404.645	360.31
404.869	360.31
405.093	385.31
405.317	407.31
405.541	402.31
405.765	377.31
405.988	379.31
406.212	397.31
406.436	389.31
406.66	421.31
406.883	407.31
407.107	414.31
407.331	426.31
407.555	490.31
407.778	477.31
408.002	448.31
408.226	393.31
408.449	392.31
408.673	387.31
408.896	434.31
409.12	451.31
409.344	413.31
409.567	392.31
409.791	372.31
410.014	382.31
410.238	356.31
410.461	366.31
410.685	381.31
410.908	391.31
411.132	418.31
411.355	431.31
411.578	428.31
411.802	385.31
412.025	365.31
412.249	368.31
412.472	373.31
412.695	385.31
412.919	366.31
413.142	345.31
413.365	346.31
413.589	347.31
413.812	351.31
414.035	337.31
414.258	360.31
414.482	356.31
414.705	341.31
414.928	361.31
415.151	345.31
415.374	345.31
415.597	344.31
415.821	359.31
416.044	370.31
416.267	351.31
416.49	332.31
416.713	339.31
416.936	351.31
417.159	342.31
417.382	347.31
417.605	371.31
417.828	374.31
418.051	380.31
418.274	364.31
418.497	368.31
418.72	383.31
418.943	358.31
419.166	334.31
419.389	376.31
419.611	361.31
419.834	384.31
420.057	370.31
420.28	383.31
420.503	364.31
420.726	374.31
420.948	374.31
421.171	428.31
421.394	457.31
421.617	390.31
421.839	366.31
422.062	367.31
422.285	382.31
422.507	424.31
422.73	493.31
422.953	487.31
423.175	438.31
423.398	403.31
423.621	394.31
423.843	406.31
424.066	408.31
424.288	401.31
424.511	418.31
424.733	475.31
424.956	512.31
425.178	528.31
425.401	510.31
425.623	510.31
425.846	477.31
426.068	423.31
426.291	431.31
426.513	430.31
426.735	443.31
426.958	450.31
427.18	525.31
427.402	650.31
427.625	676.31
427.847	612.31
428.069	523.31
428.292	457.31
428.514	427.31
428.736	416.31
428.958	412.31
429.181	391.31
429.403	406.31
429.625	402.31
429.847	419.31
430.069	484.31
430.292	469.31
430.514	389.31
430.736	395.31
430.958	388.31
431.18	380.31
431.402	383.31
431.624	361.31
431.846	361.31
432.068	364.31
432.29	363.31
432.512	367.31
432.734	367.31
432.956	379.31
433.178	382.31
433.4	373.31
433.622	364.31
433.844	370.31
434.066	358.31
434.287	372.31
434.509	367.31
434.731	353.31
434.953	384.31
435.175	398.31
435.397	419.31
435.618	414.31
435.84	454.31
436.062	525.31
436.284	582.31
436.505	510.31
436.727	463.31
436.949	414.31
437.17	398.31
437.392	412.31
437.614	425.31
437.835	461.31
438.057	527.31
438.278	607.31
438.5	587.31
438.721	659.31
438.943	638.31
439.165	506.31
439.386	458.31
439.608	452.31
439.829	439.31
440.05	452.31
440.272	494.31
440.493	463.31
440.715	431.31
440.936	409.31
441.158	396.31
441.379	396.31
441.6	418.31
441.822	431.31
442.043	482.31
442.264	524.31
442.486	560.31
442.707	501.31
442.928	442.31
443.149	462.31
443.371	451.31
443.592	484.31
443.813	550.31
444.034	619.31
444.255	536.31
444.476	444.31
444.698	445.31
444.919	427.31
445.14	512.31
445.361	489.31
445.582	442.31
445.803	546.31
446.024	585.31
446.245	594.31
446.466	540.31
446.687	482.31
446.908	438.31
447.129	393.31
447.35	403.31
447.571	407.31
447.792	406.31
448.013	403.31
448.234	415.31
448.455	450.31
448.675	554.31
448.896	616.31
449.117	562.31
449.338	537.31
449.559	597.31
449.779	660.31
450	552.31
450.221	428.31
450.442	419.31
450.662	396.31
450.883	394.31
451.104	422.31
451.324	392.31
451.545	390.31
451.766	387.31
451.986	370.31
452.207	362.31
452.428	344.31
452.648	371.31
452.869	358.31
453.089	370.31
453.31	379.31
453.53	345.31
453.751	361.31
453.971	364.31
454.192	371.31
454.412	362.31
454.633	355.31
454.853	330.31
455.073	365.31
455.294	376.31
455.514	454.31
455.734	410.31
455.955	376.31
456.175	328.31
456.395	338.31
456.616	333.31
456.836	350.31
457.056	318.31
457.276	309.31
457.497	330.31
457.717	332.31
457.937	348.31
458.157	352.31
458.377	354.31
458.598	380.31
458.818	392.31
459.038	475.31
459.258	506.31
459.478	422.31
459.698	378.31
459.918	373.31
460.138	352.31
460.358	361.31
460.578	342.31
460.798	363.31
461.018	360.31
461.238	343.31
461.458	366.31
461.678	355.31
461.898	365.31
462.118	368.31
462.338	358.31
462.558	382.31
462.777	379.31
462.997	353.31
463.217	370.31
463.437	386.31
463.657	375.31
463.876	370.31
464.096	371.31
464.316	378.31
464.536	404.31
464.755	387.31
464.975	388.31
465.195	451.31
465.414	497.31
465.634	454.31
465.854	415.31
466.073	372.31
466.293	378.31
466.512	371.31
466.732	343.31
466.951	360.31
467.171	347.31
467.391	344.31
467.61	354.31
467.829	369.31
468.049	372.31
468.268	335.31
468.488	350.31
468.707	335.31
468.927	342.31
469.146	350.31
469.365	331.31
469.585	336.31
469.804	354.31
470.023	365.31
470.243	376.31
470.462	365.31
470.681	394.31
470.901	366.31
471.12	377.31
471.339	374.31
471.558	378.31
471.777	370.31
471.997	349.31
472.216	380.31
472.435	361.31
472.654	347.31
472.873	364.31
473.092	366.31
473.311	363.31
473.53	360.31
473.749	375.31
473.968	437.31
474.187	488.31
474.406	511.31
474.625	412.31
474.844	378.31
475.063	377.31
475.282	366.31
475.501	374.31
475.72	366.31
475.939	368.31
476.158	377.31
476.377	386.31
476.596	372.31
476.814	404.31
477.033	397.31
477.252	389.31
477.471	393.31
477.69	390.31
477.908	389.31
478.127	394.31
478.346	406.31
478.564	372.31
478.783	398.31
479.002	408.31
479.22	409.31
479.439	424.31
479.658	427.31
479.876	438.31
480.095	450.31
480.313	467.31
480.532	438.31
480.751	439.31
480.969	425.31
481.188	449.31
481.406	447.31
481.624	440.31
481.843	440.31
482.061	429.31
482.28	435.31
482.498	424.31
482.717	404.31
482.935	438.31
483.153	422.31
483.372	431.31
483.59	424.31
483.808	426.31
484.027	430.31
484.245	435.31
484.463	442.31
484.681	418.31
484.9	449.31
485.118	446.31
485.336	440.31
485.554	443.31
485.772	445.31
485.99	442.31
486.209	455.31
486.427	434.31
486.645	457.31
486.863	470.31
487.081	469.31
487.299	481.31
487.517	476.31
487.735	483.31
487.953	467.31
488.171	466.31
488.389	480.31
488.607	471.31
488.825	477.31
489.043	468.31
489.261	473.31
489.479	500.31
489.696	492.31
489.914	486.31
490.132	485.31
490.35	488.31
490.568	483.31
490.786	495.31
491.003	522.31
491.221	519.31
491.439	507.31
491.657	526.31
491.874	519.31
492.092	540.31
492.31	514.31
492.527	533.31
492.745	532.31
492.963	528.31
493.18	544.31
493.398	546.31
493.615	550.31
493.833	559.31
494.05	537.31
494.268	567.31
494.485	572.31
494.703	558.31
494.92	555.31
495.138	557.31
495.355	549.31
495.573	550.31
495.79	553.31
496.008	564.31
496.225	561.31
496.442	551.31
496.66	585.31
496.877	573.31
497.094	550.31
497.312	547.31
497.529	585.31
497.746	579.31
497.963	582.31
498.181	605.31
498.398	604.31
498.615	619.31
498.832	615.31
499.049	594.31
499.267	620.31
499.484	641.31
499.701	650.31
499.918	649.31
500.135	634.31
500.352	668.31
500.569	690.31
500.786	707.31
501.003	697.31
501.22	672.31
501.437	677.31
501.654	669.31
501.871	661.31
502.088	694.31
502.305	644.31
502.522	630.31
502.739	638.31
502.956	604.31
503.172	599.31
503.389	595.31
503.606	599.31
503.823	605.31
504.04	600.31
504.256	581.31
504.473	550.31
504.69	569.31
504.907	556.31
505.123	559.31
505.34	556.31
505.557	572.31
505.773	550.31
505.99	549.31
506.207	555.31
506.423	548.31
506.64	522.31
506.856	552.31
507.073	544.31
507.289	536.31
507.506	534.31
507.722	524.31
507.939	546.31
508.155	537.31
508.372	523.31
508.588	519.31
508.805	523.31
509.021	525.31
509.238	536.31
509.454	539.31
509.67	548.31
509.887	522.31
510.103	522.31
510.319	551.31
510.536	602.31
510.752	1026.31
510.968	836.31
511.184	551.31
511.401	530.31
511.617	522.31
511.833	507.31
512.049	510.31
512.265	507.31
512.481	495.31
512.698	499.31
512.914	511.31
513.13	504.31
513.346	496.31
513.562	518.31
513.778	516.31
513.994	512.31
514.21	538.31
514.426	539.31
514.642	584.31
514.858	584.31
515.074	605.31
515.29	782.31
515.506	1131.31
515.721	932.31
515.937	650.31
516.153	591.31
516.369	543.31
516.585	526.31
516.801	514.31
517.016	524.31
517.232	509.31
517.448	500.31
517.664	514.31
517.879	494.31
518.095	527.31
518.311	524.31
518.527	518.31
518.742	475.31
518.958	500.31
519.173	490.31
519.389	508.31
519.605	502.31
519.82	502.31
520.036	535.31
520.251	530.31
520.467	559.31
520.682	538.31
520.898	583.31
521.113	597.31
521.329	612.31
521.544	667.31
521.76	915.31
521.975	1458.31
522.19	1470.31
522.406	814.31
522.621	603.31
522.836	540.31
523.052	505.31
523.267	515.31
523.482	500.31
523.698	463.31
523.913	485.31
524.128	472.31
524.343	477.31
524.559	450.31
524.774	468.31
524.989	462.31
525.204	458.31
525.419	457.31
525.634	445.31
525.849	430.31
526.064	434.31
526.28	444.31
526.495	414.31
526.71	425.31
526.925	433.31
527.14	423.31
527.355	413.31
527.57	402.31
527.785	400.31
527.999	407.31
528.214	412.31
528.429	412.31
528.644	425.31
528.859	408.31
529.074	421.31
529.289	424.31
529.503	480.31
529.718	495.31
529.933	472.31
530.148	422.31
530.363	436.31
530.577	418.31
530.792	431.31
531.007	405.31
531.221	415.31
531.436	403.31
531.651	379.31
531.865	398.31
532.08	396.31
532.295	402.31
532.509	388.31
532.724	387.31
532.938	391.31
533.153	377.31
533.367	390.31
533.582	384.31
533.796	394.31
534.011	383.31
534.225	380.31
534.44	383.31
534.654	378.31
534.868	383.31
535.083	386.31
535.297	390.31
535.511	379.31
535.726	390.31
535.94	406.31
536.154	388.31
536.369	387.31
536.583	376.31
536.797	380.31
537.011	376.31
537.225	364.31
537.44	363.31
537.654	366.31
537.868	374.31
538.082	387.31
538.296	386.31
538.51	380.31
538.724	386.31
538.938	375.31
539.153	377.31
539.367	381.31
539.581	386.31
539.795	374.31
540.009	367.31
540.222	374.31
540.436	380.31
540.65	377.31
540.864	379.31
541.078	378.31
541.292	380.31
541.506	389.31
541.72	380.31
541.934	360.31
542.147	382.31
542.361	392.31
542.575	363.31
542.789	364.31
543.002	360.31
543.216	355.31
543.43	363.31
543.644	381.31
543.857	377.31
544.071	387.31
544.285	366.31
544.498	363.31
544.712	369.31
544.925	378.31
545.139	346.31
545.352	344.31
545.566	357.31
545.779	355.31
545.993	350.31
546.206	355.31
546.42	366.31
546.633	361.31
546.847	361.31
547.06	356.31
547.274	349.31
547.487	350.31
547.7	343.31
547.914	343.31
548.127	331.31
548.34	350.31
548.554	360.31
548.767	362.31
548.98	349.31
549.193	332.31
549.407	319.31
549.62	336.31
549.833	333.31
550.046	339.31
550.259	339.31
550.473	345.31
550.686	342.31
550.899	349.31
551.112	358.31
551.325	330.31
551.538	341.31
551.751	350.31
551.964	363.31
552.177	332.31
552.39	340.31
552.603	340.31
552.816	342.31
553.029	344.31
553.242	350.31
553.455	335.31
553.667	360.31
553.88	364.31
554.093	349.31
554.306	362.31
554.519	338.31
554.732	331.31
554.944	356.31
555.157	338.31
555.37	328.31
555.583	330.31
555.795	327.31
556.008	315.31
556.221	318.31
556.433	322.31
556.646	313.31
556.859	298.31
557.071	334.31
557.284	308.31
557.496	314.31
557.709	326.31
557.921	337.31
558.134	327.31
558.346	317.31
558.559	326.31
558.771	300.31
558.984	330.31
559.196	320.31
559.409	327.31
559.621	292.31
559.833	310.31
560.046	332.31
560.258	308.31
560.47	327.31
560.683	330.31
560.895	306.31
561.107	312.31
561.32	313.31
561.532	316.31
561.744	316.31
561.956	297.31
562.168	312.31
562.381	323.31
562.593	291.31
562.805	293.31
563.017	311.31
563.229	322.31
563.441	321.31
563.653	326.31
563.865	336.31
564.077	300.31
564.289	312.31
564.501	330.31
564.713	319.31
564.925	342.31
565.137	335.31
565.349	332.31
565.561	346.31
565.773	332.31
565.985	344.31
566.197	331.31
566.408	359.31
566.62	338.31
566.832	366.31
567.044	346.31
567.255	354.31
567.467	351.31
567.679	344.31
567.891	360.31
568.102	357.31
568.314	335.31
568.526	345.31
568.737	348.31
568.949	340.31
569.161	326.31
569.372	314.31
569.584	312.31
569.795	327.31
570.007	312.31
570.218	355.31
570.43	347.31
570.641	318.31
570.853	299.31
571.064	298.31
571.276	301.31
571.487	294.31
571.698	312.31
571.91	292.31
572.121	302.31
572.333	288.31
572.544	283.31
572.755	295.31
572.966	286.31
573.178	282.31
573.389	265.31
573.6	271.31
573.811	275.31
574.023	287.31
574.234	288.31
574.445	285.31
574.656	277.31
574.867	260.31
575.078	283.31
575.289	253.31
575.501	271.31
575.712	268.31
575.923	274.31
576.134	285.31
576.345	270.31
576.556	278.31
576.767	270.31
576.978	268.31
577.188	277.31
577.399	280.31
577.61	272.31
577.821	261.31
578.032	273.31
578.243	297.31
578.454	488.31
578.665	372.31
578.875	298.31
579.086	270.31
579.297	266.31
579.508	266.31
579.718	266.31
579.929	258.31
580.14	259.31
580.35	227.31
580.561	267.31
580.772	276.31
580.982	269.31
581.193	251.31
581.403	262.31
581.614	256.31
581.825	260.31
582.035	239.31
582.246	243.31
582.456	268.31
582.667	260.31
582.877	251.31
583.087	256.31
583.298	259.31
583.508	274.31
583.719	257.31
583.929	258.31
584.139	250.31
584.35	254.31
584.56	235.31
584.77	246.31
584.981	246.31
585.191	258.31
585.401	244.31
585.611	265.31
585.821	259.31
586.032	216.31
586.242	243.31
586.452	267.31
586.662	247.31
586.872	232.31
587.082	253.31
587.292	235.31
587.502	239.31
587.713	265.31
587.923	251.31
588.133	247.31
588.343	262.31
588.553	232.31
588.762	270.31
588.972	259.31
589.182	386.31
589.392	362.31
589.602	287.31
589.812	367.31
590.022	308.31
590.232	270.31
590.441	244.31
590.651	256.31
590.861	240.31
591.071	229.31
591.281	230.31
591.49	230.31
591.7	259.31
591.91	246.31
592.119	244.31
592.329	239.31
592.539	237.31
592.748	250.31
592.958	239.31
593.167	238.31
593.377	244.31
593.587	242.31
593.796	244.31
594.006	246.31
594.215	235.31
594.424	236.31
594.634	235.31
594.843	227.31
595.053	217.31
595.262	250.31
595.472	231.31
595.681	226.31
595.89	239.31
596.1	225.31
596.309	231.31
596.518	227.31
596.727	243.31
596.937	239.31
597.146	223.31
597.355	228.31
597.564	224.31
597.774	231.31
597.983	228.31
598.192	232.31
598.401	208.31
598.61	209.31
598.819	214.31
599.028	213.31
599.237	219.31
599.446	226.31
599.655	222.31
599.864	214.31
600.073	226.31
600.282	228.31
600.491	208.31
600.7	226.31
600.909	226.31
601.118	199.31
601.327	215.31
601.536	215.31
601.745	212.31
601.953	208.31
602.162	199.31
602.371	217.31
602.58	209.31
602.789	217.31
602.997	208.31
603.206	204.31
603.415	214.31
603.623	206.31
603.832	204.31
604.041	196.31
604.249	199.31
604.458	209.31
604.666	206.31
604.875	202.31
605.084	204.31
605.292	223.31
605.501	212.31
605.709	199.31
605.918	204.31
606.126	215.31
606.334	208.31
606.543	202.31
606.751	203.31
606.96	203.31
607.168	211.31
607.376	200.31
607.585	198.31
607.793	206.31
608.001	208.31
608.21	202.31
608.418	188.31
608.626	212.31
608.834	208.31
609.043	200.31
609.251	207.31
609.459	210.31
609.667	202.31
609.875	219.31
610.083	207.31
610.291	204.31
610.499	204.31
610.707	203.31
610.916	208.31
611.124	208.31
611.332	207.31
611.54	222.31
611.748	198.31
611.955	186.31
612.163	198.31
612.371	194.31
612.579	189.31
612.787	212.31
612.995	213.31
613.203	186.31
613.411	207.31
613.618	196.31
613.826	189.31
614.034	203.31
614.242	202.31
614.449	214.31
614.657	198.31
614.865	223.31
615.072	205.31
615.28	192.31
615.488	213.31
615.695	207.31
615.903	207.31
616.111	194.31
616.318	204.31
616.526	187.31
616.733	191.31
616.941	190.31
617.148	198.31
617.356	183.31
617.563	183.31
617.771	213.31
617.978	214.31
618.185	195.31
618.393	196.31
618.6	188.31
618.807	201.31
619.015	183.31
619.222	178.31
619.429	191.31
619.637	176.31
619.844	206.31
620.051	175.31
620.258	194.31
620.466	192.31
620.673	167.31
620.88	184.31
621.087	190.31
621.294	192.31
621.501	167.31
621.708	186.31
621.915	203.31
622.122	181.31
622.329	192.31
622.536	196.31
622.743	187.31
622.95	185.31
623.157	174.31
623.364	178.31
623.571	180.31
623.778	175.31
623.985	191.31
624.192	176.31
624.399	187.31
624.606	190.31
624.812	168.31
625.019	193.31
625.226	190.31
625.433	191.31
625.639	162.31
625.846	186.31
626.053	183.31
626.259	192.31
626.466	195.31
626.673	178.31
626.879	180.31
627.086	184.31
627.293	167.31
627.499	165.31
627.706	172.31
627.912	168.31
628.119	172.31
628.325	187.31
628.532	174.31
628.738	188.31
628.945	166.31
629.151	174.31
629.357	163.31
629.564	176.31
629.77	176.31
629.976	175.31
630.183	170.31
630.389	156.31
630.595	150.31
630.802	165.31
631.008	163.31
631.214	172.31
631.42	165.31
631.627	168.31
631.833	159.31
632.039	159.31
632.245	173.31
632.451	169.31
632.657	154.31
632.863	163.31
633.069	153.31
633.275	162.31
633.481	179.31
633.688	171.31
633.893	167.31
634.099	152.31
634.305	155.31
634.511	169.31
634.717	166.31
634.923	156.31
635.129	143.31
635.335	174.31
635.541	151.31
635.747	145.31
635.952	151.31
636.158	158.31
636.364	166.31
636.57	167.31
636.775	163.31
636.981	171.31
637.187	151.31
637.392	144.31
637.598	174.31
637.804	157.31
638.009	141.31
638.215	145.31
638.421	157.31
638.626	132.31
638.832	163.31
639.037	149.31
639.243	154.31
639.448	138.31
639.654	150.31
639.859	154.31
640.065	166.31
640.27	150.31
640.475	156.31
640.681	150.31
640.886	143.31
641.091	147.31
641.297	164.31
641.502	155.31
641.707	158.31
641.913	165.31
642.118	138.31
642.323	154.31
642.528	149.31
642.733	161.31
642.939	162.31
643.144	156.31
643.349	153.31
643.554	145.31
643.759	146.31
643.964	150.31
644.169	158.31
644.374	148.31
644.579	144.31
644.784	156.31
644.989	143.31
645.194	140.31
645.399	140.31
645.604	133.31
645.809	150.31
646.014	155.31
646.219	152.31
646.423	136.31
646.628	144.31
646.833	148.31
647.038	152.31
647.243	162.31
647.447	146.31
647.652	148.31
647.857	148.31
648.062	148.31
648.266	152.31
648.471	143.31
648.676	147.31
648.88	150.31
649.085	128.31
649.289	142.31
649.494	143.31
649.698	156.31
649.903	169.31
650.107	157.31
650.312	144.31
650.516	144.31
650.721	154.31
650.925	132.31
651.13	140.31
651.334	124.31
651.539	134.31
651.743	130.31
651.947	141.31
652.152	152.31
652.356	142.31
652.56	126.31
652.764	123.31
652.969	135.31
653.173	130.31
653.377	126.31
653.581	132.31
653.785	122.31
653.99	134.31
654.194	118.31
654.398	123.31
654.602	122.31
654.806	129.31
655.01	128.31
655.214	130.31
655.418	124.31
655.622	124.31
655.826	123.31
656.03	127.31
656.234	122.31
656.438	120.31
656.642	134.31
656.846	126.31
657.049	123.31
657.253	123.31
657.457	111.31
657.661	111.31
657.865	109.31
658.068	106.31
658.272	130.31
658.476	104.31
658.68	99.31
658.883	96.31
659.087	91.31
659.291	94.31
659.494	97.31
659.698	84.31
659.901	98.31
660.105	98.31
660.309	102.31
660.512	88.31
660.716	89.31
660.919	92.31
661.123	107.31
661.326	79.31
661.53	94.31
661.733	88.31
661.936	72.31
662.14	76.31
662.343	88.31
662.546	103.31
662.75	93.31
662.953	90.31
663.156	72.31
663.36	94.31
663.563	90.31
663.766	82.31
663.969	78.31
664.173	87.31
664.376	94.31
664.579	93.31
664.782	93.31
664.985	85.31
665.188	77.31
665.391	80.31
665.594	79.31
665.797	90.31
666	83.31
666.203	74.31
666.406	104.31
666.609	86.31
666.812	100.31
667.015	90.31
667.218	81.31
667.421	95.31
667.624	86.31
667.827	88.31
668.03	101.31
668.232	82.31
668.435	77.31
668.638	93.31
668.841	87.31
669.043	81.31
669.246	89.31
669.449	83.31
669.651	90.31
669.854	75.31
670.057	79.31
670.259	76.31
670.462	94.31
670.665	79.31
670.867	88.31
671.07	95.31
671.272	91.31
671.475	87.31
671.677	84.31
671.88	89.31
672.082	70.31
672.284	82.31
672.487	74.31
672.689	79.31
672.892	88.31
